#time,accel_x,accel_y,accel_z
36.532760,-9622.677246,1149.143247,-666.185348
36.533070,-8956.491898,-76.609550,666.185348
36.533379,-9770.718434,1455.581446,-296.082377
36.533689,-9400.615463,1378.971896,-148.041188
36.533998,-9104.533087,1915.238745,0.000000
36.534307,-9622.677246,1608.800546,0.000000
36.534617,-10955.047942,1225.752797,1628.453072
36.534926,-9548.656652,2145.067394,-222.061783
36.535236,-8882.471304,1762.019645,-148.041188
36.535545,-10140.821405,766.095498,74.020594
36.535855,-9104.533087,1378.971896,-222.061783
36.536164,-9548.656652,1685.410096,-148.041188
36.536473,-9548.656652,1455.581446,-148.041188
36.536783,-9474.636058,1608.800546,-222.061783
36.537092,-9474.636058,1915.238745,-296.082377
36.537402,-8290.306550,-536.266849,-296.082377
36.537711,-9548.656652,1225.752797,-222.061783
36.538021,-9696.697840,1762.019645,-444.123565
36.538330,-9400.615463,1915.238745,-518.144159
36.538639,-9030.512492,1149.143247,-148.041188
36.538949,-11177.109724,1225.752797,-814.226536
36.539258,-9326.594869,1685.410096,-444.123565
36.539568,-9844.739029,1378.971896,-296.082377
36.539877,-9622.677246,1149.143247,-518.144159
36.540187,-9252.574275,3677.258390,-518.144159
36.540496,-9770.718434,1762.019645,222.061783
36.540805,-9400.615463,1378.971896,0.000000
36.541115,-9474.636058,1455.581446,-148.041188
36.541424,-9030.512492,1225.752797,0.000000
36.541734,-11917.315666,1532.190996,1406.391290
36.542043,-8734.430116,1532.190996,-814.226536
36.542353,-9622.677246,1532.190996,-296.082377
36.542662,-9474.636058,1302.362347,-518.144159
36.542971,-9474.636058,1685.410096,0.000000
36.543281,-10955.047942,-0.000000,1258.350101
36.543590,-9326.594869,1762.019645,0.000000
36.543900,-8956.491898,1608.800546,-296.082377
36.544209,-9252.574275,1455.581446,-592.164754
36.544519,-8882.471304,995.924147,-444.123565
36.544828,-9474.636058,1838.629195,-888.247130
36.545137,-9400.615463,2221.676944,-148.041188
36.545447,-9400.615463,1532.190996,0.000000
36.545756,-9326.594869,1149.143247,370.102971
36.546066,-9770.718434,1838.629195,444.123565
36.546375,-9178.553681,2068.457845,-296.082377
36.546685,-9104.533087,1762.019645,-740.205942
36.546994,-9474.636058,1225.752797,-148.041188
36.547303,-9918.759623,842.705048,74.020594
36.547613,-8956.491898,1378.971896,0.000000
36.547922,-9252.574275,1915.238745,0.000000
36.548232,-9474.636058,2145.067394,-740.205942
36.548541,-8734.430116,1608.800546,-222.061783
36.548851,-9104.533087,-3294.210641,-74.020594
36.549160,-10066.800811,612.876398,74.020594
36.549469,-9770.718434,1455.581446,-296.082377
36.549779,-9770.718434,1915.238745,-962.267725
36.550088,-9252.574275,1685.410096,-148.041188
36.550398,-10658.965565,1608.800546,0.000000
36.550707,-8956.491898,1608.800546,-370.102971
36.551016,-9400.615463,1302.362347,74.020594
36.551326,-9918.759623,1302.362347,-444.123565
36.551635,-8734.430116,1302.362347,-2960.823768
36.551945,-9548.656652,1991.848295,0.000000
36.552254,-9400.615463,459.657299,0.000000
36.552564,-9178.553681,995.924147,-222.061783
36.552873,-9400.615463,1991.848295,-370.102971
36.553182,-9992.780217,1378.971896,888.247130
36.553492,-8956.491898,1455.581446,74.020594
36.553801,-9326.594869,1608.800546,0.000000
36.554111,-9770.718434,1302.362347,-370.102971
36.554420,-9770.718434,1532.190996,0.000000
36.554730,-9622.677246,1302.362347,-666.185348
36.555039,-8956.491898,1302.362347,-222.061783
36.555348,-9474.636058,1532.190996,-444.123565
36.555658,-8956.491898,1455.581446,296.082377
36.555967,-10732.986159,-1378.971896,0.000000
36.556277,-9844.739029,1915.238745,0.000000
36.556586,-9474.636058,1991.848295,-148.041188
36.556896,-9474.636058,689.485948,-148.041188
36.557205,-9400.615463,1225.752797,-296.082377
36.557514,-9104.533087,-0.000000,0.000000
36.557824,-9104.533087,842.705048,0.000000
36.558133,-9178.553681,1685.410096,0.000000
36.558443,-9252.574275,2221.676944,-592.164754
36.558752,-9918.759623,689.485948,148.041188
36.559062,-9770.718434,612.876398,0.000000
36.559371,-9548.656652,1072.533697,0.000000
36.559680,-9474.636058,1455.581446,-222.061783
36.559990,-9326.594869,1302.362347,-148.041188
36.560299,-9770.718434,2681.334243,444.123565
36.560609,-9104.533087,1302.362347,0.000000
36.560918,-9548.656652,1991.848295,0.000000
36.561228,-9104.533087,1608.800546,0.000000
36.561537,-9918.759623,1532.190996,-148.041188
36.561846,-9474.636058,2681.334243,-592.164754
36.562156,-9474.636058,1149.143247,-370.102971
36.562465,-9252.574275,383.047749,74.020594
36.562775,-9178.553681,1378.971896,0.000000
36.563084,-10955.047942,-3064.381992,1184.329507
36.563394,-9104.533087,1302.362347,370.102971
36.563703,-9252.574275,766.095498,148.041188
36.564012,-9844.739029,766.095498,0.000000
36.564322,-10214.842000,1149.143247,0.000000
36.564631,-11991.336260,383.047749,0.000000
36.564941,-9030.512492,1302.362347,-296.082377
36.565250,-8956.491898,1378.971896,0.000000
36.565560,-8808.450710,1072.533697,444.123565
36.565869,-9252.574275,3370.820191,0.000000
36.566178,-9770.718434,1608.800546,74.020594
36.566488,-10214.842000,1608.800546,-222.061783
36.566797,-9400.615463,1378.971896,-296.082377
36.567107,-9696.697840,995.924147,74.020594
36.567416,-9474.636058,2221.676944,-1554.432478
36.567726,-9400.615463,1762.019645,222.061783
36.568035,-8882.471304,1532.190996,74.020594
36.568344,-9326.594869,1378.971896,0.000000
36.568654,-9548.656652,1378.971896,148.041188
36.568963,-9178.553681,2068.457845,-222.061783
36.569273,-9696.697840,612.876398,0.000000
36.569582,-9770.718434,995.924147,-444.123565
36.569892,-9400.615463,1532.190996,222.061783
36.570201,-8660.409521,3447.429741,2590.720797
36.570510,-9178.553681,995.924147,0.000000
36.570820,-9104.533087,1378.971896,0.000000
36.571129,-9622.677246,1532.190996,0.000000
36.571439,-9844.739029,1149.143247,0.000000
36.571748,-10140.821405,2221.676944,740.205942
36.572058,-9992.780217,1149.143247,-222.061783
36.572367,-9252.574275,1532.190996,0.000000
36.572676,-9326.594869,1532.190996,0.000000
36.572986,-9326.594869,1149.143247,370.102971
36.573295,-9252.574275,2068.457845,444.123565
36.573605,-8956.491898,995.924147,0.000000
36.573914,-9844.739029,919.314598,0.000000
36.574224,-9696.697840,1762.019645,-444.123565
36.574533,-11029.068536,459.657299,148.041188
36.574842,-9400.615463,383.047749,148.041188
36.575152,-8956.491898,1302.362347,0.000000
36.575461,-9104.533087,1608.800546,222.061783
36.575771,-9400.615463,1685.410096,0.000000
36.576080,-8808.450710,1762.019645,0.000000
36.576389,-9918.759623,689.485948,518.144159
36.576699,-10066.800811,229.828649,-222.061783
36.577008,-9474.636058,995.924147,-370.102971
36.577318,-9992.780217,1072.533697,-1480.411884
36.577627,-9252.574275,689.485948,0.000000
36.577937,-8882.471304,1455.581446,0.000000
36.578246,-9474.636058,995.924147,518.144159
36.578555,-9474.636058,612.876398,222.061783
36.578865,-10955.047942,-1302.362347,370.102971
36.579174,-9992.780217,1225.752797,148.041188
36.579484,-9622.677246,1225.752797,0.000000
36.579793,-9474.636058,1302.362347,-222.061783
36.580103,-9622.677246,1302.362347,0.000000
36.580412,-10288.862594,766.095498,1776.494261
36.580721,-9252.574275,1149.143247,222.061783
36.581031,-9400.615463,1685.410096,148.041188
36.581340,-9770.718434,1225.752797,74.020594
36.581650,-9178.553681,3983.696590,-2886.803174
36.581959,-9696.697840,995.924147,518.144159
36.582269,-9474.636058,1225.752797,-296.082377
36.582578,-9400.615463,1608.800546,74.020594
36.582887,-9474.636058,1225.752797,222.061783
36.583197,-8586.388927,1072.533697,-740.205942
36.583506,-9844.739029,689.485948,296.082377
36.583816,-9326.594869,995.924147,-296.082377
36.584125,-9770.718434,1378.971896,0.000000
36.584435,-9474.636058,2451.505594,-222.061783
36.584744,-10066.800811,766.095498,814.226536
36.585053,-9030.512492,-0.000000,370.102971
36.585363,-9252.574275,1302.362347,-148.041188
36.585672,-9400.615463,1991.848295,-518.144159
36.585982,-8882.471304,-995.924147,444.123565
36.586291,-8956.491898,842.705048,74.020594
36.586601,-9252.574275,766.095498,74.020594
36.586910,-9992.780217,1149.143247,148.041188
36.587219,-9474.636058,1532.190996,0.000000
36.587529,-9770.718434,1225.752797,1406.391290
36.587838,-9178.553681,1302.362347,0.000000
36.588148,-9178.553681,995.924147,518.144159
36.588457,-9474.636058,842.705048,0.000000
36.588767,-9178.553681,1149.143247,-1332.370696
36.589076,-9474.636058,1532.190996,0.000000
36.589385,-9474.636058,1455.581446,0.000000
36.589695,-9622.677246,1149.143247,370.102971
36.590004,-9474.636058,1608.800546,0.000000
36.590314,-10436.903782,766.095498,0.000000
36.590623,-9474.636058,1149.143247,0.000000
36.590933,-9178.553681,1302.362347,518.144159
36.591242,-9474.636058,689.485948,0.000000
36.591551,-9252.574275,-612.876398,370.102971
36.591861,-8586.388927,1302.362347,-444.123565
36.592170,-9252.574275,1532.190996,0.000000
36.592480,-9696.697840,1608.800546,222.061783
36.592789,-9696.697840,1072.533697,-148.041188
36.593099,-8882.471304,-1838.629195,148.041188
36.593408,-9474.636058,459.657299,0.000000
36.593717,-9474.636058,766.095498,148.041188
36.594027,-9474.636058,1225.752797,0.000000
36.594336,-9178.553681,1072.533697,222.061783
36.594646,-9918.759623,612.876398,1406.391290
36.594955,-9474.636058,919.314598,296.082377
36.595265,-9918.759623,1225.752797,74.020594
36.595574,-9844.739029,1455.581446,-222.061783
36.595883,-9548.656652,1838.629195,2220.617826
36.596193,-9474.636058,-0.000000,0.000000
36.596502,-8586.388927,1302.362347,518.144159
36.596812,-9252.574275,1608.800546,-222.061783
36.597121,-9178.553681,1225.752797,370.102971
36.597431,-7254.018232,2451.505594,-1776.494261
36.597740,-9178.553681,1455.581446,0.000000
36.598049,-9696.697840,689.485948,222.061783
36.598359,-9992.780217,689.485948,148.041188
36.598668,-9474.636058,842.705048,74.020594
36.598978,-9474.636058,2374.896044,296.082377
36.599287,-8882.471304,1685.410096,296.082377
36.599597,-9548.656652,1378.971896,296.082377
36.599906,-9030.512492,1072.533697,518.144159
36.600215,-9696.697840,1532.190996,-592.164754
36.600525,-9992.780217,1302.362347,0.000000
36.600834,-9622.677246,1608.800546,-148.041188
36.601144,-9252.574275,1532.190996,0.000000
36.601453,-9104.533087,536.266849,518.144159
36.601762,-7846.182985,2681.334243,-592.164754
36.602072,-8882.471304,1149.143247,222.061783
36.602381,-9474.636058,1685.410096,0.000000
36.602691,-9622.677246,1532.190996,222.061783
36.603000,-9844.739029,2221.676944,222.061783
36.603310,-9548.656652,612.876398,74.020594
36.603619,-9770.718434,766.095498,-222.061783
36.603928,-9548.656652,766.095498,0.000000
36.604238,-9104.533087,689.485948,666.185348
36.604547,-8512.368333,-1302.362347,-1332.370696
36.604857,-8734.430116,1532.190996,518.144159
36.605166,-9992.780217,1378.971896,74.020594
36.605476,-9548.656652,995.924147,-444.123565
36.605785,-9696.697840,1225.752797,0.000000
36.606094,-9918.759623,459.657299,-370.102971
36.606404,-9548.656652,612.876398,444.123565
36.606713,-9030.512492,1608.800546,0.000000
36.607023,-9252.574275,1532.190996,148.041188
36.607332,-9770.718434,2834.553343,-296.082377
36.607642,-9474.636058,1225.752797,222.061783
36.607951,-9770.718434,1532.190996,370.102971
36.608260,-9770.718434,995.924147,148.041188
36.608570,-9474.636058,1072.533697,0.000000
36.608879,-7105.977043,842.705048,0.000000
36.609189,-9252.574275,1378.971896,0.000000
36.609498,-9030.512492,1532.190996,74.020594
36.609808,-9326.594869,1225.752797,444.123565
36.610117,-9178.553681,-2987.772442,296.082377
36.610426,-10510.924376,1608.800546,296.082377
36.610736,-10140.821405,1455.581446,296.082377
36.611045,-9474.636058,1915.238745,-666.185348
36.611355,-9474.636058,1455.581446,518.144159
36.611664,-9252.574275,-3294.210641,1850.514855
36.611974,-9326.594869,306.438199,148.041188
36.612283,-9030.512492,1378.971896,222.061783
36.612592,-9400.615463,1762.019645,0.000000
36.612902,-9252.574275,1149.143247,148.041188
36.613211,-10436.903782,1072.533697,-518.144159
36.613521,-9548.656652,1532.190996,222.061783
36.613830,-9696.697840,919.314598,0.000000
36.614140,-9770.718434,459.657299,518.144159
36.614449,-9030.512492,2604.724693,-888.247130
36.614758,-8956.491898,1608.800546,148.041188
36.615068,-8808.450710,1455.581446,0.000000
36.615377,-9326.594869,1072.533697,0.000000
36.615687,-9992.780217,919.314598,444.123565
36.615996,-9770.718434,1685.410096,740.205942
36.616306,-10288.862594,1149.143247,0.000000
36.616615,-9696.697840,919.314598,0.000000
36.616924,-9104.533087,919.314598,-222.061783
36.617234,-8956.491898,919.314598,0.000000
36.617543,-9400.615463,1149.143247,444.123565
36.617853,-9104.533087,995.924147,296.082377
36.618162,-9178.553681,1455.581446,0.000000
36.618472,-9548.656652,1149.143247,148.041188
36.618781,-10807.006753,4060.306139,444.123565
36.619090,-9548.656652,1915.238745,74.020594
36.619400,-9400.615463,1608.800546,0.000000
36.619709,-9252.574275,536.266849,296.082377
36.620019,-9326.594869,842.705048,222.061783
36.620328,-9474.636058,1532.190996,0.000000
36.620638,-9178.553681,1532.190996,148.041188
36.620947,-9400.615463,1838.629195,0.000000
36.621256,-9696.697840,1532.190996,0.000000
36.621566,-9770.718434,1608.800546,-444.123565
36.621875,-9252.574275,1072.533697,592.164754
36.622185,-9844.739029,842.705048,0.000000
36.622494,-9252.574275,1225.752797,222.061783
36.622804,-8956.491898,2221.676944,-148.041188
36.623113,-10584.944971,2374.896044,3330.926739
36.623422,-9918.759623,1225.752797,74.020594
36.623732,-9548.656652,1225.752797,-222.061783
36.624041,-10066.800811,766.095498,0.000000
36.624351,-9696.697840,919.314598,-222.061783
36.624660,-9400.615463,2068.457845,-222.061783
36.624969,-9030.512492,1532.190996,74.020594
36.625279,-9178.553681,1149.143247,148.041188
36.625588,-9252.574275,1225.752797,222.061783
36.625898,-10436.903782,306.438199,-2368.659014
36.626207,-9770.718434,1608.800546,0.000000
36.626517,-9844.739029,1225.752797,-222.061783
36.626826,-9696.697840,919.314598,0.000000
36.627135,-9030.512492,1149.143247,222.061783
36.627445,-10658.965565,2528.115143,296.082377
36.627754,-9326.594869,1608.800546,296.082377
36.628064,-9326.594869,1455.581446,0.000000
36.628373,-9252.574275,1149.143247,-148.041188
36.628683,-9918.759623,306.438199,740.205942
36.628992,-9770.718434,1149.143247,0.000000
36.629301,-9474.636058,1762.019645,-518.144159
36.629611,-9326.594869,1532.190996,74.020594
36.629920,-9104.533087,1149.143247,0.000000
36.630230,-8068.244768,383.047749,814.226536
36.630539,-8882.471304,1149.143247,370.102971
36.630849,-9474.636058,842.705048,-370.102971
36.631158,-9622.677246,1838.629195,148.041188
36.631467,-9770.718434,1915.238745,-222.061783
36.631777,-10140.821405,1685.410096,370.102971
36.632086,-9400.615463,536.266849,222.061783
36.632396,-9474.636058,995.924147,74.020594
36.632705,-9030.512492,1378.971896,0.000000
36.633014,-10510.924376,-306.438199,222.061783
36.633324,-8956.491898,612.876398,444.123565
36.633633,-9696.697840,995.924147,296.082377
36.633943,-9548.656652,919.314598,0.000000
36.634252,-10066.800811,766.095498,-296.082377
36.634561,-8808.450710,-995.924147,-518.144159
36.634871,-9252.574275,1762.019645,-148.041188
36.635180,-9104.533087,1072.533697,148.041188
36.635490,-8956.491898,766.095498,370.102971
36.635799,-9326.594869,1225.752797,0.000000
36.636108,-9474.636058,919.314598,888.247130
36.636418,-9474.636058,1532.190996,-518.144159
36.636727,-9696.697840,1302.362347,222.061783
36.637037,-9474.636058,1072.533697,0.000000
36.637346,-9178.553681,-1149.143247,-1110.308913
36.637655,-9770.718434,1608.800546,-370.102971
36.637965,-9178.553681,1302.362347,0.000000
36.638274,-9178.553681,842.705048,0.000000
36.638583,-9474.636058,1762.019645,-148.041188
36.638893,-11029.068536,306.438199,814.226536
36.639202,-10140.821405,766.095498,-296.082377
36.639512,-9622.677246,1685.410096,-148.041188
36.639821,-9622.677246,1532.190996,-296.082377
36.640130,-9178.553681,1072.533697,962.267725
36.640440,-9252.574275,1378.971896,296.082377
36.640749,-8956.491898,1915.238745,-370.102971
36.641059,-9252.574275,1915.238745,-592.164754
36.641368,-9474.636058,1838.629195,-296.082377
36.641677,-10584.944971,1455.581446,1776.494261
36.641987,-9474.636058,766.095498,0.000000
36.642296,-9474.636058,995.924147,74.020594
36.642606,-9548.656652,1915.238745,-666.185348
36.642915,-9104.533087,2145.067394,0.000000
36.643224,-8438.347739,1532.190996,0.000000
36.643534,-8956.491898,842.705048,148.041188
36.643843,-9622.677246,612.876398,370.102971
36.644153,-9918.759623,1072.533697,-444.123565
36.644462,-9918.759623,1762.019645,0.000000
36.644771,-9252.574275,1991.848295,-814.226536
36.645081,-9178.553681,1532.190996,0.000000
36.645390,-9252.574275,995.924147,296.082377
36.645700,-9326.594869,536.266849,296.082377
36.646009,-10214.842000,1685.410096,-1184.329507
36.646318,-9622.677246,2145.067394,-666.185348
36.646628,-9030.512492,1685.410096,74.020594
36.646937,-9474.636058,1378.971896,-222.061783
36.647247,-9474.636058,306.438199,148.041188
36.647556,-9178.553681,612.876398,-296.082377
36.647865,-9252.574275,1532.190996,0.000000
36.648175,-9622.677246,2068.457845,-444.123565
36.648484,-9178.553681,1225.752797,0.000000
36.648794,-7550.100608,383.047749,-1998.556043
36.649103,-10214.842000,1455.581446,-592.164754
36.649412,-9696.697840,1072.533697,-222.061783
36.649722,-9548.656652,1149.143247,0.000000
36.650031,-9030.512492,919.314598,74.020594
36.650341,-8660.409521,995.924147,518.144159
36.650650,-9030.512492,1762.019645,-148.041188
36.650959,-9474.636058,2451.505594,-222.061783
36.651269,-9696.697840,1608.800546,-296.082377
36.651578,-9844.739029,2298.286494,1850.514855
36.651887,-9252.574275,459.657299,0.000000
36.652197,-9474.636058,612.876398,0.000000
36.652506,-9474.636058,1838.629195,0.000000
36.652816,-9030.512492,2451.505594,-444.123565
36.653125,-8956.491898,3524.039291,148.041188
36.653434,-9326.594869,1149.143247,518.144159
36.653744,-9474.636058,612.876398,0.000000
36.654053,-9992.780217,1149.143247,-888.247130
36.654363,-9696.697840,1378.971896,-370.102971
36.654672,-9030.512492,1072.533697,-592.164754
36.654981,-9252.574275,1608.800546,0.000000
36.655291,-9474.636058,1762.019645,74.020594
36.655600,-9252.574275,1225.752797,-296.082377
36.655910,-11621.233289,1072.533697,740.205942
36.656219,-9474.636058,1915.238745,-222.061783
36.656528,-9474.636058,1532.190996,0.000000
36.656838,-9844.739029,1302.362347,-148.041188
36.657147,-9474.636058,1838.629195,-518.144159
36.657457,-8882.471304,-0.000000,-1258.350101
36.657766,-9104.533087,766.095498,0.000000
36.658075,-9252.574275,1608.800546,0.000000
36.658385,-9104.533087,2604.724693,-296.082377
36.658694,-9326.594869,4903.011187,518.144159
36.659004,-9400.615463,1149.143247,-296.082377
36.659313,-9622.677246,1455.581446,-592.164754
36.659622,-9918.759623,1225.752797,-222.061783
36.659932,-9030.512492,842.705048,148.041188
36.660241,-7772.162391,2604.724693,-592.164754
36.660551,-9252.574275,1915.238745,0.000000
36.660860,-9770.718434,1838.629195,-148.041188
36.661169,-9400.615463,1532.190996,-666.185348
36.661479,-9400.615463,1302.362347,0.000000
36.661788,-8808.450710,-1072.533697,-1332.370696
36.662098,-9252.574275,919.314598,0.000000
36.662407,-9252.574275,1455.581446,-666.185348
36.662716,-9326.594869,1991.848295,-222.061783
36.663026,-10658.965565,3830.477490,1702.473667
36.663335,-9474.636058,1072.533697,-222.061783
36.663645,-9104.533087,842.705048,74.020594
36.663954,-9548.656652,1149.143247,0.000000
36.664263,-9622.677246,1225.752797,-518.144159
36.664573,-10214.842000,1072.533697,-592.164754
36.664882,-9178.553681,1991.848295,0.000000
36.665191,-9474.636058,1608.800546,-222.061783
36.665501,-9400.615463,1149.143247,222.061783
36.665810,-9622.677246,2451.505594,-444.123565
36.666120,-8734.430116,1532.190996,-814.226536
36.666429,-9992.780217,1455.581446,-74.020594
36.666738,-9622.677246,766.095498,0.000000
36.667048,-9326.594869,1455.581446,-222.061783
36.667357,-11029.068536,842.705048,1184.329507
36.667667,-9326.594869,1455.581446,-444.123565
36.667976,-9030.512492,1378.971896,-222.061783
36.668285,-9918.759623,1532.190996,-148.041188
36.668595,-9400.615463,766.095498,-370.102971
36.668904,-8586.388927,766.095498,-1036.288319
36.669214,-9770.718434,1302.362347,-296.082377
36.669523,-9252.574275,1991.848295,-444.123565
36.669832,-9104.533087,1455.581446,74.020594
36.670142,-9178.553681,-0.000000,0.000000
36.670451,-9400.615463,1915.238745,148.041188
36.670761,-9548.656652,1685.410096,-962.267725
36.671070,-9770.718434,1915.238745,-444.123565
36.671379,-9030.512492,1532.190996,0.000000
36.671689,-10732.986159,3830.477490,-1110.308913
36.671998,-9400.615463,1149.143247,148.041188
36.672308,-9548.656652,2221.676944,-222.061783
36.672617,-9400.615463,1991.848295,-888.247130
36.672926,-9400.615463,1072.533697,0.000000
36.673236,-9400.615463,1608.800546,444.123565
36.673545,-9770.718434,1149.143247,0.000000
36.673855,-9548.656652,1685.410096,-296.082377
36.674164,-9548.656652,1532.190996,-1110.308913
36.674473,-7476.080014,-1532.190996,444.123565
36.674783,-8734.430116,1072.533697,0.000000
36.675092,-9474.636058,1302.362347,222.061783
36.675402,-9400.615463,1378.971896,370.102971
36.675711,-10066.800811,1302.362347,-444.123565
36.676020,-9474.636058,2451.505594,-962.267725
36.676330,-9326.594869,1532.190996,0.000000
36.676639,-9474.636058,689.485948,148.041188
36.676949,-9030.512492,1072.533697,0.000000
36.677258,-9178.553681,-1072.533697,-444.123565
36.677567,-9548.656652,1608.800546,-222.061783
36.677877,-9622.677246,1838.629195,74.020594
36.678186,-9548.656652,1225.752797,74.020594
36.678495,-10362.883188,1225.752797,-148.041188
36.678805,-10658.965565,4519.963438,-370.102971
36.679114,-9844.739029,919.314598,0.000000
36.679424,-8882.471304,1378.971896,-518.144159
36.679733,-8882.471304,1378.971896,74.020594
36.680042,-9326.594869,995.924147,0.000000
36.680352,-9918.759623,1762.019645,-148.041188
36.680661,-9770.718434,1991.848295,-148.041188
36.680971,-10066.800811,1685.410096,-592.164754
36.681280,-10066.800811,842.705048,0.000000
36.681589,-9400.615463,2068.457845,-2146.597232
36.681899,-9474.636058,1225.752797,-222.061783
36.682208,-8734.430116,1378.971896,0.000000
36.682518,-8808.450710,1378.971896,0.000000
36.682827,-8734.430116,1149.143247,148.041188
36.683136,-11103.089130,2451.505594,-296.082377
36.683446,-10214.842000,1532.190996,-222.061783
36.683755,-9770.718434,766.095498,0.000000
36.684065,-9770.718434,1378.971896,-370.102971
36.684374,-9400.615463,3140.991542,-74.020594
36.684683,-9844.739029,612.876398,370.102971
36.684993,-8734.430116,995.924147,0.000000
36.685302,-9178.553681,1302.362347,370.102971
36.685612,-9548.656652,1072.533697,0.000000
36.685921,-8142.265362,2681.334243,-1332.370696
36.686230,-9696.697840,1991.848295,-444.123565
36.686540,-9770.718434,1378.971896,0.000000
36.686849,-9770.718434,536.266849,0.000000
36.687159,-9104.533087,919.314598,0.000000
36.687468,-9252.574275,2681.334243,-444.123565
36.687777,-9400.615463,1838.629195,-148.041188
36.688087,-9326.594869,1608.800546,0.000000
36.688396,-9474.636058,766.095498,0.000000
36.688706,-9622.677246,3294.210641,2368.659014
36.689015,-9770.718434,1455.581446,-444.123565
36.689324,-9474.636058,1685.410096,-370.102971
36.689634,-9622.677246,1225.752797,296.082377
36.689943,-9104.533087,1072.533697,-296.082377
36.690252,-7476.080014,-612.876398,-888.247130
36.690562,-9252.574275,1455.581446,222.061783
36.690871,-9474.636058,1915.238745,-518.144159
36.691181,-9696.697840,1532.190996,-370.102971
36.691490,-9992.780217,1149.143247,74.020594
36.691799,-9252.574275,229.828649,222.061783
36.692109,-9548.656652,689.485948,0.000000
36.692418,-9252.574275,1302.362347,148.041188
36.692728,-8882.471304,1991.848295,-222.061783
36.693037,-9474.636058,1302.362347,-666.185348
36.693346,-9252.574275,995.924147,74.020594
36.693656,-9548.656652,229.828649,74.020594
36.693965,-10288.862594,689.485948,0.000000
36.694275,-9992.780217,1838.629195,-296.082377
36.694584,-9178.553681,995.924147,370.102971
36.694893,-9178.553681,842.705048,444.123565
36.695203,-9030.512492,536.266849,296.082377
36.695512,-9178.553681,1378.971896,0.000000
36.695822,-9030.512492,3447.429741,1184.329507
36.696131,-9844.739029,1378.971896,0.000000
36.696440,-9474.636058,1378.971896,-222.061783
36.696750,-9548.656652,1149.143247,0.000000
36.697059,-9844.739029,1072.533697,-148.041188
36.697369,-9474.636058,2145.067394,0.000000
36.697678,-9252.574275,1762.019645,0.000000
36.697987,-8956.491898,842.705048,592.164754
36.698297,-9104.533087,919.314598,148.041188
36.698606,-9400.615463,1225.752797,222.061783
36.698916,-10436.903782,1608.800546,592.164754
36.699225,-10362.883188,1378.971896,-592.164754
36.699534,-9770.718434,1225.752797,148.041188
36.699844,-9770.718434,689.485948,74.020594
36.700153,-8882.471304,1378.971896,962.267725
36.700463,-9474.636058,1685.410096,370.102971
36.700772,-9030.512492,1455.581446,74.020594
36.701081,-9178.553681,1838.629195,222.061783
36.701391,-9548.656652,1302.362347,0.000000
36.701700,-10288.862594,2068.457845,518.144159
36.702010,-10140.821405,1149.143247,-296.082377
36.702319,-9548.656652,1225.752797,-296.082377
36.702628,-9252.574275,1302.362347,74.020594
36.702938,-8956.491898,306.438199,-1110.308913
36.703247,-9104.533087,766.095498,370.102971
36.703556,-9252.574275,1532.190996,0.000000
36.703866,-9696.697840,1378.971896,0.000000
36.704175,-10214.842000,1378.971896,-222.061783
36.704485,-12435.459826,1838.629195,-444.123565
36.704794,-9696.697840,995.924147,148.041188
36.705103,-9474.636058,766.095498,296.082377
36.705413,-8586.388927,995.924147,148.041188
36.705722,-9252.574275,2221.676944,-296.082377
36.706032,-8142.265362,2221.676944,-148.041188
36.706341,-9252.574275,612.876398,518.144159
36.706650,-9548.656652,842.705048,0.000000
36.706960,-10066.800811,1072.533697,0.000000
36.707269,-11251.130318,1072.533697,0.000000
36.707579,-8734.430116,1532.190996,-592.164754
36.707888,-9252.574275,1762.019645,148.041188
36.708197,-8660.409521,1149.143247,222.061783
36.708507,-9548.656652,612.876398,74.020594
36.708816,-9400.615463,1302.362347,814.226536
36.709126,-9992.780217,1225.752797,0.000000
36.709435,-9400.615463,1378.971896,148.041188
36.709744,-9770.718434,1532.190996,-296.082377
36.710054,-9622.677246,3983.696590,444.123565
36.710363,-9252.574275,919.314598,-148.041188
36.710673,-9622.677246,1149.143247,0.000000
36.710982,-9104.533087,1762.019645,148.041188
36.711291,-9030.512492,1302.362347,222.061783
36.711601,-10066.800811,5362.668486,1628.453072
36.711910,-9474.636058,1302.362347,0.000000
36.712220,-9474.636058,1608.800546,-518.144159
36.712529,-9622.677246,1378.971896,0.000000
36.712838,-9548.656652,1455.581446,0.000000
36.713148,-9474.636058,1149.143247,888.247130
36.713457,-9104.533087,766.095498,518.144159
36.713767,-9178.553681,1072.533697,74.020594
36.714076,-9548.656652,2298.286494,-370.102971
36.714385,-11621.233289,612.876398,3108.864956
36.714695,-9400.615463,1072.533697,518.144159
36.715004,-9326.594869,842.705048,518.144159
36.715314,-9622.677246,1072.533697,0.000000
36.715623,-9400.615463,1608.800546,-222.061783
36.715932,-9474.636058,4443.353888,814.226536
36.716242,-9474.636058,995.924147,518.144159
36.716551,-9474.636058,383.047749,296.082377
36.716860,-9548.656652,919.314598,148.041188
36.717170,-9696.697840,1838.629195,0.000000
36.717479,-9400.615463,2528.115143,-370.102971
36.717789,-8956.491898,1838.629195,-296.082377
36.718098,-9252.574275,995.924147,74.020594
36.718407,-9548.656652,229.828649,370.102971
36.718717,-10955.047942,2451.505594,-1258.350101
36.719026,-9178.553681,1608.800546,-296.082377
36.719336,-9474.636058,1608.800546,-148.041188
36.719645,-9326.594869,1378.971896,148.041188
36.719954,-9252.574275,995.924147,296.082377
36.720264,-9030.512492,1072.533697,1258.350101
36.720573,-9474.636058,919.314598,0.000000
36.720883,-9696.697840,2068.457845,-518.144159
36.721192,-9252.574275,1532.190996,0.000000
36.721501,-9104.533087,612.876398,740.205942
36.721811,-9696.697840,995.924147,222.061783
36.722120,-9622.677246,1378.971896,148.041188
36.722430,-9474.636058,1915.238745,0.000000
36.722739,-9474.636058,1378.971896,370.102971
36.723048,-7105.977043,-842.705048,148.041188
36.723358,-9104.533087,919.314598,0.000000
36.723667,-9918.759623,536.266849,74.020594
36.723977,-9178.553681,1455.581446,-296.082377
36.724286,-9844.739029,1838.629195,0.000000
36.724595,-8882.471304,1149.143247,-222.061783
36.724905,-9178.553681,536.266849,740.205942
36.725214,-9770.718434,1225.752797,518.144159
36.725524,-9770.718434,1685.410096,222.061783
36.725833,-10955.047942,2987.772442,518.144159
36.726142,-9326.594869,1762.019645,222.061783
36.726452,-9400.615463,536.266849,0.000000
36.726761,-9178.553681,766.095498,222.061783
36.727071,-9400.615463,1532.190996,74.020594
36.727380,-8586.388927,1915.238745,444.123565
36.727689,-9548.656652,1532.190996,296.082377
36.727999,-9622.677246,1149.143247,-222.061783
36.728308,-9770.718434,995.924147,296.082377
36.728618,-9918.759623,-76.609550,370.102971
36.728927,-9622.677246,612.876398,444.123565
36.729236,-9178.553681,1302.362347,370.102971
36.729546,-9400.615463,1149.143247,-148.041188
36.729855,-8734.430116,1532.190996,222.061783
36.730165,-11251.130318,306.438199,1554.432478
36.730474,-9400.615463,842.705048,-222.061783
36.730783,-9770.718434,1608.800546,0.000000
36.731093,-9992.780217,1532.190996,0.000000
36.731402,-9474.636058,766.095498,222.061783
36.731712,-9474.636058,766.095498,740.205942
36.732021,-9178.553681,1225.752797,0.000000
36.732330,-9474.636058,1685.410096,148.041188
36.732640,-8808.450710,1838.629195,-444.123565
36.732949,-9178.553681,1685.410096,518.144159
36.733259,-10066.800811,229.828649,518.144159
36.733568,-9770.718434,766.095498,-148.041188
36.733878,-10214.842000,1838.629195,0.000000
36.734187,-9992.780217,1915.238745,0.000000
36.734496,-8438.347739,-0.000000,-1480.411884
36.734806,-8660.409521,1225.752797,222.061783
36.735115,-8808.450710,842.705048,296.082377
36.735425,-9474.636058,995.924147,222.061783
36.735734,-10066.800811,1915.238745,0.000000
36.736044,-9474.636058,1225.752797,-222.061783
36.736353,-9770.718434,383.047749,148.041188
36.736662,-9770.718434,842.705048,148.041188
36.736972,-9104.533087,1302.362347,0.000000
36.737281,-7402.059420,1378.971896,666.185348
36.737591,-8882.471304,1838.629195,0.000000
36.737900,-9178.553681,1685.410096,222.061783
36.738209,-9104.533087,919.314598,0.000000
36.738519,-9622.677246,1072.533697,0.000000
36.738828,-9992.780217,995.924147,74.020594
36.739138,-9548.656652,1072.533697,-518.144159
36.739447,-9252.574275,1378.971896,592.164754
36.739757,-9474.636058,919.314598,518.144159
36.740066,-9252.574275,-2068.457845,-592.164754
36.740375,-9326.594869,1991.848295,74.020594
36.740685,-9844.739029,1455.581446,-148.041188
36.740994,-9104.533087,1378.971896,-370.102971
36.741304,-9474.636058,1072.533697,222.061783
36.741613,-10955.047942,4596.572988,-888.247130
36.741923,-9178.553681,1072.533697,222.061783
36.742232,-9770.718434,2451.505594,0.000000
36.742541,-9030.512492,2068.457845,0.000000
36.742851,-9178.553681,1302.362347,222.061783
36.743160,-9474.636058,-919.314598,-518.144159
36.743470,-9844.739029,995.924147,222.061783
36.743779,-10140.821405,1149.143247,0.000000
36.744088,-9326.594869,1608.800546,-296.082377
36.744398,-8068.244768,4366.744339,888.247130
36.744707,-9178.553681,1225.752797,296.082377
36.745017,-8808.450710,1378.971896,148.041188
36.745326,-9474.636058,1149.143247,74.020594
36.745636,-10066.800811,1302.362347,0.000000
36.745945,-10066.800811,3217.601092,-592.164754
36.746254,-9474.636058,1149.143247,222.061783
36.746564,-9474.636058,766.095498,-148.041188
36.746873,-8956.491898,1685.410096,0.000000
36.747183,-9030.512492,536.266849,74.020594
36.747492,-8882.471304,1378.971896,518.144159
36.747802,-8956.491898,1378.971896,0.000000
36.748111,-9918.759623,842.705048,296.082377
36.748420,-9474.636058,842.705048,370.102971
36.748730,-8512.368333,-1225.752797,-2146.597232
36.749039,-9548.656652,2068.457845,-592.164754
36.749349,-9178.553681,1149.143247,0.000000
36.749658,-8956.491898,536.266849,296.082377
36.749967,-9326.594869,919.314598,518.144159
36.750277,-9252.574275,1302.362347,74.020594
36.750586,-9548.656652,1762.019645,-518.144159
36.750896,-9696.697840,1532.190996,74.020594
36.751205,-9770.718434,1225.752797,-370.102971
36.751515,-9992.780217,-1838.629195,1110.308913
36.751824,-9326.594869,536.266849,444.123565
36.752133,-9104.533087,1608.800546,0.000000
36.752443,-9400.615463,2298.286494,-370.102971
36.752752,-9548.656652,1378.971896,0.000000
36.753062,-11251.130318,3524.039291,0.000000
36.753371,-10066.800811,1532.190996,-74.020594
36.753681,-9918.759623,1072.533697,-222.061783
36.753990,-9622.677246,1225.752797,-148.041188
36.754299,-9474.636058,995.924147,222.061783
36.754609,-9178.553681,919.314598,222.061783
36.754918,-8734.430116,1608.800546,0.000000
36.755228,-9326.594869,1915.238745,-222.061783
36.755537,-9474.636058,1302.362347,0.000000
36.755846,-10066.800811,766.095498,0.000000
36.756156,-9844.739029,1762.019645,-740.205942
36.756465,-9400.615463,1072.533697,0.000000
36.756775,-9770.718434,842.705048,148.041188
36.757084,-9400.615463,1608.800546,74.020594
36.757394,-9178.553681,4290.134789,-592.164754
36.757703,-9400.615463,1455.581446,0.000000
36.758012,-9178.553681,1302.362347,0.000000
36.758322,-9696.697840,1225.752797,-222.061783
36.758631,-11621.233289,612.876398,3108.864956
36.758941,-9844.739029,2451.505594,-296.082377
36.759250,-9252.574275,1838.629195,-148.041188
36.759560,-9474.636058,1532.190996,222.061783
36.759869,-9030.512492,842.705048,222.061783
36.760178,-9622.677246,1532.190996,1924.535449
36.760488,-9622.677246,1685.410096,222.061783
36.760797,-9400.615463,842.705048,0.000000
36.761107,-9992.780217,1072.533697,0.000000
36.761416,-9252.574275,1532.190996,222.061783
36.761725,-9918.759623,1378.971896,-296.082377
36.762035,-8956.491898,1608.800546,-666.185348
36.762344,-9178.553681,1455.581446,-222.061783
36.762654,-9474.636058,1225.752797,0.000000
36.762963,-8808.450710,2221.676944,-296.082377
36.763273,-9696.697840,995.924147,148.041188
36.763582,-9400.615463,1685.410096,-592.164754
36.763891,-9474.636058,2221.676944,-370.102971
36.764201,-9178.553681,1302.362347,0.000000
36.764510,-9252.574275,-1762.019645,74.020594
36.764820,-8734.430116,842.705048,148.041188
36.765129,-9400.615463,1532.190996,0.000000
36.765439,-9326.594869,2068.457845,-222.061783
36.765748,-9178.553681,2987.772442,-1776.494261
36.766057,-9992.780217,1685.410096,370.102971
36.766367,-9474.636058,995.924147,148.041188
36.766676,-9548.656652,919.314598,0.000000
36.766986,-9474.636058,1915.238745,0.000000
36.767295,-11399.171507,4060.306139,1036.288319
36.767605,-9400.615463,919.314598,0.000000
36.767914,-9326.594869,919.314598,0.000000
36.768223,-8956.491898,1991.848295,-518.144159
36.768533,-9622.677246,1455.581446,-222.061783
36.768842,-9622.677246,229.828649,-444.123565
36.769152,-9326.594869,995.924147,-518.144159
36.769461,-9548.656652,1149.143247,0.000000
36.769770,-9696.697840,1608.800546,0.000000
36.770080,-9622.677246,2451.505594,-1924.535449
36.770389,-9104.533087,2068.457845,-444.123565
36.770699,-9474.636058,153.219100,148.041188
36.771008,-9252.574275,306.438199,148.041188
36.771318,-9030.512492,1455.581446,-296.082377
36.771627,-9770.718434,-229.828649,0.000000
36.771936,-9696.697840,1838.629195,-370.102971
36.772246,-9474.636058,995.924147,0.000000
36.772555,-9400.615463,383.047749,148.041188
36.772865,-9696.697840,1532.190996,-222.061783
36.773174,-9548.656652,2221.676944,-222.061783
36.773484,-9178.553681,2145.067394,0.000000
36.773793,-9474.636058,1762.019645,0.000000
36.774102,-9474.636058,1225.752797,-296.082377
36.774412,-11029.068536,2221.676944,296.082377
36.774721,-9770.718434,1455.581446,-296.082377
36.775031,-9918.759623,1455.581446,0.000000
36.775340,-9474.636058,1225.752797,0.000000
36.775649,-9178.553681,995.924147,148.041188
36.775959,-9770.718434,229.828649,518.144159
36.776268,-9178.553681,1762.019645,-296.082377
36.776578,-9400.615463,1685.410096,-222.061783
36.776887,-9548.656652,1532.190996,-222.061783
36.777197,-9400.615463,2451.505594,-74.020594
36.777506,-9474.636058,383.047749,-518.144159
36.777815,-9400.615463,689.485948,0.000000
36.778125,-9548.656652,1455.581446,-148.041188
36.778434,-9178.553681,2068.457845,-222.061783
36.778744,-8882.471304,919.314598,74.020594
36.779053,-9326.594869,459.657299,148.041188
36.779363,-9844.739029,1072.533697,0.000000
36.779672,-9548.656652,1532.190996,-518.144159
36.779981,-9770.718434,1072.533697,0.000000
36.780291,-9400.615463,919.314598,-962.267725
36.780600,-9326.594869,1072.533697,148.041188
36.780910,-9474.636058,1072.533697,0.000000
36.781219,-9104.533087,1762.019645,-518.144159
36.781528,-9770.718434,3370.820191,1036.288319
36.781838,-9104.533087,1302.362347,0.000000
36.782147,-9326.594869,919.314598,-74.020594
36.782457,-9696.697840,1838.629195,-518.144159
36.782766,-9400.615463,1378.971896,-592.164754
36.783076,-9770.718434,3294.210641,0.000000
36.783385,-9178.553681,1378.971896,0.000000
36.783694,-9104.533087,995.924147,-148.041188
36.784004,-9326.594869,1072.533697,370.102971
36.784313,-11621.233289,2604.724693,2072.576638
36.784623,-9770.718434,1762.019645,-370.102971
36.784932,-9548.656652,1302.362347,-444.123565
36.785242,-9474.636058,995.924147,-370.102971
36.785551,-9252.574275,766.095498,-222.061783
36.785860,-9474.636058,-0.000000,-296.082377
36.786170,-9104.533087,1302.362347,-148.041188
36.786479,-9548.656652,1762.019645,-296.082377
36.786789,-9326.594869,1915.238745,-518.144159
36.787098,-9548.656652,1302.362347,0.000000
36.787407,-9844.739029,-0.000000,-888.247130
36.787717,-9622.677246,995.924147,0.000000
36.788026,-9548.656652,1455.581446,-444.123565
36.788336,-9030.512492,1685.410096,0.000000
36.788645,-8290.306550,612.876398,0.000000
36.788955,-8586.388927,1455.581446,0.000000
36.789264,-9548.656652,612.876398,222.061783
36.789573,-9844.739029,919.314598,-444.123565
36.789883,-9992.780217,1762.019645,-222.061783
36.790192,-11547.212695,2374.896044,1998.556043
36.790502,-9252.574275,1302.362347,148.041188
36.790811,-9400.615463,995.924147,-148.041188
36.791121,-8882.471304,1225.752797,0.000000
36.791430,-8956.491898,766.095498,-74.020594
36.791739,-9474.636058,1685.410096,0.000000
36.792049,-9400.615463,919.314598,0.000000
36.792358,-9474.636058,842.705048,148.041188
36.792668,-10140.821405,1685.410096,-296.082377
36.792977,-10881.027347,4060.306139,148.041188
36.793286,-9548.656652,1685.410096,0.000000
36.793596,-9474.636058,842.705048,0.000000
36.793905,-8882.471304,995.924147,0.000000
36.794215,-9252.574275,766.095498,0.000000
36.794524,-9178.553681,1532.190996,-74.020594
36.794834,-9474.636058,1685.410096,0.000000
36.795143,-9474.636058,1762.019645,-518.144159
36.795452,-9918.759623,1149.143247,370.102971
36.795762,-8216.285956,-1378.971896,-2294.638420
36.796071,-9622.677246,1302.362347,74.020594
36.796381,-9252.574275,919.314598,-444.123565
36.796690,-9252.574275,1072.533697,0.000000
36.797000,-9104.533087,1685.410096,148.041188
36.797309,-10436.903782,842.705048,1184.329507
36.797618,-9770.718434,766.095498,148.041188
36.797928,-10362.883188,1225.752797,-518.144159
36.798237,-9326.594869,1838.629195,-592.164754
36.798547,-9474.636058,2834.553343,74.020594
36.798856,-9326.594869,459.657299,370.102971
36.799165,-9178.553681,1302.362347,0.000000
36.799475,-9104.533087,1991.848295,0.000000
36.799784,-9178.553681,1838.629195,-518.144159
36.800094,-9844.739029,1455.581446,370.102971
36.800403,-9770.718434,842.705048,0.000000
36.800713,-9992.780217,612.876398,0.000000
36.801022,-9696.697840,1225.752797,74.020594
36.801331,-9770.718434,1915.238745,-592.164754
36.801641,-8142.265362,612.876398,0.000000
36.801950,-8808.450710,1302.362347,0.000000
36.802260,-8956.491898,383.047749,74.020594
36.802569,-9770.718434,1302.362347,222.061783
36.802879,-9696.697840,1991.848295,-888.247130
36.803188,-8956.491898,1225.752797,-518.144159
36.803497,-9622.677246,842.705048,-296.082377
36.803807,-9252.574275,919.314598,0.000000
36.804116,-9178.553681,1378.971896,296.082377
36.804426,-9992.780217,1532.190996,-1110.308913
36.804735,-9622.677246,1225.752797,74.020594
36.805045,-9104.533087,995.924147,222.061783
36.805354,-9474.636058,1378.971896,0.000000
36.805663,-9474.636058,995.924147,-222.061783
36.805973,-9770.718434,1149.143247,0.000000
36.806282,-9400.615463,1378.971896,0.000000
36.806592,-8956.491898,1378.971896,0.000000
36.806901,-9548.656652,995.924147,296.082377
36.807210,-9992.780217,995.924147,740.205942
36.807520,-9474.636058,1608.800546,-518.144159
36.807829,-9770.718434,1455.581446,-296.082377
36.808139,-9696.697840,1378.971896,0.000000
36.808448,-9548.656652,1378.971896,0.000000
36.808758,-8734.430116,383.047749,518.144159
36.809067,-9548.656652,1302.362347,148.041188
36.809376,-9696.697840,1838.629195,-370.102971
36.809686,-9252.574275,1991.848295,-296.082377
36.809995,-9400.615463,3753.867940,-1850.514855
36.810305,-10066.800811,306.438199,518.144159
36.810614,-9326.594869,1149.143247,148.041188
36.810924,-9474.636058,1762.019645,74.020594
36.811233,-9474.636058,1685.410096,0.000000
36.811542,-9178.553681,1838.629195,1554.432478
36.811852,-9326.594869,1225.752797,-296.082377
36.812161,-9030.512492,766.095498,0.000000
36.812471,-9770.718434,689.485948,148.041188
36.812780,-9770.718434,995.924147,-222.061783
36.813089,-9030.512492,2068.457845,0.000000
36.813399,-9474.636058,1532.190996,0.000000
36.813708,-9400.615463,1149.143247,148.041188
36.814018,-9474.636058,1532.190996,0.000000
36.814327,-9252.574275,995.924147,-444.123565
36.814637,-9474.636058,612.876398,0.000000
36.814946,-9252.574275,1072.533697,-296.082377
36.815255,-9178.553681,1072.533697,148.041188
36.815565,-9326.594869,1225.752797,0.000000
36.815874,-10658.965565,2374.896044,0.000000
36.816184,-9548.656652,1532.190996,0.000000
36.816493,-9474.636058,1302.362347,148.041188
36.816803,-9548.656652,995.924147,0.000000
36.817112,-9400.615463,2451.505594,518.144159
36.817421,-9992.780217,612.876398,222.061783
36.817731,-9030.512492,1991.848295,-592.164754
36.818040,-9326.594869,1838.629195,0.000000
36.818350,-9622.677246,919.314598,148.041188
36.818659,-8808.450710,5592.497135,-1406.391290
36.818968,-9474.636058,1072.533697,0.000000
36.819278,-9770.718434,1072.533697,0.000000
36.819587,-9622.677246,1838.629195,-296.082377
36.819897,-9548.656652,1608.800546,0.000000
36.820206,-8660.409521,1838.629195,296.082377
36.820516,-9474.636058,1149.143247,-296.082377
36.820825,-9030.512492,1455.581446,74.020594
36.821134,-9104.533087,1302.362347,222.061783
36.821444,-9770.718434,229.828649,1554.432478
36.821753,-9918.759623,2068.457845,-370.102971
36.822063,-9548.656652,1532.190996,0.000000
36.822372,-9770.718434,995.924147,-222.061783
36.822682,-9548.656652,1149.143247,0.000000
36.822991,-7105.977043,2221.676944,1036.288319
36.823300,-9104.533087,1149.143247,74.020594
36.823610,-9326.594869,1378.971896,222.061783
36.823919,-9474.636058,1608.800546,0.000000
36.824229,-10140.821405,-2528.115143,-222.061783
36.824538,-10362.883188,1072.533697,74.020594
36.824847,-9548.656652,1378.971896,0.000000
36.825157,-9326.594869,612.876398,148.041188
36.825466,-9030.512492,536.266849,444.123565
36.825776,-9030.512492,1915.238745,-1332.370696
36.826085,-9252.574275,2221.676944,0.000000
36.826395,-9474.636058,2068.457845,0.000000
36.826704,-9474.636058,1149.143247,74.020594
36.827013,-10066.800811,536.266849,0.000000
36.827323,-8734.430116,-0.000000,1110.308913
36.827632,-9770.718434,1225.752797,0.000000
36.827942,-9178.553681,1455.581446,0.000000
36.828251,-9104.533087,1455.581446,222.061783
36.828561,-8734.430116,2374.896044,1332.370696
36.828870,-9178.553681,1149.143247,148.041188
36.829179,-9548.656652,1532.190996,-592.164754
36.829489,-10140.821405,1762.019645,222.061783
36.829798,-9696.697840,842.705048,74.020594
36.830108,-7254.018232,-612.876398,-296.082377
36.830417,-9104.533087,1455.581446,222.061783
36.830726,-9178.553681,1455.581446,-296.082377
36.831036,-9400.615463,1378.971896,444.123565
36.831345,-9400.615463,1149.143247,222.061783
36.831655,-8290.306550,383.047749,-222.061783
36.831964,-9400.615463,766.095498,-222.061783
36.832274,-9992.780217,1225.752797,74.020594
36.832583,-9548.656652,1762.019645,0.000000
36.832893,-9622.677246,-0.000000,-888.247130
36.833202,-9104.533087,536.266849,74.020594
36.833511,-9030.512492,689.485948,370.102971
36.833821,-9252.574275,1072.533697,74.020594
36.834130,-9622.677246,1685.410096,0.000000
36.834440,-10955.047942,689.485948,2960.823768
36.834749,-9622.677246,1455.581446,0.000000
36.835059,-9844.739029,919.314598,0.000000
36.835368,-9400.615463,995.924147,0.000000
36.835678,-9252.574275,-689.485948,0.000000
36.835987,-8956.491898,1532.190996,148.041188
36.836297,-9030.512492,1838.629195,74.020594
36.836606,-9326.594869,842.705048,222.061783
36.836915,-9622.677246,1072.533697,370.102971
36.837225,-9992.780217,2757.943793,-1628.453072
36.837534,-9770.718434,1762.019645,0.000000
36.837844,-9844.739029,842.705048,222.061783
36.838153,-8808.450710,995.924147,296.082377
36.838463,-9252.574275,1302.362347,74.020594
36.838772,-9770.718434,1608.800546,-296.082377
36.839082,-9326.594869,1762.019645,222.061783
36.839391,-9770.718434,1225.752797,0.000000
36.839701,-9548.656652,1378.971896,148.041188
36.840010,-11547.212695,612.876398,1036.288319
36.840319,-9770.718434,689.485948,-444.123565
36.840629,-9326.594869,1225.752797,-296.082377
36.840938,-9326.594869,1302.362347,74.020594
36.841248,-9178.553681,1302.362347,296.082377
36.841557,-9696.697840,3217.601092,296.082377
36.841867,-9252.574275,1762.019645,296.082377
36.842176,-9770.718434,995.924147,370.102971
36.842486,-9622.677246,383.047749,0.000000
36.842795,-9770.718434,1762.019645,74.020594
36.843104,-9400.615463,995.924147,296.082377
36.843414,-9326.594869,919.314598,0.000000
36.843723,-9400.615463,842.705048,740.205942
36.844033,-9030.512492,1455.581446,0.000000
36.844342,-10881.027347,3064.381992,1628.453072
36.844652,-9622.677246,1838.629195,222.061783
36.844961,-9622.677246,1302.362347,-518.144159
36.845271,-9696.697840,919.314598,370.102971
36.845580,-9844.739029,689.485948,74.020594
36.845890,-9252.574275,3217.601092,666.185348
36.846199,-9326.594869,1915.238745,74.020594
36.846508,-9252.574275,1455.581446,-148.041188
36.846818,-9178.553681,1072.533697,444.123565
36.847127,-9992.780217,4366.744339,518.144159
36.847437,-9252.574275,2298.286494,-518.144159
36.847746,-9844.739029,1302.362347,-148.041188
36.848056,-9918.759623,612.876398,74.020594
36.848365,-9178.553681,842.705048,222.061783
36.848675,-7476.080014,-2528.115143,518.144159
36.848984,-9326.594869,1225.752797,74.020594
36.849294,-9474.636058,1608.800546,222.061783
36.849603,-9474.636058,1762.019645,0.000000
36.849912,-10066.800811,1302.362347,0.000000
36.850222,-9104.533087,919.314598,-592.164754
36.850531,-9400.615463,919.314598,-370.102971
36.850841,-9030.512492,1378.971896,222.061783
36.851150,-9104.533087,1455.581446,296.082377
36.851460,-10658.965565,306.438199,592.164754
36.851769,-8512.368333,2068.457845,0.000000
36.852079,-9918.759623,1685.410096,-222.061783
36.852388,-9548.656652,1072.533697,-296.082377
36.852698,-9992.780217,995.924147,370.102971
36.853007,-10658.965565,4749.792088,444.123565
36.853316,-8734.430116,1608.800546,0.000000
36.853626,-9104.533087,1225.752797,148.041188
36.853935,-9178.553681,1532.190996,0.000000
36.854245,-9030.512492,1455.581446,74.020594
36.854554,-9474.636058,612.876398,296.082377
36.854864,-10288.862594,766.095498,296.082377
36.855173,-9622.677246,995.924147,-296.082377
36.855483,-9548.656652,1532.190996,0.000000
36.855792,-8734.430116,2757.943793,888.247130
36.856102,-8882.471304,1072.533697,222.061783
36.856411,-8808.450710,1149.143247,222.061783
36.856720,-9178.553681,1608.800546,296.082377
36.857030,-10436.903782,1608.800546,74.020594
36.857339,-9992.780217,689.485948,-444.123565
36.857649,-10066.800811,1608.800546,0.000000
36.857958,-9326.594869,766.095498,148.041188
36.858268,-9400.615463,1225.752797,296.082377
36.858577,-9400.615463,-5132.839837,444.123565
36.858887,-8882.471304,1915.238745,0.000000
36.859196,-9474.636058,995.924147,296.082377
36.859506,-9474.636058,766.095498,0.000000
36.859815,-9770.718434,1685.410096,-222.061783
36.860124,-9918.759623,919.314598,444.123565
36.860434,-9474.636058,766.095498,0.000000
36.860743,-8882.471304,1915.238745,0.000000
36.861053,-9326.594869,1762.019645,370.102971
36.861362,-9178.553681,1149.143247,0.000000
36.861672,-9326.594869,1378.971896,444.123565
36.861981,-9622.677246,1225.752797,-148.041188
36.862291,-9622.677246,1378.971896,-296.082377
36.862600,-9770.718434,1685.410096,74.020594
36.862910,-8808.450710,1915.238745,888.247130
36.863219,-9252.574275,995.924147,-370.102971
36.863528,-8882.471304,1378.971896,74.020594
36.863838,-9474.636058,1532.190996,148.041188
36.864147,-9844.739029,1685.410096,0.000000
36.864457,-11473.192101,2451.505594,1850.514855
36.864766,-10066.800811,689.485948,0.000000
36.865076,-9844.739029,919.314598,148.041188
36.865385,-9474.636058,1685.410096,-222.061783
36.865695,-9326.594869,919.314598,-888.247130
36.866004,-8882.471304,1685.410096,-74.020594
36.866314,-9326.594869,1225.752797,0.000000
36.866623,-9104.533087,1302.362347,74.020594
36.866932,-9844.739029,1378.971896,-370.102971
36.867242,-10807.006753,-3217.601092,-148.041188
36.867551,-9696.697840,689.485948,0.000000
36.867861,-9178.553681,689.485948,0.000000
36.868170,-9326.594869,1225.752797,0.000000
36.868480,-9252.574275,1685.410096,296.082377
36.868789,-9992.780217,1915.238745,666.185348
36.869099,-9400.615463,1915.238745,0.000000
36.869408,-9474.636058,766.095498,0.000000
36.869717,-10362.883188,383.047749,74.020594
36.870027,-8808.450710,-4673.182538,-1036.288319
36.870336,-9400.615463,1455.581446,0.000000
36.870646,-9400.615463,1302.362347,0.000000
36.870955,-8956.491898,1608.800546,-296.082377
36.871265,-9104.533087,1685.410096,74.020594
36.871574,-9474.636058,-2221.676944,1036.288319
36.871884,-9992.780217,995.924147,-222.061783
36.872193,-9770.718434,1838.629195,-444.123565
36.872503,-9622.677246,1455.581446,0.000000
36.872812,-9030.512492,3064.381992,-74.020594
36.873121,-9178.553681,1838.629195,296.082377
36.873431,-8956.491898,1378.971896,148.041188
36.873740,-9400.615463,1225.752797,-296.082377
36.874050,-9622.677246,1608.800546,222.061783
36.874359,-9178.553681,1608.800546,-2368.659014
36.874669,-9696.697840,1149.143247,0.000000
36.874978,-9622.677246,995.924147,0.000000
36.875288,-9770.718434,1225.752797,0.000000
36.875597,-9104.533087,1532.190996,0.000000
36.875907,-8734.430116,995.924147,-222.061783
36.876216,-8956.491898,1455.581446,148.041188
36.876525,-9326.594869,1378.971896,-444.123565
36.876835,-9992.780217,1532.190996,-444.123565
36.877144,-11621.233289,-2145.067394,444.123565
36.877454,-10066.800811,612.876398,0.000000
36.877763,-9474.636058,1302.362347,0.000000
36.878073,-9326.594869,1378.971896,222.061783
36.878382,-9178.553681,1225.752797,148.041188
36.878692,-8660.409521,-383.047749,-592.164754
36.879001,-9474.636058,1685.410096,-296.082377
36.879311,-9622.677246,1302.362347,0.000000
36.879620,-9844.739029,766.095498,-370.102971
36.879929,-9548.656652,-1762.019645,148.041188
36.880239,-9844.739029,-0.000000,444.123565
36.880548,-8882.471304,1532.190996,-518.144159
36.880858,-9178.553681,1991.848295,0.000000
36.881167,-9474.636058,2145.067394,-370.102971
36.881477,-11029.068536,-536.266849,814.226536
36.881786,-9844.739029,229.828649,-296.082377
36.882096,-9548.656652,1302.362347,-666.185348
36.882405,-9474.636058,1685.410096,-148.041188
36.882715,-8956.491898,1378.971896,-444.123565
36.883024,-9030.512492,2911.162892,-814.226536
36.883333,-8956.491898,1455.581446,-370.102971
36.883643,-9622.677246,995.924147,74.020594
36.883952,-9770.718434,1455.581446,148.041188
36.884262,-9548.656652,689.485948,74.020594
36.884571,-9326.594869,1455.581446,-444.123565
36.884881,-8956.491898,1302.362347,0.000000
36.885190,-9474.636058,1225.752797,148.041188
36.885500,-9400.615463,1455.581446,222.061783
36.885809,-8586.388927,-0.000000,-2590.720797
36.886119,-9696.697840,919.314598,-148.041188
36.886428,-9474.636058,995.924147,0.000000
36.886737,-9844.739029,1915.238745,-444.123565
36.887047,-9770.718434,1532.190996,0.000000
36.887356,-9770.718434,1378.971896,74.020594
36.887666,-8956.491898,1532.190996,-370.102971
36.887975,-9030.512492,1532.190996,0.000000
36.888285,-8956.491898,842.705048,370.102971
36.888594,-9178.553681,-0.000000,1110.308913
36.888904,-9918.759623,1838.629195,-370.102971
36.889213,-9622.677246,919.314598,0.000000
36.889523,-9918.759623,842.705048,-296.082377
36.889832,-9252.574275,1378.971896,-222.061783
36.890141,-9770.718434,3140.991542,222.061783
36.890451,-9030.512492,1608.800546,0.000000
36.890760,-9104.533087,1685.410096,0.000000
36.891070,-9030.512492,995.924147,148.041188
36.891379,-9474.636058,2374.896044,148.041188
36.891689,-10066.800811,1838.629195,-370.102971
36.891998,-9918.759623,1532.190996,-740.205942
36.892308,-9770.718434,1532.190996,0.000000
36.892617,-9178.553681,766.095498,74.020594
36.892926,-9548.656652,-153.219100,1184.329507
36.893236,-8734.430116,1532.190996,148.041188
36.893545,-9474.636058,1608.800546,-444.123565
36.893855,-9474.636058,1762.019645,-444.123565
36.894164,-9474.636058,919.314598,74.020594
36.894474,-10362.883188,383.047749,0.000000
36.894783,-9622.677246,1149.143247,-222.061783
36.895093,-9474.636058,1378.971896,-148.041188
36.895402,-9252.574275,536.266849,222.061783
36.895712,-9178.553681,1302.362347,-74.020594
36.896021,-8808.450710,1915.238745,0.000000
36.896330,-9770.718434,995.924147,74.020594
36.896640,-9696.697840,459.657299,-296.082377
36.896949,-9548.656652,1685.410096,-222.061783
36.897259,-8882.471304,919.314598,-370.102971
36.897568,-9474.636058,383.047749,0.000000
36.897878,-9474.636058,1991.848295,0.000000
36.898187,-9400.615463,1838.629195,-370.102971
36.898497,-9252.574275,1225.752797,666.185348
36.898806,-9252.574275,1608.800546,0.000000
36.899116,-9992.780217,1378.971896,-148.041188
36.899425,-9474.636058,766.095498,-148.041188
36.899734,-9696.697840,766.095498,148.041188
36.900044,-8364.327145,3447.429741,-962.267725
36.900353,-9030.512492,1685.410096,-518.144159
36.900663,-9252.574275,1455.581446,0.000000
36.900972,-8808.450710,919.314598,-148.041188
36.901282,-9696.697840,459.657299,0.000000
36.901591,-8808.450710,919.314598,-814.226536
36.901901,-9844.739029,1378.971896,-592.164754
36.902210,-9400.615463,2068.457845,-518.144159
36.902520,-9548.656652,1991.848295,-148.041188
36.902829,-10436.903782,5286.058936,370.102971
36.903138,-9548.656652,459.657299,0.000000
36.903448,-9400.615463,766.095498,74.020594
36.903757,-9326.594869,1455.581446,-296.082377
36.904067,-8956.491898,1455.581446,-148.041188
36.904376,-9252.574275,2681.334243,148.041188
36.904686,-9548.656652,1378.971896,296.082377
36.904995,-9696.697840,1302.362347,-148.041188
36.905305,-9622.677246,1762.019645,0.000000
36.905614,-9918.759623,1302.362347,0.000000
36.905924,-10362.883188,1378.971896,-518.144159
36.906233,-8956.491898,1762.019645,-148.041188
36.906542,-8956.491898,766.095498,-296.082377
36.906852,-9474.636058,842.705048,0.000000
36.907161,-11399.171507,2911.162892,-814.226536
36.907471,-9622.677246,1685.410096,0.000000
36.907780,-9474.636058,766.095498,74.020594
36.908090,-9622.677246,1302.362347,-444.123565
36.908399,-9178.553681,1608.800546,0.000000
36.908709,-8882.471304,1532.190996,74.020594
36.909018,-8882.471304,1455.581446,0.000000
36.909328,-9548.656652,1378.971896,0.000000
36.909637,-9252.574275,383.047749,148.041188
36.909946,-9548.656652,3370.820191,592.164754
36.910256,-9696.697840,1685.410096,-518.144159
36.910565,-9326.594869,1455.581446,-518.144159
36.910875,-9400.615463,766.095498,0.000000
36.911184,-8882.471304,919.314598,222.061783
36.911494,-11399.171507,2451.505594,740.205942
36.911803,-9178.553681,1378.971896,0.000000
36.912113,-9326.594869,1838.629195,0.000000
36.912422,-9474.636058,1072.533697,0.000000
36.912732,-9622.677246,1149.143247,0.000000
36.913041,-9474.636058,1149.143247,222.061783
36.913350,-9474.636058,995.924147,-296.082377
36.913660,-9770.718434,1225.752797,-296.082377
36.913969,-8808.450710,1608.800546,148.041188
36.914279,-8216.285956,1608.800546,0.000000
36.914588,-8882.471304,1225.752797,296.082377
36.914898,-9474.636058,1532.190996,0.000000
36.915207,-9918.759623,1302.362347,-296.082377
36.915517,-9770.718434,1302.362347,0.000000
36.915826,-11103.089130,153.219100,518.144159
36.916136,-9548.656652,1072.533697,0.000000
36.916445,-9178.553681,1302.362347,-296.082377
36.916754,-9178.553681,1532.190996,0.000000
36.917064,-9326.594869,1915.238745,2146.597232
36.917373,-9104.533087,1302.362347,0.000000
36.917683,-9474.636058,919.314598,74.020594
36.917992,-9622.677246,919.314598,-148.041188
36.918302,-9474.636058,1762.019645,-148.041188
36.918611,-8068.244768,4749.792088,-814.226536
36.918921,-9696.697840,1302.362347,148.041188
36.919230,-9474.636058,995.924147,-148.041188
36.919539,-9474.636058,995.924147,370.102971
36.919849,-9326.594869,1072.533697,74.020594
36.920158,-7254.018232,1302.362347,-740.205942
36.920468,-9326.594869,1838.629195,0.000000
36.920777,-9622.677246,1225.752797,0.000000
36.921087,-9474.636058,1149.143247,0.000000
36.921396,-10510.924376,2757.943793,-1850.514855
36.921706,-9696.697840,1072.533697,0.000000
36.922015,-9326.594869,1149.143247,0.000000
36.922325,-9178.553681,1378.971896,222.061783
36.922634,-9548.656652,1072.533697,370.102971
36.922943,-9548.656652,1225.752797,222.061783
36.923253,-9548.656652,1915.238745,-222.061783
36.923562,-9548.656652,1225.752797,-296.082377
36.923872,-9474.636058,1149.143247,-222.061783
36.924181,-9622.677246,1225.752797,0.000000
36.924491,-9548.656652,-0.000000,148.041188
36.924800,-9326.594869,1072.533697,148.041188
36.925110,-9474.636058,2145.067394,-148.041188
36.925419,-9326.594869,1762.019645,0.000000
36.925729,-9622.677246,2298.286494,74.020594
36.926038,-9474.636058,1225.752797,222.061783
36.926347,-9696.697840,766.095498,0.000000
36.926657,-9178.553681,1225.752797,-222.061783
36.926966,-9252.574275,2145.067394,-444.123565
36.927276,-9918.759623,2911.162892,-814.226536
36.927585,-9030.512492,995.924147,296.082377
36.927895,-9326.594869,995.924147,74.020594
36.928204,-9548.656652,1378.971896,0.000000
36.928514,-9474.636058,536.266849,666.185348
36.928823,-9770.718434,1072.533697,-222.061783
36.929133,-9326.594869,1225.752797,222.061783
36.929442,-9400.615463,1225.752797,-148.041188
36.929751,-9474.636058,1302.362347,-148.041188
36.930061,-7105.977043,2298.286494,-2368.659014
36.930370,-9178.553681,1455.581446,-222.061783
36.930680,-9030.512492,1072.533697,296.082377
36.930989,-9622.677246,766.095498,296.082377
36.931299,-10140.821405,1302.362347,-222.061783
36.931608,-9992.780217,2834.553343,296.082377
36.931918,-9770.718434,1149.143247,0.000000
36.932227,-9030.512492,842.705048,148.041188
36.932537,-9030.512492,1378.971896,222.061783
36.932846,-7254.018232,-2757.943793,1776.494261
36.933155,-9474.636058,842.705048,0.000000
36.933465,-9400.615463,2221.676944,-444.123565
36.933774,-9252.574275,1838.629195,-222.061783
36.934084,-10140.821405,612.876398,222.061783
36.934393,-9400.615463,1149.143247,592.164754
36.934703,-10140.821405,1378.971896,296.082377
36.935012,-8882.471304,1532.190996,74.020594
36.935322,-9474.636058,1991.848295,-296.082377
36.935631,-8142.265362,2374.896044,-1628.453072
36.935940,-9030.512492,1072.533697,296.082377
36.936250,-9992.780217,766.095498,222.061783
36.936559,-9844.739029,1378.971896,-444.123565
36.936869,-10066.800811,1838.629195,0.000000
36.937178,-9178.553681,2681.334243,-518.144159
36.937488,-9326.594869,1072.533697,0.000000
36.937797,-8438.347739,1072.533697,148.041188
36.938107,-9326.594869,1378.971896,0.000000
36.938416,-9252.574275,1378.971896,-222.061783
36.938726,-9992.780217,995.924147,74.020594
36.939035,-9844.739029,995.924147,0.000000
36.939344,-9178.553681,1149.143247,0.000000
36.939654,-9770.718434,1685.410096,0.000000
36.939963,-8660.409521,6435.202183,-1110.308913
36.940273,-9104.533087,766.095498,370.102971
36.940582,-9326.594869,995.924147,0.000000
36.940892,-9548.656652,1685.410096,0.000000
36.941201,-9474.636058,1149.143247,-370.102971
36.941511,-13027.624579,-1608.800546,2664.741391
36.941820,-9918.759623,1762.019645,0.000000
36.942130,-9104.533087,995.924147,0.000000
36.942439,-9474.636058,459.657299,148.041188
36.942748,-9178.553681,1685.410096,0.000000
36.943058,-9622.677246,2298.286494,-370.102971
36.943367,-9770.718434,1455.581446,222.061783
36.943677,-9400.615463,1302.362347,222.061783
36.943986,-9326.594869,1149.143247,-296.082377
36.944296,-9326.594869,4290.134789,-666.185348
36.944605,-9696.697840,1225.752797,0.000000
36.944915,-9104.533087,1608.800546,0.000000
36.945224,-9474.636058,2145.067394,444.123565
36.945533,-9622.677246,1225.752797,0.000000
36.945843,-8586.388927,-0.000000,222.061783
36.946152,-9696.697840,842.705048,222.061783
36.946462,-9474.636058,1608.800546,-518.144159
36.946771,-9326.594869,1991.848295,0.000000
36.947081,-10214.842000,3064.381992,-1776.494261
36.947390,-9696.697840,766.095498,370.102971
36.947700,-9474.636058,1378.971896,296.082377
36.948009,-9622.677246,1149.143247,-444.123565
36.948319,-9326.594869,1685.410096,-370.102971
36.948628,-7994.224174,-306.438199,0.000000
36.948937,-9104.533087,612.876398,222.061783
36.949247,-9548.656652,1149.143247,444.123565
36.949556,-9252.574275,1685.410096,-296.082377
36.949866,-9326.594869,2528.115143,0.000000
36.950175,-9178.553681,612.876398,0.000000
36.950485,-9474.636058,919.314598,148.041188
36.950794,-9474.636058,1149.143247,222.061783
36.951104,-9400.615463,1072.533697,0.000000
36.951413,-9326.594869,3140.991542,-1998.556043
36.951723,-9252.574275,1302.362347,148.041188
36.952032,-9104.533087,1762.019645,296.082377
36.952341,-9474.636058,1685.410096,0.000000
36.952651,-9844.739029,1685.410096,148.041188
36.952960,-10658.965565,1838.629195,148.041188
36.953270,-9474.636058,1225.752797,0.000000
36.953579,-9696.697840,1455.581446,148.041188
36.953889,-9326.594869,1532.190996,0.000000
36.954198,-8364.327145,-1762.019645,1036.288319
36.954508,-9474.636058,1378.971896,0.000000
36.954817,-9474.636058,1532.190996,0.000000
36.955126,-9622.677246,1608.800546,0.000000
36.955436,-9474.636058,1149.143247,74.020594
36.955745,-10140.821405,1302.362347,-444.123565
36.956055,-9844.739029,1149.143247,0.000000
36.956364,-9474.636058,1532.190996,-518.144159
36.956674,-9178.553681,1685.410096,-814.226536
36.956983,-9326.594869,995.924147,370.102971
36.957293,-9992.780217,1455.581446,666.185348
36.957602,-9252.574275,1072.533697,296.082377
36.957912,-9622.677246,1838.629195,0.000000
36.958221,-10140.821405,1762.019645,-370.102971
36.958530,-8956.491898,1532.190996,-444.123565
36.958840,-8882.471304,995.924147,222.061783
36.959149,-9474.636058,536.266849,148.041188
36.959459,-8808.450710,1072.533697,0.000000
36.959768,-9252.574275,1685.410096,0.000000
36.960078,-9030.512492,3677.258390,0.000000
36.960387,-9178.553681,1762.019645,0.000000
36.960697,-9844.739029,1455.581446,148.041188
36.961006,-9400.615463,459.657299,222.061783
36.961315,-9548.656652,-1455.581446,962.267725
36.961625,-9178.553681,1455.581446,-222.061783
36.961934,-8956.491898,1608.800546,0.000000
36.962244,-9030.512492,1532.190996,0.000000
36.962553,-9326.594869,1302.362347,444.123565
36.962863,-11769.274478,-459.657299,666.185348
36.963172,-9622.677246,1302.362347,0.000000
36.963482,-10214.842000,1532.190996,370.102971
36.963791,-9696.697840,1455.581446,-222.061783
36.964101,-9252.574275,1225.752797,-370.102971
36.964410,-9622.677246,229.828649,518.144159
36.964719,-9252.574275,1532.190996,0.000000
36.965029,-8956.491898,1532.190996,0.000000
36.965338,-9474.636058,1455.581446,74.020594
36.965648,-9252.574275,-2528.115143,2146.597232
36.965957,-9918.759623,919.314598,-444.123565
36.966267,-10288.862594,1915.238745,0.000000
36.966576,-9474.636058,689.485948,0.000000
36.966886,-9326.594869,612.876398,296.082377
36.967195,-9696.697840,2681.334243,-444.123565
36.967505,-9104.533087,1685.410096,296.082377
36.967814,-9030.512492,1455.581446,-518.144159
36.968123,-9326.594869,1685.410096,-296.082377
36.968433,-10214.842000,3524.039291,148.041188
36.968742,-9992.780217,1302.362347,148.041188
36.969052,-9696.697840,1149.143247,592.164754
36.969361,-9770.718434,1302.362347,0.000000
36.969671,-9252.574275,1302.362347,222.061783
36.969980,-8808.450710,4443.353888,-1036.288319
36.970290,-9474.636058,1532.190996,74.020594
36.970599,-9104.533087,1149.143247,0.000000
36.970908,-9548.656652,766.095498,222.061783
36.971218,-9918.759623,1302.362347,0.000000
36.971527,-9770.718434,1991.848295,-740.205942
36.971837,-9548.656652,1915.238745,148.041188
36.972146,-9326.594869,995.924147,0.000000
36.972456,-9252.574275,766.095498,518.144159
36.972765,-10510.924376,459.657299,444.123565
36.973075,-9992.780217,1532.190996,0.000000
36.973384,-9178.553681,1762.019645,-444.123565
36.973694,-9696.697840,1149.143247,0.000000
36.974003,-9844.739029,919.314598,370.102971
36.974312,-10436.903782,-0.000000,3256.906145
36.974622,-9770.718434,1838.629195,222.061783
36.974931,-9622.677246,1762.019645,0.000000
36.975241,-9326.594869,1225.752797,-370.102971
36.975550,-9252.574275,-1915.238745,74.020594
36.975860,-9474.636058,383.047749,518.144159
36.976169,-9918.759623,1532.190996,-740.205942
36.976479,-9326.594869,1915.238745,0.000000
36.976788,-9474.636058,1149.143247,-148.041188
36.977098,-8364.327145,536.266849,1924.535449
36.977407,-9326.594869,1915.238745,222.061783
36.977716,-9252.574275,1455.581446,-296.082377
36.978026,-9252.574275,1455.581446,0.000000
36.978335,-9178.553681,1149.143247,222.061783
36.978645,-9474.636058,919.314598,-1258.350101
36.978954,-9400.615463,1225.752797,0.000000
36.979264,-9326.594869,2068.457845,-222.061783
36.979573,-9770.718434,1378.971896,-148.041188
36.979883,-9178.553681,2145.067394,518.144159
36.980192,-9400.615463,1072.533697,666.185348
36.980501,-9474.636058,459.657299,444.123565
36.980811,-9400.615463,995.924147,74.020594
36.981120,-9918.759623,1762.019645,-370.102971
36.981430,-8808.450710,2681.334243,1184.329507
36.981739,-9252.574275,1608.800546,-444.123565
36.982049,-9474.636058,995.924147,0.000000
36.982358,-9252.574275,306.438199,148.041188
36.982668,-9548.656652,1072.533697,0.000000
36.982977,-9992.780217,2681.334243,-148.041188
36.983287,-9622.677246,1915.238745,0.000000
36.983596,-8956.491898,1072.533697,296.082377
36.983905,-9918.759623,1149.143247,0.000000
36.984215,-7179.997637,3677.258390,1850.514855
36.984524,-9770.718434,1072.533697,444.123565
36.984834,-9252.574275,1302.362347,-222.061783
36.985143,-9030.512492,1455.581446,-222.061783
36.985453,-9548.656652,1225.752797,-222.061783
36.985762,-9178.553681,1378.971896,0.000000
36.986072,-9548.656652,1455.581446,148.041188
36.986381,-9252.574275,459.657299,74.020594
36.986690,-9548.656652,842.705048,148.041188
36.987000,-9252.574275,689.485948,-1406.391290
36.987309,-9252.574275,1991.848295,0.000000
36.987619,-9622.677246,1838.629195,-518.144159
36.987928,-9326.594869,1532.190996,-296.082377
36.988238,-9030.512492,1072.533697,0.000000
36.988547,-11103.089130,-612.876398,518.144159
36.988857,-9918.759623,536.266849,296.082377
36.989166,-9474.636058,1685.410096,-148.041188
36.989476,-9622.677246,1991.848295,-370.102971
36.989785,-9474.636058,1762.019645,74.020594
36.990094,-9622.677246,1455.581446,0.000000
36.990404,-9474.636058,842.705048,0.000000
36.990713,-9400.615463,459.657299,370.102971
36.991023,-9474.636058,1608.800546,-370.102971
36.991332,-8290.306550,3447.429741,888.247130
36.991642,-9622.677246,1532.190996,0.000000
36.991951,-8956.491898,1378.971896,-592.164754
36.992261,-9548.656652,1225.752797,0.000000
36.992570,-10066.800811,766.095498,0.000000
36.992880,-9474.636058,2604.724693,-518.144159
36.993189,-9548.656652,1915.238745,-518.144159
36.993498,-9252.574275,919.314598,0.000000
36.993808,-9252.574275,229.828649,0.000000
36.994117,-9400.615463,1302.362347,-74.020594
36.994427,-9918.759623,1455.581446,0.000000
36.994736,-9326.594869,1149.143247,0.000000
36.995046,-9474.636058,1225.752797,0.000000
36.995355,-9252.574275,1378.971896,-518.144159
36.995665,-7402.059420,4749.792088,-1110.308913
36.995974,-9918.759623,1455.581446,-296.082377
36.996283,-9474.636058,1685.410096,-444.123565
36.996593,-9104.533087,1225.752797,296.082377
36.996902,-9474.636058,459.657299,222.061783
36.997212,-8586.388927,-306.438199,814.226536
36.997521,-9400.615463,1532.190996,-296.082377
36.997831,-9918.759623,1685.410096,-296.082377
36.998140,-10214.842000,1532.190996,-444.123565
36.998450,-10436.903782,-0.000000,666.185348
36.998759,-9326.594869,1225.752797,0.000000
36.999069,-9474.636058,459.657299,148.041188
36.999378,-9252.574275,1762.019645,0.000000
36.999687,-9030.512492,2374.896044,-370.102971
36.999997,-8438.347739,3370.820191,1406.391290
37.000306,-9696.697840,842.705048,444.123565
37.000616,-9548.656652,919.314598,0.000000
37.000925,-9992.780217,1455.581446,-666.185348
37.001235,-9326.594869,1532.190996,0.000000
37.001544,-9474.636058,612.876398,-222.061783
37.001854,-8734.430116,919.314598,0.000000
37.002163,-9326.594869,689.485948,222.061783
37.002473,-9918.759623,1838.629195,-370.102971
37.002782,-9992.780217,2528.115143,-2368.659014
37.003091,-9474.636058,1608.800546,74.020594
37.003401,-9326.594869,995.924147,0.000000
37.003710,-9474.636058,766.095498,74.020594
37.004020,-9400.615463,1072.533697,0.000000
37.004329,-10066.800811,1838.629195,-814.226536
37.004639,-8956.491898,1685.410096,0.000000
37.004948,-9252.574275,536.266849,296.082377
37.005258,-9548.656652,842.705048,222.061783
37.005567,-9548.656652,4519.963438,-1628.453072
37.005876,-10214.842000,1838.629195,-222.061783
37.006186,-9178.553681,1149.143247,0.000000
37.006495,-9400.615463,1685.410096,-444.123565
37.006805,-9104.533087,1302.362347,74.020594
37.007114,-7772.162391,3907.087040,-1850.514855
37.007424,-9400.615463,1149.143247,0.000000
37.007733,-9400.615463,1608.800546,-296.082377
37.008043,-9844.739029,1378.971896,0.000000
37.008352,-9474.636058,842.705048,0.000000
37.008662,-9400.615463,1225.752797,-222.061783
37.008971,-9474.636058,1685.410096,-740.205942
37.009280,-9400.615463,1149.143247,-296.082377
37.009590,-9104.533087,1072.533697,0.000000
37.009899,-8364.327145,536.266849,3256.906145
37.010209,-9104.533087,995.924147,148.041188
37.010518,-9474.636058,1072.533697,-222.061783
37.010828,-9918.759623,2298.286494,-296.082377
37.011137,-9326.594869,2221.676944,-444.123565
37.011447,-9474.636058,2145.067394,370.102971
37.011756,-9326.594869,612.876398,444.123565
37.012065,-9178.553681,1302.362347,-592.164754
37.012375,-8956.491898,1685.410096,-592.164754
37.012684,-9548.656652,3830.477490,-1258.350101
37.012994,-8438.347739,1149.143247,-518.144159
37.013303,-9178.553681,995.924147,222.061783
37.013613,-10066.800811,1072.533697,0.000000
37.013922,-9770.718434,1225.752797,0.000000
37.014232,-9548.656652,-0.000000,0.000000
37.014541,-9178.553681,1608.800546,0.000000
37.014851,-9178.553681,842.705048,74.020594
37.015160,-9474.636058,612.876398,-370.102971
37.015469,-9178.553681,1532.190996,-148.041188
37.015779,-9770.718434,536.266849,-74.020594
37.016088,-9696.697840,536.266849,148.041188
37.016398,-9548.656652,689.485948,148.041188
37.016707,-9474.636058,1608.800546,-444.123565
37.017017,-9918.759623,-2068.457845,1554.432478
37.017326,-9400.615463,689.485948,148.041188
37.017636,-8956.491898,1378.971896,0.000000
37.017945,-9252.574275,1378.971896,-148.041188
37.018255,-9326.594869,612.876398,296.082377
37.018564,-9770.718434,2298.286494,0.000000
37.018873,-9400.615463,1915.238745,-444.123565
37.019183,-9696.697840,2145.067394,-444.123565
37.019492,-10140.821405,995.924147,0.000000
37.019802,-9326.594869,-1455.581446,296.082377
37.020111,-10140.821405,1378.971896,-1036.288319
37.020421,-9178.553681,1532.190996,0.000000
37.020730,-9474.636058,1685.410096,0.000000
37.021040,-8808.450710,2068.457845,-444.123565
37.021349,-8586.388927,2987.772442,222.061783
37.021658,-9622.677246,766.095498,0.000000
37.021968,-9622.677246,1225.752797,-296.082377
37.022277,-9548.656652,1838.629195,-370.102971
37.022587,-9178.553681,1225.752797,-148.041188
37.022896,-9030.512492,-153.219100,740.205942
37.023206,-8586.388927,1149.143247,0.000000
37.023515,-9104.533087,2145.067394,-370.102971
37.023825,-9548.656652,1762.019645,0.000000
37.024134,-8808.450710,2145.067394,0.000000
37.024444,-9770.718434,1225.752797,296.082377
37.024753,-9474.636058,919.314598,0.000000
37.025062,-9992.780217,1302.362347,-222.061783
37.025372,-9178.553681,1455.581446,-222.061783
37.025681,-9104.533087,536.266849,0.000000
37.025991,-9326.594869,1149.143247,74.020594
37.026300,-9474.636058,459.657299,444.123565
37.026610,-9474.636058,766.095498,148.041188
37.026919,-9918.759623,1838.629195,-370.102971
37.027229,-10584.944971,1915.238745,-222.061783
37.027538,-9474.636058,995.924147,-296.082377
37.027847,-9474.636058,842.705048,-370.102971
37.028157,-9104.533087,612.876398,222.061783
37.028466,-9400.615463,383.047749,-444.123565
37.028776,-9104.533087,1915.238745,0.000000
37.029085,-9474.636058,2145.067394,0.000000
37.029395,-9252.574275,1685.410096,-592.164754
37.029704,-9474.636058,1149.143247,0.000000
37.030014,-8956.491898,995.924147,-370.102971
37.030323,-9474.636058,1149.143247,-148.041188
37.030633,-9696.697840,1915.238745,0.000000
37.030942,-9474.636058,1378.971896,222.061783
37.031251,-8956.491898,2757.943793,-1480.411884
37.031561,-9548.656652,1915.238745,518.144159
37.031870,-9844.739029,766.095498,74.020594
37.032180,-9252.574275,1302.362347,-370.102971
37.032489,-9400.615463,1838.629195,222.061783
37.032799,-12361.439231,1532.190996,1036.288319
37.033108,-9326.594869,1302.362347,74.020594
37.033418,-9474.636058,1762.019645,-222.061783
37.033727,-9030.512492,1685.410096,0.000000
37.034037,-9770.718434,995.924147,0.000000
37.034346,-8512.368333,1378.971896,-666.185348
37.034656,-9548.656652,766.095498,592.164754
37.034965,-9770.718434,1072.533697,-148.041188
37.035275,-9252.574275,1991.848295,-296.082377
37.035584,-8068.244768,4060.306139,518.144159
37.035894,-8660.409521,1455.581446,222.061783
37.036203,-9400.615463,995.924147,0.000000
37.036513,-9622.677246,306.438199,370.102971
37.036822,-9770.718434,995.924147,0.000000
37.037132,-8882.471304,2911.162892,-592.164754
37.037441,-9770.718434,1991.848295,222.061783
37.037751,-9918.759623,995.924147,0.000000
37.038060,-9104.533087,689.485948,0.000000
37.038370,-9770.718434,-2374.896044,-148.041188
37.038679,-8660.409521,536.266849,-518.144159
37.038989,-9326.594869,1455.581446,0.000000
37.039298,-9030.512492,1991.848295,-148.041188
37.039608,-9178.553681,1225.752797,74.020594
37.039917,-11029.068536,383.047749,666.185348
37.040226,-9548.656652,1762.019645,0.000000
37.040536,-9844.739029,1762.019645,-296.082377
37.040845,-8882.471304,919.314598,0.000000
37.041155,-9474.636058,842.705048,222.061783
37.041464,-8808.450710,1532.190996,666.185348
37.041774,-9104.533087,1762.019645,-814.226536
37.042083,-9474.636058,1838.629195,0.000000
37.042393,-9992.780217,1532.190996,0.000000
37.042702,-9918.759623,1072.533697,-296.082377
37.043012,-9844.739029,536.266849,222.061783
37.043321,-9770.718434,1532.190996,-444.123565
37.043631,-8956.491898,1532.190996,0.000000
37.043940,-9178.553681,1532.190996,0.000000
37.044250,-7254.018232,3294.210641,962.267725
37.044559,-9178.553681,1302.362347,0.000000
37.044869,-9548.656652,842.705048,148.041188
37.045178,-10140.821405,1225.752797,0.000000
37.045488,-10066.800811,995.924147,-148.041188
37.045797,-9474.636058,1378.971896,0.000000
37.046107,-9622.677246,1225.752797,0.000000
37.046416,-8956.491898,612.876398,222.061783
37.046726,-9548.656652,842.705048,148.041188
37.047035,-9622.677246,2911.162892,2294.638420
37.047345,-9178.553681,2298.286494,-444.123565
37.047654,-9548.656652,1149.143247,296.082377
37.047964,-9474.636058,612.876398,0.000000
37.048273,-10066.800811,1532.190996,-666.185348
37.048583,-10066.800811,2145.067394,-148.041188
37.048892,-9548.656652,1532.190996,0.000000
37.049202,-8808.450710,1685.410096,74.020594
37.049511,-9252.574275,919.314598,370.102971
37.049821,-7994.224174,2221.676944,814.226536
37.050130,-9696.697840,2068.457845,-222.061783
37.050440,-9992.780217,2068.457845,-666.185348
37.050749,-9474.636058,1532.190996,-296.082377
37.051059,-9474.636058,1225.752797,0.000000
37.051368,-8142.265362,842.705048,1702.473667
37.051678,-9696.697840,842.705048,370.102971
37.051987,-8956.491898,1608.800546,-370.102971
37.052297,-9474.636058,1838.629195,-370.102971
37.052606,-9622.677246,1149.143247,148.041188
37.052916,-10214.842000,1378.971896,0.000000
37.053225,-9326.594869,1149.143247,0.000000
37.053535,-9770.718434,1149.143247,0.000000
37.053844,-9696.697840,1915.238745,0.000000
37.054154,-8586.388927,-229.828649,-1332.370696
37.054463,-9252.574275,919.314598,296.082377
37.054773,-9252.574275,919.314598,0.000000
37.055082,-9548.656652,995.924147,0.000000
37.055392,-9992.780217,1608.800546,-148.041188
37.055701,-9696.697840,3600.648841,666.185348
37.056011,-9474.636058,1455.581446,-148.041188
37.056320,-9252.574275,995.924147,0.000000
37.056630,-9400.615463,1532.190996,296.082377
37.056939,-9400.615463,536.266849,-74.020594
37.057249,-9696.697840,1149.143247,222.061783
37.057558,-8734.430116,1302.362347,0.000000
37.057868,-9474.636058,689.485948,444.123565
37.058177,-9474.636058,1225.752797,148.041188
37.058487,-9992.780217,306.438199,1184.329507
37.058796,-9770.718434,1608.800546,0.000000
37.059105,-9326.594869,1225.752797,0.000000
37.059415,-9474.636058,995.924147,148.041188
37.059724,-9178.553681,536.266849,222.061783
37.060034,-9474.636058,1149.143247,-222.061783
37.060343,-9400.615463,2145.067394,-444.123565
37.060653,-9918.759623,1915.238745,0.000000
37.060962,-9474.636058,995.924147,370.102971
37.061272,-8364.327145,995.924147,1110.308913
37.061581,-9474.636058,1302.362347,296.082377
37.061891,-9622.677246,766.095498,148.041188
37.062200,-9030.512492,1762.019645,-370.102971
37.062510,-8808.450710,1915.238745,-296.082377
37.062819,-9252.574275,-1149.143247,74.020594
37.063129,-9474.636058,459.657299,148.041188
37.063438,-9622.677246,1378.971896,148.041188
37.063748,-10214.842000,1532.190996,0.000000
37.064057,-9474.636058,4366.744339,74.020594
37.064367,-9178.553681,1991.848295,148.041188
37.064676,-9622.677246,995.924147,222.061783
37.064986,-9474.636058,689.485948,74.020594
37.065295,-9252.574275,1225.752797,-222.061783
37.065605,-8882.471304,383.047749,-1924.535449
37.065914,-9474.636058,1302.362347,0.000000
37.066224,-9844.739029,995.924147,74.020594
37.066533,-9622.677246,919.314598,222.061783
37.066843,-9474.636058,1532.190996,0.000000
37.067152,-9918.759623,919.314598,222.061783
37.067462,-9474.636058,919.314598,296.082377
37.067771,-9178.553681,536.266849,148.041188
37.068081,-9030.512492,1072.533697,0.000000
37.068390,-8882.471304,1532.190996,-74.020594
37.068700,-9474.636058,919.314598,0.000000
37.069009,-9622.677246,1378.971896,0.000000
37.069319,-9696.697840,1455.581446,296.082377
37.069628,-9770.718434,1378.971896,74.020594
37.069938,-10066.800811,-1302.362347,-1036.288319
37.070247,-9326.594869,995.924147,0.000000
37.070557,-9178.553681,1378.971896,0.000000
37.070866,-8956.491898,1225.752797,74.020594
37.071176,-9178.553681,842.705048,370.102971
37.071485,-8216.285956,1685.410096,-1480.411884
37.071795,-9770.718434,1915.238745,-148.041188
37.072104,-9770.718434,1225.752797,0.000000
37.072414,-9252.574275,1455.581446,148.041188
37.072723,-7476.080014,2681.334243,962.267725
37.073033,-9474.636058,1149.143247,814.226536
37.073342,-9326.594869,536.266849,0.000000
37.073652,-9104.533087,1838.629195,-518.144159
37.073961,-9696.697840,1838.629195,0.000000
37.074271,-9104.533087,842.705048,148.041188
37.074580,-9400.615463,1149.143247,0.000000
37.074890,-9696.697840,459.657299,740.205942
37.075199,-9696.697840,842.705048,-148.041188
37.075509,-9474.636058,-153.219100,-1110.308913
37.075818,-8882.471304,2757.943793,-666.185348
37.076128,-9474.636058,1378.971896,0.000000
37.076437,-9326.594869,919.314598,370.102971
37.076747,-9474.636058,689.485948,-148.041188
37.077056,-11399.171507,2604.724693,-74.020594
37.077366,-9548.656652,1762.019645,0.000000
37.077675,-9622.677246,1608.800546,-148.041188
37.077985,-9030.512492,1225.752797,296.082377
37.078294,-9770.718434,995.924147,0.000000
37.078603,-9696.697840,689.485948,0.000000
37.078913,-9326.594869,1378.971896,-148.041188
37.079222,-9474.636058,1225.752797,148.041188
37.079532,-9178.553681,1608.800546,-296.082377
37.079841,-9770.718434,-3753.867940,-518.144159
37.080151,-9548.656652,459.657299,0.000000
37.080460,-9548.656652,842.705048,148.041188
37.080770,-9474.636058,1149.143247,-148.041188
37.081079,-9696.697840,1302.362347,148.041188
37.081389,-9252.574275,153.219100,2368.659014
37.081698,-9992.780217,1532.190996,-222.061783
37.082008,-9474.636058,1762.019645,74.020594
37.082317,-9400.615463,1225.752797,0.000000
37.082627,-9474.636058,-306.438199,74.020594
37.082936,-9400.615463,766.095498,222.061783
37.083246,-9474.636058,612.876398,-148.041188
37.083555,-9400.615463,1378.971896,0.000000
37.083865,-9474.636058,2068.457845,0.000000
37.084174,-7179.997637,459.657299,-1036.288319
37.084484,-9622.677246,842.705048,592.164754
37.084793,-9622.677246,1225.752797,296.082377
37.085103,-9696.697840,995.924147,-148.041188
37.085412,-9474.636058,1532.190996,0.000000
37.085722,-9104.533087,1991.848295,-444.123565
37.086031,-9030.512492,1302.362347,0.000000
37.086341,-9030.512492,1225.752797,370.102971
37.086650,-9696.697840,842.705048,0.000000
37.086960,-8882.471304,-229.828649,-592.164754
37.087269,-10140.821405,1991.848295,-222.061783
37.087579,-9770.718434,1915.238745,-444.123565
37.087888,-9474.636058,995.924147,370.102971
37.088198,-9474.636058,766.095498,148.041188
37.088507,-8808.450710,-459.657299,2072.576638
37.088817,-9474.636058,1455.581446,148.041188
37.089126,-9474.636058,1149.143247,-148.041188
37.089436,-9326.594869,995.924147,0.000000
37.089745,-9622.677246,-383.047749,222.061783
37.090055,-9696.697840,995.924147,0.000000
37.090364,-9844.739029,1608.800546,74.020594
37.090674,-9548.656652,1455.581446,-444.123565
37.090983,-9252.574275,1378.971896,-74.020594
37.091293,-8734.430116,-1149.143247,222.061783
37.091602,-9326.594869,536.266849,370.102971
37.091912,-9178.553681,1455.581446,-222.061783
37.092221,-9548.656652,1762.019645,-370.102971
37.092531,-9548.656652,1302.362347,-148.041188
37.092840,-9844.739029,2451.505594,962.267725
37.093150,-9474.636058,1378.971896,370.102971
37.093459,-9548.656652,1072.533697,74.020594
37.093769,-8956.491898,1302.362347,-148.041188
37.094078,-8734.430116,6665.030833,0.000000
37.094388,-9030.512492,1685.410096,148.041188
37.094697,-9622.677246,1072.533697,148.041188
37.095007,-9474.636058,1685.410096,0.000000
37.095316,-9992.780217,1225.752797,0.000000
37.095626,-8808.450710,-612.876398,-3330.926739
37.095935,-9400.615463,1455.581446,74.020594
37.096245,-9400.615463,1532.190996,-148.041188
37.096554,-8882.471304,1072.533697,0.000000
37.096864,-9178.553681,842.705048,148.041188
37.097173,-8956.491898,842.705048,-370.102971
37.097483,-9326.594869,1455.581446,-148.041188
37.097792,-9252.574275,1915.238745,0.000000
37.098101,-9992.780217,1072.533697,296.082377
37.098411,-8660.409521,1225.752797,1406.391290
37.098720,-9548.656652,1378.971896,-222.061783
37.099030,-9548.656652,1532.190996,74.020594
37.099339,-9178.553681,1302.362347,0.000000
37.099649,-9252.574275,1225.752797,-222.061783
37.099958,-9770.718434,1532.190996,518.144159
37.100268,-9770.718434,1072.533697,0.000000
37.100577,-9696.697840,1532.190996,-370.102971
37.100887,-9622.677246,1685.410096,0.000000
37.101196,-9400.615463,2451.505594,-666.185348
37.101506,-9622.677246,919.314598,0.000000
37.101815,-9104.533087,1608.800546,0.000000
37.102125,-9844.739029,1149.143247,74.020594
37.102434,-9622.677246,1225.752797,-518.144159
37.102744,-8956.491898,2374.896044,518.144159
37.103053,-9622.677246,1225.752797,0.000000
37.103363,-9474.636058,1225.752797,0.000000
37.103672,-9844.739029,1532.190996,0.000000
37.103982,-9326.594869,1378.971896,-592.164754
37.104291,-8438.347739,689.485948,0.000000
37.104601,-9474.636058,1072.533697,74.020594
37.104910,-9252.574275,1225.752797,444.123565
37.105220,-9326.594869,1072.533697,-222.061783
37.105529,-9548.656652,383.047749,-666.185348
37.105839,-9770.718434,1532.190996,148.041188
37.106148,-9548.656652,1225.752797,0.000000
37.106458,-9474.636058,766.095498,148.041188
37.106767,-9326.594869,1072.533697,74.020594
37.107077,-9992.780217,-76.609550,148.041188
37.107386,-9252.574275,1532.190996,74.020594
37.107696,-9326.594869,1915.238745,74.020594
37.108005,-9400.615463,1302.362347,-222.061783
37.108315,-9474.636058,-0.000000,222.061783
37.108624,-9474.636058,842.705048,-666.185348
37.108934,-9992.780217,1915.238745,-444.123565
37.109243,-9474.636058,1532.190996,0.000000
37.109553,-9178.553681,1302.362347,0.000000
37.109862,-9326.594869,3447.429741,-1036.288319
37.110172,-9696.697840,766.095498,148.041188
37.110481,-9622.677246,1072.533697,0.000000
37.110791,-9104.533087,2068.457845,-518.144159
37.111100,-9030.512492,995.924147,148.041188
37.111410,-9474.636058,1225.752797,0.000000
37.111719,-9178.553681,1991.848295,0.000000
37.112029,-9844.739029,1608.800546,-444.123565
37.112338,-9918.759623,919.314598,0.000000
37.112648,-8512.368333,-459.657299,0.000000
37.112957,-9474.636058,2068.457845,0.000000
37.113267,-9400.615463,995.924147,444.123565
37.113576,-9548.656652,1608.800546,-444.123565
37.113886,-9326.594869,1608.800546,-592.164754
37.114195,-9252.574275,2451.505594,2368.659014
37.114505,-9474.636058,536.266849,222.061783
37.114814,-9548.656652,842.705048,222.061783
37.115124,-9622.677246,1685.410096,-370.102971
37.115433,-9030.512492,-1149.143247,-370.102971
37.115743,-9548.656652,766.095498,-370.102971
37.116052,-9252.574275,1225.752797,74.020594
37.116362,-9844.739029,1225.752797,148.041188
37.116671,-10066.800811,1149.143247,-148.041188
37.116981,-8216.285956,-1149.143247,-1258.350101
37.117290,-9474.636058,1762.019645,-444.123565
37.117599,-9104.533087,1378.971896,222.061783
37.117909,-9104.533087,919.314598,296.082377
37.118218,-9030.512492,1149.143247,0.000000
37.118528,-10584.944971,1455.581446,1554.432478
37.118837,-9474.636058,1455.581446,0.000000
37.119147,-9400.615463,1838.629195,0.000000
37.119456,-9770.718434,1378.971896,-814.226536
37.119766,-9326.594869,1685.410096,-148.041188
37.120075,-9992.780217,1378.971896,74.020594
37.120385,-9400.615463,1225.752797,0.000000
37.120694,-9400.615463,1762.019645,222.061783
37.121004,-8586.388927,1685.410096,-666.185348
37.121313,-9178.553681,-2451.505594,1184.329507
37.121623,-9474.636058,612.876398,-148.041188
37.121932,-9474.636058,1608.800546,-370.102971
37.122242,-9696.697840,1455.581446,-148.041188
37.122551,-9696.697840,1149.143247,148.041188
37.122861,-9474.636058,1991.848295,74.020594
37.123170,-9474.636058,1532.190996,-222.061783
37.123480,-9400.615463,919.314598,0.000000
37.123789,-9178.553681,1378.971896,148.041188
37.124099,-9622.677246,4290.134789,740.205942
37.124408,-9622.677246,1455.581446,296.082377
37.124718,-9696.697840,1072.533697,148.041188
37.125027,-9918.759623,1608.800546,-518.144159
37.125337,-9696.697840,1991.848295,0.000000
37.125646,-9030.512492,153.219100,-518.144159
37.125956,-9030.512492,689.485948,0.000000
37.126265,-9400.615463,995.924147,148.041188
37.126575,-9178.553681,1149.143247,0.000000
37.126884,-9474.636058,1225.752797,1184.329507
37.127194,-9992.780217,2221.676944,-518.144159
37.127503,-9622.677246,1685.410096,-148.041188
37.127813,-9474.636058,459.657299,74.020594
37.128122,-9252.574275,306.438199,222.061783
37.128432,-11917.315666,3600.648841,2516.700203
37.128741,-9030.512492,2068.457845,0.000000
37.129051,-9474.636058,1685.410096,-296.082377
37.129360,-9252.574275,995.924147,-370.102971
37.129670,-9770.718434,995.924147,0.000000
37.129979,-9326.594869,1455.581446,-740.205942
37.130289,-9252.574275,1302.362347,0.000000
37.130598,-9548.656652,842.705048,296.082377
37.130908,-9030.512492,766.095498,74.020594
37.131217,-8808.450710,-3753.867940,370.102971
37.131527,-9104.533087,1455.581446,-296.082377
37.131836,-9696.697840,1608.800546,-444.123565
37.132146,-9696.697840,1838.629195,0.000000
37.132455,-9548.656652,536.266849,222.061783
37.132765,-9030.512492,2604.724693,-1998.556043
37.133074,-9400.615463,1915.238745,-296.082377
37.133384,-9400.615463,2298.286494,-148.041188
37.133693,-9252.574275,919.314598,518.144159
37.134002,-8882.471304,4443.353888,-74.020594
37.134312,-9474.636058,2221.676944,-296.082377
37.134621,-9918.759623,229.828649,74.020594
37.134931,-10510.924376,766.095498,-370.102971
37.135240,-9622.677246,2145.067394,-296.082377
37.135550,-10658.965565,6435.202183,592.164754
37.135859,-8882.471304,995.924147,74.020594
37.136169,-9178.553681,1072.533697,296.082377
37.136478,-9252.574275,2681.334243,0.000000
37.136788,-9770.718434,1608.800546,0.000000
37.137097,-8586.388927,2374.896044,222.061783
37.137407,-9696.697840,1378.971896,-222.061783
37.137716,-9992.780217,1149.143247,-222.061783
37.138026,-9400.615463,1608.800546,74.020594
37.138335,-8290.306550,459.657299,1776.494261
37.138645,-9252.574275,1685.410096,148.041188
37.138954,-9400.615463,1532.190996,0.000000
37.139264,-9030.512492,766.095498,370.102971
37.139573,-9696.697840,612.876398,74.020594
37.139883,-9992.780217,2757.943793,1110.308913
37.140192,-9622.677246,2145.067394,-148.041188
37.140502,-9622.677246,919.314598,370.102971
37.140811,-9178.553681,1225.752797,0.000000
37.141121,-9474.636058,1838.629195,0.000000
37.141430,-8660.409521,995.924147,-444.123565
37.141740,-9104.533087,995.924147,-222.061783
37.142049,-9178.553681,1302.362347,0.000000
37.142358,-9844.739029,1225.752797,0.000000
37.142668,-11177.109724,-306.438199,1480.411884
37.142977,-9474.636058,1149.143247,-296.082377
37.143287,-9770.718434,1455.581446,0.000000
37.143596,-8808.450710,1225.752797,222.061783
37.143906,-9030.512492,1225.752797,74.020594
37.144215,-7698.141797,3064.381992,-1480.411884
37.144525,-9474.636058,1302.362347,0.000000
37.144834,-9696.697840,1149.143247,0.000000
37.145144,-9548.656652,1685.410096,-222.061783
37.145453,-9548.656652,2451.505594,1554.432478
37.145763,-9030.512492,766.095498,-518.144159
37.146072,-9474.636058,306.438199,592.164754
37.146382,-8882.471304,995.924147,74.020594
37.146691,-9474.636058,2221.676944,-444.123565
37.147001,-8438.347739,3830.477490,-666.185348
37.147310,-8956.491898,1072.533697,0.000000
37.147620,-9770.718434,612.876398,518.144159
37.147929,-9622.677246,1302.362347,-222.061783
37.148239,-9474.636058,1762.019645,-518.144159
37.148548,-9326.594869,995.924147,-296.082377
37.148858,-9252.574275,1378.971896,0.000000
37.149167,-9474.636058,1532.190996,222.061783
37.149477,-9696.697840,842.705048,518.144159
37.149786,-7698.141797,689.485948,-962.267725
37.150096,-9400.615463,2221.676944,-518.144159
37.150405,-9474.636058,1072.533697,0.000000
37.150715,-9252.574275,919.314598,296.082377
37.151024,-9400.615463,1149.143247,0.000000
37.151333,-9474.636058,2221.676944,74.020594
37.151643,-9622.677246,1455.581446,74.020594
37.151952,-9474.636058,1838.629195,-148.041188
37.152262,-9400.615463,1532.190996,222.061783
37.152571,-9400.615463,-1302.362347,1036.288319
37.152881,-9474.636058,766.095498,-370.102971
37.153190,-9844.739029,766.095498,592.164754
37.153500,-9252.574275,1455.581446,-370.102971
37.153809,-9030.512492,1915.238745,0.000000
37.154119,-9104.533087,76.609550,592.164754
37.154428,-9252.574275,689.485948,148.041188
37.154738,-9696.697840,1149.143247,222.061783
37.155047,-9548.656652,1225.752797,-222.061783
37.155357,-9474.636058,1991.848295,0.000000
37.155666,-10288.862594,1685.410096,1258.350101
37.155976,-9474.636058,612.876398,222.061783
37.156285,-8956.491898,995.924147,444.123565
37.156595,-9548.656652,1838.629195,-444.123565
37.156904,-9548.656652,5669.106685,-888.247130
37.157214,-9178.553681,1685.410096,0.000000
37.157523,-9548.656652,919.314598,0.000000
37.157833,-9770.718434,1149.143247,0.000000
37.158142,-9992.780217,1225.752797,148.041188
37.158452,-8586.388927,-4673.182538,-2368.659014
37.158761,-9104.533087,842.705048,0.000000
37.159071,-9400.615463,1149.143247,370.102971
37.159380,-9178.553681,1991.848295,-222.061783
37.159689,-9474.636058,1072.533697,-148.041188
37.159999,-10140.821405,536.266849,-296.082377
37.160308,-9844.739029,919.314598,0.000000
37.160618,-9474.636058,1225.752797,148.041188
37.160927,-9326.594869,1532.190996,222.061783
37.161237,-9474.636058,1378.971896,-148.041188
37.161546,-9252.574275,1455.581446,0.000000
37.161856,-9548.656652,1378.971896,0.000000
37.162165,-9400.615463,1455.581446,-148.041188
37.162475,-10140.821405,1378.971896,0.000000
37.162784,-9178.553681,766.095498,370.102971
37.163094,-9474.636058,995.924147,0.000000
37.163403,-9252.574275,1685.410096,0.000000
37.163713,-9178.553681,1915.238745,0.000000
37.164022,-8512.368333,3983.696590,-1184.329507
37.164332,-9178.553681,612.876398,370.102971
37.164641,-9474.636058,459.657299,222.061783
37.164951,-9622.677246,1072.533697,-296.082377
37.165260,-9992.780217,1685.410096,-444.123565
37.165570,-9770.718434,-0.000000,0.000000
37.165879,-9252.574275,1302.362347,222.061783
37.166189,-9474.636058,1149.143247,222.061783
37.166498,-9548.656652,1225.752797,592.164754
37.166808,-9696.697840,1532.190996,-444.123565
37.167117,-9474.636058,842.705048,444.123565
37.167427,-9622.677246,1072.533697,0.000000
37.167736,-9474.636058,1302.362347,148.041188
37.168045,-9252.574275,1225.752797,0.000000
37.168355,-9622.677246,2528.115143,148.041188
37.168664,-9252.574275,995.924147,0.000000
37.168974,-9252.574275,1762.019645,0.000000
37.169283,-9178.553681,1302.362347,444.123565
37.169593,-9622.677246,1455.581446,0.000000
37.169902,-9844.739029,1608.800546,-1110.308913
37.170212,-9474.636058,1225.752797,0.000000
37.170521,-9548.656652,1225.752797,74.020594
37.170831,-9474.636058,1455.581446,0.000000
37.171140,-8364.327145,1915.238745,-74.020594
37.171450,-8882.471304,766.095498,0.000000
37.171759,-9696.697840,1149.143247,-296.082377
37.172069,-9548.656652,1532.190996,0.000000
37.172378,-9548.656652,1608.800546,0.000000
37.172688,-11103.089130,766.095498,2294.638420
37.172997,-9770.718434,842.705048,518.144159
37.173307,-9252.574275,1685.410096,0.000000
37.173616,-8882.471304,1455.581446,0.000000
37.173926,-9548.656652,1378.971896,148.041188
37.174235,-8808.450710,1532.190996,222.061783
37.174545,-9474.636058,1072.533697,0.000000
37.174854,-10066.800811,1149.143247,0.000000
37.175164,-9622.677246,1532.190996,-222.061783
37.175473,-11695.253884,-383.047749,1702.473667
37.175783,-9548.656652,536.266849,296.082377
37.176092,-9400.615463,1149.143247,296.082377
37.176401,-9400.615463,1378.971896,74.020594
37.176711,-9400.615463,1225.752797,370.102971
37.177020,-10510.924376,1532.190996,-444.123565
37.177330,-9918.759623,1455.581446,0.000000
37.177639,-9622.677246,766.095498,148.041188
37.177949,-9252.574275,1302.362347,0.000000
37.178258,-9326.594869,1685.410096,0.000000
37.178568,-9252.574275,919.314598,0.000000
37.178877,-8882.471304,1762.019645,-222.061783
37.179187,-9474.636058,1378.971896,0.000000
37.179496,-9474.636058,536.266849,444.123565
37.179806,-10362.883188,1149.143247,-1332.370696
37.180115,-9622.677246,2068.457845,0.000000
37.180425,-9474.636058,1378.971896,0.000000
37.180734,-9770.718434,995.924147,0.000000
37.181044,-9030.512492,1455.581446,222.061783
37.181353,-8512.368333,842.705048,0.000000
37.181663,-9474.636058,1302.362347,0.000000
37.181972,-9696.697840,1685.410096,-148.041188
37.182282,-9622.677246,1455.581446,-296.082377
37.182591,-7179.997637,-153.219100,-740.205942
37.182901,-9622.677246,1302.362347,0.000000
37.183210,-9474.636058,1225.752797,0.000000
37.183520,-9326.594869,1608.800546,74.020594
37.183829,-9326.594869,1532.190996,148.041188
37.184139,-8364.327145,-919.314598,0.000000
37.184448,-9104.533087,919.314598,-222.061783
37.184757,-9474.636058,1225.752797,-148.041188
37.185067,-9622.677246,1302.362347,0.000000
37.185376,-9918.759623,995.924147,370.102971
37.185686,-9474.636058,1378.971896,222.061783
37.185995,-9474.636058,1378.971896,-222.061783
37.186305,-9474.636058,842.705048,0.000000
37.186614,-9622.677246,1455.581446,-222.061783
37.186924,-9622.677246,4519.963438,0.000000
37.187233,-9548.656652,919.314598,0.000000
37.187543,-9252.574275,1149.143247,222.061783
37.187852,-9326.594869,1685.410096,0.000000
37.188162,-9474.636058,1225.752797,-740.205942
37.188471,-9326.594869,1072.533697,296.082377
37.188781,-9622.677246,1302.362347,-222.061783
37.189090,-9326.594869,1072.533697,222.061783
37.189400,-9622.677246,1072.533697,370.102971
37.189709,-9696.697840,3140.991542,-1036.288319
37.190019,-9400.615463,2451.505594,148.041188
37.190328,-9474.636058,2221.676944,0.000000
37.190638,-9474.636058,1378.971896,74.020594
37.190947,-9474.636058,612.876398,296.082377
37.191257,-10066.800811,-1532.190996,-1554.432478
37.191566,-9474.636058,1455.581446,-444.123565
37.191876,-9326.594869,1838.629195,-296.082377
37.192185,-9252.574275,1302.362347,222.061783
37.192495,-9474.636058,536.266849,518.144159
37.192804,-9178.553681,536.266849,0.000000
37.193113,-9696.697840,1838.629195,-222.061783
37.193423,-9696.697840,1532.190996,-296.082377
37.193732,-9030.512492,1302.362347,0.000000
37.194042,-8808.450710,-995.924147,-1184.329507
37.194351,-9844.739029,1072.533697,74.020594
37.194661,-9104.533087,1685.410096,-518.144159
37.194970,-9474.636058,2068.457845,-148.041188
37.195280,-9474.636058,919.314598,-148.041188
37.195589,-8734.430116,-306.438199,-888.247130
37.195899,-9844.739029,1072.533697,74.020594
37.196208,-9622.677246,1532.190996,0.000000
37.196518,-9696.697840,1762.019645,-296.082377
37.196827,-9770.718434,3983.696590,-74.020594
37.197137,-9326.594869,1685.410096,592.164754
37.197446,-9326.594869,919.314598,0.000000
37.197756,-9696.697840,766.095498,0.000000
37.198065,-9252.574275,1149.143247,0.000000
37.198375,-7476.080014,2604.724693,-1850.514855
37.198684,-9400.615463,1608.800546,-370.102971
37.198994,-9696.697840,1608.800546,74.020594
37.199303,-9548.656652,1532.190996,-222.061783
37.199613,-9770.718434,995.924147,0.000000
37.199922,-10214.842000,229.828649,222.061783
37.200232,-9400.615463,1072.533697,0.000000
37.200541,-9178.553681,1608.800546,370.102971
37.200851,-9326.594869,1532.190996,-370.102971
37.201160,-9474.636058,1991.848295,-1184.329507
37.201469,-9770.718434,1532.190996,0.000000
37.201779,-9178.553681,995.924147,-148.041188
37.202088,-9400.615463,1225.752797,0.000000
37.202398,-9474.636058,1225.752797,0.000000
37.202707,-10214.842000,2528.115143,74.020594
37.203017,-9548.656652,1455.581446,-296.082377
37.203326,-9252.574275,1762.019645,-518.144159
37.203636,-9474.636058,1532.190996,0.000000
37.203945,-9326.594869,3753.867940,370.102971
37.204255,-9844.739029,-0.000000,222.061783
37.204564,-9548.656652,766.095498,0.000000
37.204874,-9696.697840,1532.190996,-296.082377
37.205183,-9252.574275,1762.019645,74.020594
37.205493,-9918.759623,2681.334243,-1110.308913
37.205802,-9104.533087,1685.410096,-222.061783
37.206112,-9030.512492,1685.410096,296.082377
37.206421,-9474.636058,536.266849,0.000000
37.206731,-9770.718434,995.924147,-296.082377
37.207040,-10288.862594,1991.848295,-148.041188
37.207350,-9622.677246,1225.752797,74.020594
37.207659,-9400.615463,383.047749,148.041188
37.207969,-9178.553681,1149.143247,0.000000
37.208278,-7328.038826,2834.553343,0.000000
37.208588,-9400.615463,1378.971896,0.000000
37.208897,-9252.574275,1685.410096,0.000000
37.209207,-9918.759623,1149.143247,0.000000
37.209516,-9548.656652,536.266849,0.000000
37.209825,-7772.162391,1072.533697,-962.267725
37.210135,-9326.594869,1608.800546,296.082377
37.210444,-9548.656652,1378.971896,-296.082377
37.210754,-9178.553681,1532.190996,0.000000
37.211063,-9548.656652,689.485948,0.000000
37.211373,-9252.574275,1915.238745,-148.041188
37.211682,-9400.615463,1685.410096,0.000000
37.211992,-9474.636058,995.924147,-148.041188
37.212301,-9252.574275,842.705048,74.020594
37.212611,-5995.668130,-0.000000,-2146.597232
37.212920,-8882.471304,1915.238745,-148.041188
37.213230,-9474.636058,1302.362347,296.082377
37.213539,-9770.718434,1302.362347,74.020594
37.213849,-9400.615463,1608.800546,-296.082377
37.214158,-11177.109724,1608.800546,1554.432478
37.214468,-9622.677246,919.314598,-222.061783
37.214777,-9548.656652,1302.362347,-148.041188
37.215087,-9104.533087,1532.190996,148.041188
37.215396,-9400.615463,-3677.258390,444.123565
37.215706,-9104.533087,995.924147,296.082377
37.216015,-9770.718434,1532.190996,-296.082377
37.216325,-9548.656652,1532.190996,-296.082377
37.216634,-9474.636058,1149.143247,0.000000
37.216944,-11251.130318,-1532.190996,0.000000
37.217253,-9474.636058,1072.533697,0.000000
37.217563,-9252.574275,1378.971896,0.000000
37.217872,-9104.533087,995.924147,0.000000
37.218181,-9030.512492,1915.238745,-148.041188
37.218491,-9770.718434,1608.800546,222.061783
37.218800,-9104.533087,919.314598,0.000000
37.219110,-9992.780217,1072.533697,222.061783
37.219419,-9992.780217,1378.971896,0.000000
37.219729,-8512.368333,5515.887586,222.061783
37.220038,-9326.594869,1915.238745,0.000000
37.220348,-9178.553681,995.924147,148.041188
37.220657,-9104.533087,766.095498,222.061783
37.220967,-8808.450710,1532.190996,0.000000
37.221276,-9992.780217,612.876398,-1924.535449
37.221586,-9622.677246,1838.629195,-444.123565
37.221895,-9622.677246,1685.410096,-444.123565
37.222205,-9548.656652,1302.362347,222.061783
37.222514,-9548.656652,766.095498,0.000000
37.222824,-9326.594869,1915.238745,222.061783
37.223133,-9252.574275,1532.190996,148.041188
37.223443,-8734.430116,1378.971896,74.020594
37.223752,-9252.574275,1378.971896,0.000000
37.224062,-10362.883188,3907.087040,148.041188
37.224371,-9622.677246,1149.143247,0.000000
37.224681,-9844.739029,1608.800546,-370.102971
37.224990,-9474.636058,1378.971896,-222.061783
37.225300,-9178.553681,842.705048,296.082377
37.225609,-8068.244768,919.314598,0.000000
37.225919,-9400.615463,1072.533697,74.020594
37.226228,-9400.615463,1225.752797,0.000000
37.226537,-9770.718434,1915.238745,-444.123565
37.226847,-9770.718434,3907.087040,444.123565
37.227156,-9400.615463,689.485948,74.020594
37.227466,-9696.697840,766.095498,74.020594
37.227775,-9474.636058,1149.143247,-222.061783
37.228085,-9622.677246,1072.533697,-444.123565
37.228394,-8512.368333,1455.581446,-518.144159
37.228704,-9326.594869,1225.752797,74.020594
37.229013,-9104.533087,1455.581446,-222.061783
37.229323,-9622.677246,1532.190996,74.020594
37.229632,-10214.842000,1302.362347,-444.123565
37.229942,-9548.656652,1225.752797,-148.041188
37.230251,-9178.553681,1762.019645,0.000000
37.230561,-9104.533087,1532.190996,0.000000
37.230870,-9252.574275,1149.143247,296.082377
37.231180,-7920.203579,2298.286494,-222.061783
37.231489,-9548.656652,1149.143247,-148.041188
37.231799,-9474.636058,1532.190996,0.000000
37.232108,-9992.780217,1685.410096,0.000000
37.232418,-9918.759623,1149.143247,0.000000
37.232727,-10584.944971,1225.752797,148.041188
37.233037,-9400.615463,1225.752797,-222.061783
37.233346,-9104.533087,1225.752797,148.041188
37.233656,-9326.594869,1455.581446,-296.082377
37.233965,-9030.512492,2451.505594,-74.020594
37.234275,-9474.636058,1149.143247,-296.082377
37.234584,-9918.759623,995.924147,0.000000
37.234893,-9770.718434,1991.848295,-296.082377
37.235203,-9474.636058,1915.238745,-370.102971
37.235512,-8290.306550,1225.752797,592.164754
37.235822,-9326.594869,766.095498,444.123565
37.236131,-9104.533087,1455.581446,74.020594
37.236441,-9326.594869,1302.362347,-444.123565
37.236750,-9622.677246,1532.190996,0.000000
37.237060,-9326.594869,995.924147,814.226536
37.237369,-9770.718434,536.266849,148.041188
37.237678,-9622.677246,842.705048,74.020594
37.237988,-9844.739029,1455.581446,-148.041188
37.238297,-9474.636058,4673.182538,-1480.411884
37.238607,-8512.368333,1532.190996,222.061783
37.238916,-8882.471304,1149.143247,148.041188
37.239226,-9104.533087,842.705048,-296.082377
37.239535,-9474.636058,995.924147,148.041188
37.239845,-9474.636058,-306.438199,-740.205942
37.240154,-10140.821405,1225.752797,-148.041188
37.240464,-9400.615463,1838.629195,0.000000
37.240773,-9696.697840,1685.410096,148.041188
37.241082,-9178.553681,-612.876398,518.144159
37.241392,-8956.491898,1455.581446,-222.061783
37.241701,-8734.430116,1225.752797,0.000000
37.242011,-9548.656652,689.485948,0.000000
37.242320,-9770.718434,842.705048,0.000000
37.242630,-8660.409521,1915.238745,444.123565
37.242939,-9844.739029,1378.971896,-148.041188
37.243249,-9548.656652,1532.190996,0.000000
37.243558,-9548.656652,1762.019645,148.041188
37.243867,-9252.574275,536.266849,222.061783
37.244177,-9326.594869,612.876398,1036.288319
37.244486,-9030.512492,1762.019645,-370.102971
37.244796,-9548.656652,1608.800546,-592.164754
37.245105,-9326.594869,1685.410096,148.041188
37.245415,-8882.471304,5056.230287,296.082377
37.245724,-9400.615463,1225.752797,444.123565
37.246034,-9622.677246,766.095498,148.041188
37.246343,-10066.800811,1685.410096,-296.082377
37.246653,-9178.553681,1608.800546,0.000000
37.246962,-8512.368333,1378.971896,0.000000
37.247271,-8882.471304,1225.752797,0.000000
37.247581,-9622.677246,1149.143247,0.000000
37.247890,-9844.739029,1532.190996,222.061783
37.248200,-9770.718434,1608.800546,-148.041188
37.248509,-9474.636058,2451.505594,444.123565
37.248819,-9030.512492,689.485948,296.082377
37.249128,-9770.718434,995.924147,74.020594
37.249438,-9252.574275,1532.190996,-222.061783
37.249747,-11769.274478,536.266849,-518.144159
37.250056,-9474.636058,1225.752797,222.061783
37.250366,-9696.697840,1225.752797,-370.102971
37.250675,-8956.491898,1378.971896,0.000000
37.250985,-9548.656652,995.924147,518.144159
37.251294,-9252.574275,-995.924147,1110.308913
37.251604,-9178.553681,1378.971896,0.000000
37.251913,-9474.636058,1608.800546,0.000000
37.252223,-8808.450710,995.924147,0.000000
37.252532,-9918.759623,2451.505594,74.020594
37.252842,-9770.718434,1915.238745,74.020594
37.253151,-9844.739029,1532.190996,0.000000
37.253460,-9548.656652,1762.019645,-518.144159
37.253770,-9178.553681,1225.752797,148.041188
37.254079,-9326.594869,2451.505594,-740.205942
37.254389,-9252.574275,1225.752797,0.000000
37.254698,-9400.615463,1915.238745,0.000000
37.255008,-9178.553681,1455.581446,0.000000
37.255317,-9548.656652,1149.143247,0.000000
37.255627,-9622.677246,1302.362347,-148.041188
37.255936,-10066.800811,766.095498,74.020594
37.256246,-9548.656652,1378.971896,0.000000
37.256555,-9030.512492,2221.676944,-148.041188
37.256864,-10807.006753,1302.362347,-74.020594
37.257174,-9326.594869,459.657299,222.061783
37.257483,-9104.533087,1455.581446,0.000000
37.257793,-9770.718434,1455.581446,0.000000
37.258102,-9918.759623,1149.143247,74.020594
37.258412,-9474.636058,1378.971896,-592.164754
37.258721,-9548.656652,1225.752797,0.000000
37.259031,-9474.636058,766.095498,370.102971
37.259340,-8956.491898,689.485948,0.000000
37.259649,-9030.512492,1915.238745,-1924.535449
37.259959,-9474.636058,2221.676944,0.000000
37.260268,-8956.491898,1762.019645,0.000000
37.260578,-10066.800811,1225.752797,148.041188
37.260887,-9918.759623,842.705048,74.020594
37.261197,-10140.821405,3677.258390,148.041188
37.261506,-9844.739029,1608.800546,-296.082377
37.261816,-9030.512492,1532.190996,74.020594
37.262125,-8882.471304,995.924147,0.000000
37.262435,-9178.553681,383.047749,296.082377
37.262744,-9474.636058,995.924147,0.000000
37.263053,-9474.636058,2145.067394,-740.205942
37.263363,-9622.677246,1762.019645,0.000000
37.263672,-9622.677246,995.924147,0.000000
37.263982,-11103.089130,2068.457845,0.000000
37.264291,-9252.574275,919.314598,0.000000
37.264601,-9252.574275,1378.971896,-296.082377
37.264910,-8882.471304,1685.410096,0.000000
37.265220,-9252.574275,995.924147,444.123565
37.265529,-9474.636058,1225.752797,592.164754
37.265838,-9474.636058,1532.190996,0.000000
37.266148,-10436.903782,1915.238745,0.000000
37.266457,-9474.636058,1991.848295,-444.123565
37.266767,-9400.615463,2604.724693,444.123565
37.267076,-10140.821405,612.876398,666.185348
37.267386,-9326.594869,536.266849,74.020594
37.267695,-9178.553681,1532.190996,0.000000
37.268005,-9400.615463,1608.800546,-148.041188
37.268314,-8882.471304,5209.449386,-814.226536
37.268624,-9400.615463,1378.971896,-148.041188
37.268933,-9770.718434,842.705048,518.144159
37.269242,-9844.739029,459.657299,0.000000
37.269552,-9696.697840,1608.800546,-370.102971
37.269861,-11103.089130,1532.190996,814.226536
37.270171,-9030.512492,1302.362347,296.082377
37.270480,-9400.615463,842.705048,0.000000
37.270790,-9474.636058,919.314598,148.041188
37.271099,-9104.533087,3983.696590,0.000000
37.271409,-10066.800811,2451.505594,-740.205942
37.271718,-9844.739029,1762.019645,-222.061783
37.272028,-9548.656652,1685.410096,-296.082377
37.272337,-9474.636058,612.876398,0.000000
37.272646,-9548.656652,1072.533697,-296.082377
37.272956,-9696.697840,1991.848295,-148.041188
37.273265,-9252.574275,1838.629195,-444.123565
37.273575,-9400.615463,1302.362347,222.061783
37.273884,-9696.697840,689.485948,444.123565
37.274194,-10732.986159,1072.533697,0.000000
37.274503,-9326.594869,1608.800546,0.000000
37.274813,-9474.636058,842.705048,0.000000
37.275122,-9104.533087,766.095498,0.000000
37.275431,-9622.677246,919.314598,962.267725
37.275741,-9178.553681,1302.362347,222.061783
37.276050,-9696.697840,1532.190996,0.000000
37.276360,-9548.656652,1838.629195,-148.041188
37.276669,-10140.821405,995.924147,-148.041188
37.276979,-8068.244768,1762.019645,-370.102971
37.277288,-9548.656652,766.095498,-296.082377
37.277598,-9178.553681,1302.362347,0.000000
37.277907,-8956.491898,1915.238745,0.000000
37.278217,-8956.491898,2221.676944,1036.288319
37.278526,-9178.553681,1072.533697,370.102971
37.278835,-9622.677246,1378.971896,0.000000
37.279145,-9992.780217,459.657299,148.041188
37.279454,-9696.697840,842.705048,0.000000
37.279764,-10658.965565,2604.724693,74.020594
37.280073,-9178.553681,1915.238745,0.000000
37.280383,-8808.450710,612.876398,592.164754
37.280692,-9104.533087,995.924147,222.061783
37.281002,-9252.574275,1838.629195,-222.061783
37.281311,-10732.986159,2068.457845,-222.061783
37.281620,-9844.739029,995.924147,222.061783
37.281930,-9770.718434,766.095498,0.000000
37.282239,-9696.697840,919.314598,0.000000
37.282549,-8956.491898,2298.286494,1628.453072
37.282858,-9104.533087,1685.410096,0.000000
37.283168,-9252.574275,1762.019645,0.000000
37.283477,-9030.512492,1149.143247,74.020594
37.283787,-9474.636058,536.266849,444.123565
37.284096,-10362.883188,-842.705048,592.164754
37.284406,-10140.821405,1762.019645,-444.123565
37.284715,-9844.739029,2068.457845,-518.144159
37.285024,-9326.594869,1378.971896,148.041188
37.285334,-8956.491898,1149.143247,-518.144159
37.285643,-9104.533087,1532.190996,296.082377
37.285953,-9326.594869,612.876398,296.082377
37.286262,-9400.615463,1378.971896,0.000000
37.286572,-9474.636058,2068.457845,-592.164754
37.286881,-9696.697840,1991.848295,962.267725
37.287191,-9622.677246,1072.533697,222.061783
37.287500,-9770.718434,919.314598,-222.061783
37.287810,-9474.636058,1378.971896,296.082377
37.288119,-9252.574275,1302.362347,0.000000
37.288428,-9844.739029,1302.362347,1184.329507
37.288738,-9252.574275,1685.410096,222.061783
37.289047,-9178.553681,1762.019645,-296.082377
37.289357,-9770.718434,1455.581446,222.061783
37.289666,-7846.182985,3447.429741,74.020594
37.289976,-9918.759623,1225.752797,0.000000
37.290285,-9770.718434,919.314598,148.041188
37.290595,-9178.553681,919.314598,444.123565
37.290904,-9178.553681,1608.800546,-148.041188
37.291213,-8660.409521,2528.115143,-1332.370696
37.291523,-9030.512492,1378.971896,-148.041188
37.291832,-9474.636058,842.705048,74.020594
37.292142,-9770.718434,995.924147,222.061783
37.292451,-9326.594869,842.705048,-444.123565
37.292761,-8734.430116,1608.800546,-592.164754
37.293070,-9326.594869,1532.190996,-148.041188
37.293380,-9474.636058,1072.533697,296.082377
37.293689,-9548.656652,1302.362347,370.102971
37.293999,-11325.150913,2451.505594,1184.329507
37.294308,-9696.697840,1072.533697,-296.082377
37.294617,-9474.636058,1762.019645,-222.061783
37.294927,-9548.656652,1225.752797,370.102971
37.295236,-9474.636058,919.314598,74.020594
37.295546,-9992.780217,1149.143247,222.061783
37.295855,-9104.533087,1608.800546,-296.082377
37.296165,-9474.636058,842.705048,296.082377
37.296474,-9252.574275,1149.143247,74.020594
37.296784,-7772.162391,-766.095498,-1998.556043
37.297093,-8808.450710,1302.362347,222.061783
37.297402,-9548.656652,995.924147,-370.102971
37.297712,-9474.636058,1991.848295,0.000000
37.298021,-9696.697840,1915.238745,-518.144159
37.298331,-9178.553681,-3830.477490,-1184.329507
37.298640,-9178.553681,153.219100,222.061783
37.298950,-9104.533087,1378.971896,-370.102971
37.299259,-9770.718434,2068.457845,0.000000
37.299569,-9474.636058,1532.190996,222.061783
37.299878,-9400.615463,995.924147,-370.102971
37.300188,-9400.615463,1455.581446,0.000000
37.300497,-9252.574275,995.924147,0.000000
37.300806,-9696.697840,1149.143247,148.041188
37.301116,-9696.697840,536.266849,1776.494261
37.301425,-9400.615463,995.924147,74.020594
37.301735,-9252.574275,612.876398,-296.082377
37.302044,-9030.512492,1455.581446,0.000000
37.302354,-9252.574275,1915.238745,74.020594
37.302663,-9992.780217,-689.485948,518.144159
37.302973,-9474.636058,995.924147,0.000000
37.303282,-9252.574275,1378.971896,0.000000
37.303592,-9992.780217,1532.190996,-296.082377
37.303901,-9178.553681,3907.087040,0.000000
37.304210,-9178.553681,766.095498,74.020594
37.304520,-9178.553681,536.266849,222.061783
37.304829,-9696.697840,1302.362347,0.000000
37.305139,-9622.677246,1991.848295,0.000000
37.305448,-9400.615463,-0.000000,-592.164754
37.305758,-9844.739029,1762.019645,-444.123565
37.306067,-9326.594869,1225.752797,0.000000
37.306377,-9622.677246,153.219100,222.061783
37.306686,-8882.471304,842.705048,74.020594
37.306995,-9548.656652,1455.581446,296.082377
37.307305,-8808.450710,1685.410096,0.000000
37.307614,-9326.594869,1378.971896,0.000000
37.307924,-10288.862594,1762.019645,-370.102971
37.308233,-9474.636058,-0.000000,-962.267725
37.308543,-10288.862594,612.876398,222.061783
37.308852,-9474.636058,766.095498,74.020594
37.309162,-9178.553681,1532.190996,148.041188
37.309471,-8882.471304,1532.190996,0.000000
37.309781,-7105.977043,2374.896044,-1184.329507
37.310090,-9400.615463,1378.971896,0.000000
37.310399,-9844.739029,1455.581446,0.000000
37.310709,-10140.821405,1302.362347,0.000000
37.311018,-9918.759623,-153.219100,-74.020594
37.311328,-9918.759623,1072.533697,-148.041188
37.311637,-8660.409521,1149.143247,0.000000
37.311947,-9030.512492,1838.629195,0.000000
37.312256,-8956.491898,1532.190996,0.000000
37.312566,-9030.512492,1532.190996,74.020594
37.312875,-9474.636058,842.705048,0.000000
37.313184,-10288.862594,536.266849,0.000000
37.313494,-10362.883188,1378.971896,-592.164754
37.313803,-9696.697840,1991.848295,0.000000
37.314113,-9104.533087,2451.505594,-444.123565
37.314422,-8512.368333,842.705048,0.000000
37.314732,-8956.491898,1302.362347,370.102971
37.315041,-9622.677246,1378.971896,-296.082377
37.315351,-10584.944971,842.705048,1776.494261
37.315660,-9992.780217,1302.362347,0.000000
37.315970,-10066.800811,1225.752797,-296.082377
37.316279,-9474.636058,1532.190996,-148.041188
37.316588,-9770.718434,1455.581446,0.000000
37.316898,-11103.089130,1072.533697,740.205942
37.317207,-8660.409521,1762.019645,-148.041188
37.317517,-8586.388927,1762.019645,518.144159
37.317826,-9252.574275,1072.533697,444.123565
37.318136,-9548.656652,3677.258390,-370.102971
37.318445,-10584.944971,2145.067394,-888.247130
37.318755,-10140.821405,1455.581446,-518.144159
37.319064,-9474.636058,1302.362347,74.020594
37.319374,-9326.594869,1302.362347,148.041188
37.319683,-11547.212695,2528.115143,-592.164754
37.319992,-9030.512492,919.314598,0.000000
37.320302,-9474.636058,1838.629195,0.000000
37.320611,-9770.718434,1991.848295,-592.164754
37.320921,-9696.697840,1455.581446,0.000000
37.321230,-10288.862594,-0.000000,740.205942
37.321540,-9770.718434,995.924147,74.020594
37.321849,-9104.533087,1685.410096,74.020594
37.322159,-9474.636058,1455.581446,74.020594
37.322468,-8660.409521,4136.915689,-1110.308913
37.322777,-9104.533087,1838.629195,-370.102971
37.323087,-9770.718434,306.438199,518.144159
37.323396,-9992.780217,766.095498,-370.102971
37.323706,-9622.677246,1762.019645,-518.144159
37.324015,-9622.677246,-2451.505594,2072.576638
37.324325,-9030.512492,766.095498,-222.061783
37.324634,-8438.347739,1838.629195,0.000000
37.324944,-9178.553681,2068.457845,-518.144159
37.325253,-9474.636058,612.876398,222.061783
37.325563,-10584.944971,1149.143247,1184.329507
37.325872,-9770.718434,536.266849,370.102971
37.326181,-10214.842000,1455.581446,-148.041188
37.326491,-9474.636058,2068.457845,-814.226536
37.326800,-10066.800811,1762.019645,148.041188
37.327110,-9400.615463,1225.752797,148.041188
37.327419,-8956.491898,689.485948,148.041188
37.327729,-9104.533087,689.485948,296.082377
37.328038,-9326.594869,995.924147,0.000000
37.328348,-9030.512492,229.828649,-592.164754
37.328657,-9548.656652,1685.410096,-370.102971
37.328966,-10066.800811,1455.581446,0.000000
37.329276,-9400.615463,1302.362347,74.020594
37.329585,-9622.677246,4290.134789,222.061783
37.329895,-8882.471304,1762.019645,0.000000
37.330204,-8808.450710,1762.019645,-296.082377
37.330514,-9252.574275,1838.629195,-518.144159
37.330823,-9400.615463,995.924147,148.041188
37.331133,-10510.924376,-536.266849,74.020594
37.331442,-9400.615463,1302.362347,0.000000
37.331752,-10140.821405,1455.581446,74.020594
37.332061,-9400.615463,1378.971896,0.000000
37.332370,-9474.636058,1072.533697,74.020594
37.332680,-8364.327145,459.657299,-888.247130
37.332989,-9030.512492,1455.581446,-444.123565
37.333299,-9178.553681,919.314598,0.000000
37.333602,-9326.594869,766.095498,222.061783
37.333911,-9696.697840,-919.314598,-2368.659014
37.334221,-9326.594869,766.095498,0.000000
37.334530,-9474.636058,1455.581446,0.000000
37.334840,-9474.636058,1991.848295,-666.185348
37.335149,-9696.697840,1838.629195,148.041188
37.335459,-8882.471304,-842.705048,0.000000
37.335768,-9400.615463,689.485948,370.102971
37.336078,-9252.574275,1302.362347,-222.061783
37.336387,-9178.553681,1532.190996,0.000000
37.336697,-8956.491898,3217.601092,74.020594
37.337006,-9770.718434,2681.334243,-148.041188
37.337316,-9474.636058,1378.971896,0.000000
37.337625,-9770.718434,689.485948,-222.061783
37.337934,-9770.718434,1149.143247,222.061783
37.338244,-9400.615463,4213.525239,74.020594
37.338553,-9178.553681,1608.800546,0.000000
37.338863,-9178.553681,1762.019645,0.000000
37.339172,-8882.471304,1455.581446,0.000000
37.339482,-9474.636058,1762.019645,0.000000
37.339791,-10214.842000,2681.334243,-296.082377
37.340101,-9548.656652,1149.143247,74.020594
37.340410,-9918.759623,1149.143247,-222.061783
37.340720,-9400.615463,919.314598,148.041188
37.341029,-9770.718434,-153.219100,74.020594
37.341338,-9474.636058,2145.067394,148.041188
37.341648,-9104.533087,2145.067394,-296.082377
37.341957,-9474.636058,1072.533697,370.102971
37.342267,-9622.677246,459.657299,296.082377
37.342576,-11843.295072,1838.629195,-296.082377
37.342886,-9770.718434,2145.067394,-592.164754
37.343195,-9400.615463,1378.971896,-148.041188
37.343505,-9178.553681,612.876398,592.164754
37.343814,-9474.636058,3677.258390,296.082377
37.344124,-8660.409521,1302.362347,-296.082377
37.344433,-9844.739029,1915.238745,-296.082377
37.344742,-9548.656652,1302.362347,0.000000
37.345052,-9548.656652,1455.581446,-222.061783
37.345361,-9992.780217,-0.000000,888.247130
37.345671,-9770.718434,842.705048,0.000000
37.345980,-9326.594869,1378.971896,0.000000
37.346290,-9474.636058,1838.629195,0.000000
37.346599,-9400.615463,1608.800546,370.102971
37.346909,-8956.491898,2068.457845,74.020594
37.347218,-9474.636058,1225.752797,-370.102971
