#time,accel_x,accel_y,accel_z
125.280820,-0.000000,8956.491898,-995.924147
125.281129,-148.041188,8956.491898,-1378.971896
125.281439,296.082377,9030.512492,-1225.752797
125.281748,-370.102971,9474.636058,-1608.800546
125.282058,-0.000000,10066.800811,-1532.190996
125.282368,518.144159,9548.656652,-1378.971896
125.282677,-148.041188,8734.430116,-612.876398
125.282987,-0.000000,9326.594869,0.000000
125.283296,740.205942,8290.306550,-3983.696590
125.283606,740.205942,8512.368333,-3064.381992
125.283915,148.041188,10362.883188,-2451.505594
125.284225,-444.123565,10362.883188,0.000000
125.284535,222.061783,10140.821405,536.266849
125.284844,-74.020594,7772.162391,0.000000
125.285154,1628.453072,8660.409521,-1608.800546
125.285463,-0.000000,7846.182985,-2528.115143
125.285773,-0.000000,8808.450710,-1608.800546
125.286082,-962.267725,8734.430116,2757.943793
125.286392,296.082377,9326.594869,383.047749
125.286702,2072.576638,8956.491898,536.266849
125.287011,3182.885551,5551.544565,153.219100
125.287321,3627.009116,6439.791695,4136.915689
125.287630,1776.494261,8882.471304,7814.174080
125.287940,-1628.453072,5477.523971,11184.994271
125.288249,4885.359217,8734.430116,8427.050478
125.288559,5995.668130,7179.997637,3064.381992
125.288869,2368.659014,7476.080014,7737.564530
125.289178,-1998.556043,9252.574275,14402.595362
125.289488,148.041188,12805.562797,11108.384721
125.289797,1258.350101,10955.047942,4060.306139
125.290107,-296.082377,12657.521608,6818.249932
125.290416,1554.432478,11991.336260,9422.974625
125.290726,-15988.448347,6587.832884,11261.603821
125.291036,22280.198854,22798.343014,-7277.907231
125.291345,-11325.150913,5773.606348,6588.421283
125.291655,-11399.171507,13841.851115,27579.437928
125.291964,-6217.729913,11325.150913,21910.331243
125.292274,1924.535449,8068.244768,-4136.915689
125.292584,8364.327145,18061.024985,-4749.792088
125.292893,-17024.736666,4071.132681,14555.814462
125.293203,-0.000000,13397.727550,7354.516781
125.293512,-740.205942,3552.988522,1302.362347
125.293822,-4293.194464,7920.203579,8886.707777
125.294131,444.123565,3404.947333,18539.511052
125.294441,-518.144159,888.247130,10725.336972
125.294751,-1184.329507,11621.233289,15858.176809
125.295060,-962.267725,518.144159,17543.586904
125.295370,1628.453072,8882.471304,4903.011187
125.295679,-1258.350101,2812.782580,3140.991542
125.295989,1332.370696,16506.592507,7048.078582
125.296298,1924.535449,12361.439231,-919.314598
125.296608,5699.585753,13397.727550,1455.581446
125.296918,-962.267725,11251.130318,20607.968896
125.297227,-666.185348,6143.709319,23825.569988
125.297537,3478.967927,7698.141797,18999.168350
125.297846,-0.000000,5329.482782,10112.460574
125.298156,-0.000000,10658.965565,7431.126331
125.298465,6735.874072,13471.748144,-2911.162892
125.298775,6217.729913,15988.448347,-5515.887586
125.299085,-666.185348,13915.871710,11797.870669
125.299394,-9474.636058,13249.686362,22523.207641
125.299704,-2442.679609,9622.677246,10955.165621
125.300013,4441.235652,10066.800811,-3753.867940
125.300323,3923.091493,8290.306550,-6511.811733
125.300632,-148.041188,9030.512492,4060.306139
125.300942,-74.020594,10584.944971,14709.033562
125.301252,-222.061783,10214.842000,14632.424012
125.301561,1776.494261,6661.853478,8503.660028
125.301871,3182.885551,2368.659014,-1838.629195
125.302180,-5403.503377,962.267725,4366.744339
125.302490,-6809.894666,6513.812290,7201.297681
125.302799,3182.885551,9622.677246,-3600.648841
125.303109,9104.533087,8882.471304,-9729.412825
125.303419,2442.679609,8660.409521,6971.469032
125.303728,-9548.656652,6439.791695,25510.980083
125.304038,-3034.844362,9548.656652,19382.216099
125.304347,5847.626942,9326.594869,0.000000
125.304657,2738.761985,9548.656652,-4366.744339
125.304966,-5329.482782,10436.903782,4060.306139
125.305276,-6143.709319,13545.768739,76.609550
125.305586,7105.977043,15618.345376,-7737.564530
125.305895,6661.853478,13767.830521,1838.629195
125.306205,-3404.947333,8290.306550,21527.283494
125.306514,-888.247130,5107.421000,25127.932334
125.306824,5699.585753,4219.173869,9193.145976
125.307133,1480.411884,2368.659014,5745.716235
125.307443,-3923.091493,5033.400406,12334.137518
125.307753,3701.029710,-1554.432478,766.095498
125.308062,1628.453072,13545.768739,-7890.783629
125.308372,11399.171507,18505.148550,12870.404366
125.308681,-18653.189738,8290.306550,27426.218828
125.308991,3701.029710,15470.304188,17160.539155
125.309300,2368.659014,3701.029710,-689.485948
125.309610,1628.453072,11103.089130,-7507.735880
125.309920,-4589.276840,10214.842000,9269.755526
125.310229,3478.967927,17098.757260,6052.154434
125.310539,-1924.535449,11917.315666,3140.991542
125.310848,-74.020594,16432.571912,15858.176809
125.311158,-2590.720797,11251.130318,17237.148705
125.311467,-8216.285956,4811.338623,6588.421283
125.311777,3108.864956,16580.613101,6741.640382
125.312087,2664.741391,11029.068536,766.095498
125.312396,666.185348,8586.388927,-3983.696590
125.312706,-592.164754,12805.562797,14632.424012
125.313015,-2072.576638,15544.324782,14402.595362
125.313325,4441.235652,8216.285956,-766.095498
125.313635,3330.926739,11843.295072,8733.488677
125.313944,-7846.182985,8216.285956,27349.609279
125.314254,814.226536,2368.659014,15245.300410
125.314563,6587.832884,4589.276840,1225.752797
125.314873,-2146.597232,2368.659014,8580.269578
125.315182,740.205942,4737.318029,10495.508323
125.315492,2072.576638,8512.368333,3370.820191
125.315802,-5477.523971,11177.109724,10572.117872
125.316111,-3256.906145,14434.015869,14862.252661
125.316421,1110.308913,11325.150913,536.266849
125.316730,-296.082377,8586.388927,-3217.601092
125.317040,-10658.965565,6069.688724,8044.002729
125.317349,-6883.915261,8512.368333,10495.508323
125.317659,888.247130,11917.315666,0.000000
125.317969,5033.400406,15544.324782,-5209.449386
125.318278,2368.659014,14730.098246,919.314598
125.318588,-4737.318029,11399.171507,7048.078582
125.318897,-2664.741391,11547.212695,5132.839837
125.319207,-592.164754,10436.903782,1685.410096
125.319516,3478.967927,5773.606348,-6052.154434
125.319826,3108.864956,5329.482782,-8273.831378
125.320136,-5477.523971,4737.318029,-612.876398
125.320445,-3478.967927,8808.450710,3677.258390
125.320755,1628.453072,6957.935855,1378.971896
125.321064,8068.244768,8586.388927,-4366.744339
125.321374,3256.906145,5033.400406,2987.772442
125.321683,-6661.853478,4737.318029,11338.213370
125.321993,-0.000000,10066.800811,2604.724693
125.322303,7772.162391,7328.038826,-11108.384721
125.322612,8142.265362,14508.036463,-10955.165621
125.322922,-1924.535449,9104.533087,4519.963438
125.323231,-4441.235652,12731.542202,7967.393179
125.323541,2442.679609,11843.295072,3524.039291
125.323850,6809.894666,5847.626942,-2451.505594
125.324160,5107.421000,6809.894666,-1838.629195
125.324470,-7846.182985,5033.400406,8580.269578
125.324779,-2886.803174,15396.283594,383.047749
125.325089,8734.430116,12583.501014,-16317.834107
125.325398,7254.018232,13323.706956,-17160.539155
125.325708,-1628.453072,12953.603985,4519.963438
125.326017,-4737.318029,9918.759623,15168.690860
125.326327,6735.874072,13397.727550,-766.095498
125.326637,3108.864956,1998.556043,-3907.087040
125.326946,2368.659014,2368.659014,2987.772442
125.327256,-6883.915261,4219.173869,3294.210641
125.327565,1406.391290,9474.636058,-6358.592633
125.327875,4811.338623,12731.542202,-15475.129060
125.328184,370.102971,14434.015869,-9193.145976
125.328494,-2886.803174,8808.450710,306.438199
125.328804,-10881.027347,7772.162391,6205.373534
125.329113,592.164754,10732.986159,5439.278036
125.329423,6069.688724,2294.638420,-4060.306139
125.329732,1628.453072,9104.533087,-2145.067394
125.330042,-8660.409521,5107.421000,12257.527968
125.330351,-4071.132681,9252.574275,4903.011187
125.330661,6735.874072,16358.551318,-16624.272307
125.330971,1184.329507,14582.057057,-8120.612279
125.331280,-7402.059420,15840.407159,10648.727422
125.331590,-4441.235652,12657.521608,5362.668486
125.331899,2812.782580,9474.636058,-1685.410096
125.332209,2886.803174,4589.276840,2068.457845
125.332518,2368.659014,8364.327145,6588.421283
125.332828,-4737.318029,4071.132681,5362.668486
125.333138,1036.288319,9844.739029,0.000000
125.333447,3182.885551,14359.995275,-8733.488677
125.333757,4515.256246,7105.977043,-9422.974625
125.334066,-3034.844362,11917.315666,7124.688131
125.334376,-7698.141797,7476.080014,11568.042020
125.334686,5921.647536,6883.915261,-4826.401637
125.334995,4811.338623,2738.761985,-4519.963438
125.335305,-3552.988522,6809.894666,8810.098227
125.335614,-6217.729913,6439.791695,11414.822920
125.335924,4885.359217,11769.274478,-7814.174080
125.336234,3330.926739,17320.819043,-13866.328514
125.336543,-666.185348,10732.986159,-2068.457845
125.336853,-7179.997637,14804.118840,3677.258390
125.337162,-1184.329507,11843.295072,-1225.752797
125.337472,5329.482782,11695.253884,1455.581446
125.337782,-1036.288319,9622.677246,2911.162892
125.338091,-2072.576638,10807.006753,11108.384721
125.338401,-2220.617826,12139.377449,4673.182538
125.338710,3701.029710,10140.821405,-12487.356617
125.339020,2516.700203,15692.365970,-17620.196454
125.339330,-4737.318029,8734.430116,-689.485948
125.339639,-4885.359217,9548.656652,3064.381992
125.339949,962.267725,5181.441594,-229.828649
125.340259,4145.153275,3404.947333,-2298.286494
125.340568,1406.391290,-370.102971,2604.724693
125.340878,-5477.523971,4367.215058,12563.966167
125.341187,1332.370696,8216.285956,4213.525239
125.341497,5773.606348,10658.965565,-14938.862211
125.341807,3627.009116,9622.677246,-15245.300410
125.342116,-5551.544565,6957.935855,1685.410096
125.342426,-5033.400406,9770.718434,3677.258390
125.342735,1628.453072,8586.388927,-2145.067394
125.343045,666.185348,7031.956449,306.438199
125.343355,4959.379811,6883.915261,3447.429741
125.343664,148.041188,7846.182985,6358.592633
125.343974,-1480.411884,8586.388927,2987.772442
125.344283,5699.585753,15396.283594,-8120.612279
125.344593,3627.009116,12879.583391,-8273.831378
125.344903,-2738.761985,15322.262999,-1991.848295
125.345212,-2960.823768,14952.160028,2221.676944
125.345522,2516.700203,14063.912898,-5745.716235
125.345832,148.041188,9844.739029,-2451.505594
125.346141,-740.205942,9326.594869,7354.516781
125.346451,3108.864956,7476.080014,5745.716235
125.346760,-1628.453072,8216.285956,-1915.238745
125.347070,1998.556043,12139.377449,-5975.544884
125.347380,1332.370696,8956.491898,-7431.126331
125.347689,888.247130,10881.027347,-7737.564530
125.347999,-5255.462188,8956.491898,-3217.601092
125.348308,-2590.720797,6291.750507,1225.752797
125.348618,-1332.370696,2960.823768,1685.410096
125.348928,3330.926739,1702.473667,2068.457845
125.349237,-1406.391290,4293.194464,5898.935335
125.349547,-5551.544565,3997.112087,4979.620737
125.349857,3775.050304,12731.542202,-7354.516781
125.350166,2812.782580,8956.491898,-11721.261119
125.350476,-2368.659014,11991.336260,-6128.763984
125.350785,-5773.606348,10436.903782,3064.381992
125.351095,-222.061783,11917.315666,306.438199
125.351405,1628.453072,9474.636058,-153.219100
125.351714,1036.288319,7402.059420,5898.935335
125.352024,888.247130,10658.965565,6971.469032
125.352333,-4885.359217,6587.832884,3753.867940
125.352643,4219.173869,13101.645173,-6511.811733
125.352953,3330.926739,11695.253884,-12640.575717
125.353262,-888.247130,16950.716072,-5515.887586
125.353572,-7476.080014,13915.871710,3600.648841
125.353881,592.164754,14952.160028,919.314598
125.354191,592.164754,6661.853478,-2145.067394
125.354501,2812.782580,6513.812290,3140.991542
125.354810,-2072.576638,6587.832884,7890.783629
125.355120,-4367.215058,3552.988522,3677.258390
125.355430,5329.482782,10955.047942,-7201.297681
125.355739,1850.514855,11029.068536,-11184.994271
125.356049,-1628.453072,11103.089130,-2451.505594
125.356358,-7624.121203,12287.418637,3294.210641
125.356668,-3701.029710,8364.327145,-2757.943793
125.356978,5107.421000,4071.132681,-5592.497135
125.357287,3034.844362,3404.947333,3830.477490
125.357597,-5255.462188,8512.368333,9576.193725
125.357906,-1998.556043,7105.977043,7507.735880
125.358216,3997.112087,13619.789333,-3370.820191
125.358526,7994.224174,11103.089130,-9652.803275
125.358835,-1184.329507,14285.974681,-2834.553343
125.359145,-10732.986159,13249.686362,5132.839837
125.359454,1110.308913,14656.077652,-3677.258390
125.359764,7994.224174,9622.677246,-10189.070123
125.360074,592.164754,5625.565159,1225.752797
125.360383,-4737.318029,3997.112087,13636.499864
125.360693,666.185348,8364.327145,5286.058936
125.361003,8068.244768,9992.780217,-9193.145976
125.361312,3330.926739,9400.615463,-5669.106685
125.361622,-5403.503377,11399.171507,4366.744339
125.361931,-2812.782580,8290.306550,-2911.162892
125.362241,5403.503377,11103.089130,-11797.870669
125.362551,3034.844362,6069.688724,-6741.640382
125.362860,592.164754,7105.977043,6358.592633
125.363170,-4663.297435,6069.688724,8350.440928
125.363479,-296.082377,7179.997637,1838.629195
125.363789,6809.894666,9696.697840,-7967.393179
125.364099,3478.967927,10436.903782,-8580.269578
125.364408,-6883.915261,13471.748144,1072.533697
125.364718,-5477.523971,10510.924376,842.705048
125.365028,5921.647536,12879.583391,-11568.042020
125.365337,5847.626942,9622.677246,-11108.384721
125.365647,-4811.338623,7772.162391,9806.022374
125.365956,-5477.523971,7550.100608,13636.499864
125.366266,2146.597232,7179.997637,-4826.401637
125.366576,6957.935855,9030.512492,-11184.994271
125.366885,-1702.473667,10436.903782,-2068.457845
125.367195,-5699.585753,13693.809927,-459.657299
125.367504,-4515.256246,15248.242405,-6741.640382
125.367814,1480.411884,10881.027347,-12793.794817
125.368124,2220.617826,5033.400406,-5669.106685
125.368433,-4145.153275,4219.173869,8963.317327
125.368743,-5773.606348,3404.947333,10495.508323
125.369052,148.041188,7846.182985,-2298.286494
125.369362,5255.462188,7105.977043,-10418.898773
125.369672,-592.164754,9252.574275,-4903.011187
125.369981,-5033.400406,12657.521608,612.876398
125.370291,-0.000000,11695.253884,-5439.278036
125.370601,2442.679609,12879.583391,-9959.241474
125.370910,1406.391290,7772.162391,229.828649
125.371220,-3478.967927,7698.141797,9346.365076
125.371529,-2738.761985,3701.029710,5515.887586
125.371839,-444.123565,10140.821405,-1455.581446
125.372149,4589.276840,13471.748144,-7354.516781
125.372458,888.247130,9474.636058,-4673.182538
125.372768,-3701.029710,15692.365970,-1225.752797
125.373077,-1258.350101,14582.057057,-6358.592633
125.373387,4441.235652,14582.057057,-9576.193725
125.373697,-518.144159,8438.347739,1225.752797
125.374006,-4219.173869,7328.038826,9346.365076
125.374316,-1110.308913,3997.112087,3140.991542
125.374626,74.020594,9030.512492,-6205.373534
125.374935,5255.462188,8364.327145,-6128.763984
125.375245,-1998.556043,9400.615463,-3524.039291
125.375554,-3849.070898,12139.377449,-1915.238745
125.375864,-444.123565,10362.883188,-5975.544884
125.376174,1776.494261,8438.347739,-10725.336972
125.376483,-814.226536,6069.688724,-229.828649
125.376793,-7550.100608,5329.482782,10725.336972
125.377102,-296.082377,5699.585753,2528.115143
125.377412,4811.338623,8438.347739,-5515.887586
125.377722,3997.112087,10066.800811,-4979.620737
125.378031,-1480.411884,10955.047942,153.219100
125.378341,-74.020594,12139.377449,-689.485948
125.378650,2368.659014,12213.398043,-4443.353888
125.378960,6143.709319,10288.862594,1302.362347
125.379270,1850.514855,12213.398043,1149.143247
125.379579,-4219.173869,9770.718434,3217.601092
125.379889,-888.247130,11621.233289,3524.039291
125.380199,3627.009116,13101.645173,-5132.839837
125.380508,6069.688724,10510.924376,-10342.289223
125.380818,1110.308913,14285.974681,-2298.286494
125.381127,-3997.112087,11399.171507,4903.011187
125.381437,740.205942,9992.780217,-2145.067394
125.381747,4145.153275,4811.338623,-5592.497135
125.382056,962.267725,4885.359217,1149.143247
125.382366,-4441.235652,5477.523971,4366.744339
125.382675,-2072.576638,4811.338623,1608.800546
125.382985,1776.494261,10658.965565,-4443.353888
125.383295,2516.700203,9326.594869,-9806.022374
125.383604,-1332.370696,8808.450710,-2451.505594
125.383914,-8364.327145,9696.697840,2298.286494
125.384223,-222.061783,9770.718434,-3524.039291
125.384533,2368.659014,6513.812290,-6511.811733
125.384843,-0.000000,8364.327145,-1608.800546
125.385152,-7624.121203,9622.677246,5898.935335
125.385462,-1702.473667,7994.224174,1685.410096
125.385772,3923.091493,13619.789333,-7354.516781
125.386081,2960.823768,14137.933492,-4366.744339
125.386391,-1850.514855,13619.789333,1685.410096
125.386700,-3849.070898,10510.924376,-459.657299
125.387010,888.247130,9474.636058,-6205.373534
125.387320,3478.967927,8512.368333,-6128.763984
125.387629,-2294.638420,6587.832884,-306.438199
125.387939,-3256.906145,9104.533087,4596.572988
125.388248,-2294.638420,9474.636058,1532.190996
125.388558,5255.462188,10436.903782,-6818.249932
125.388868,3256.906145,9548.656652,-11568.042020
125.389177,-4071.132681,11399.171507,-1149.143247
125.389487,-3997.112087,8734.430116,3217.601092
125.389797,1924.535449,8586.388927,-6665.030833
125.390106,5477.523971,6069.688724,-8350.440928
125.390416,-4293.194464,7105.977043,1225.752797
125.390725,-4515.256246,6217.729913,7660.954980
125.391035,1258.350101,9474.636058,-4366.744339
125.391345,2220.617826,8586.388927,-8350.440928
125.391654,1628.453072,7994.224174,-4673.182538
125.391964,-3034.844362,7846.182985,-459.657299
125.392273,-370.102971,6809.894666,-1532.190996
125.392583,-1332.370696,10658.965565,-612.876398
125.392893,2886.803174,7328.038826,76.609550
125.393202,1554.432478,7254.018232,2221.676944
125.393512,-4737.318029,9770.718434,7048.078582
125.393821,1184.329507,13397.727550,-995.924147
125.394131,5107.421000,9992.780217,-12870.404366
125.394441,666.185348,11621.233289,-8350.440928
125.394750,-1480.411884,13471.748144,5669.106685
125.395060,222.061783,9548.656652,1072.533697
125.395370,3108.864956,11991.336260,-4213.525239
125.395679,1628.453072,7179.997637,-1455.581446
125.395989,-1702.473667,5625.565159,3983.696590
125.396298,-4589.276840,4071.132681,7584.345430
125.396608,-1110.308913,10140.821405,-1608.800546
125.396918,6069.688724,8290.306550,-11721.261119
125.397227,2812.782580,8586.388927,-9806.022374
125.397537,-3997.112087,12657.521608,306.438199
125.397846,-3923.091493,7476.080014,3907.087040
125.398156,5921.647536,9770.718434,-3217.601092
125.398466,2812.782580,6143.709319,-995.924147
125.398775,-3330.926739,6439.791695,10725.336972
125.399085,-5329.482782,8438.347739,9499.584175
125.399394,2738.761985,12435.459826,-10112.460574
125.399704,6735.874072,13545.768739,-15704.957709
125.400014,-1332.370696,12509.480420,-5056.230287
125.400323,-5329.482782,15618.345376,-766.095498
125.400633,1628.453072,10066.800811,306.438199
125.400943,3701.029710,14063.912898,383.047749
125.401252,1110.308913,6513.812290,3370.820191
125.401562,-4737.318029,5551.544565,9729.412825
125.401871,-222.061783,9548.656652,3983.696590
125.402181,2664.741391,9622.677246,-9806.022374
125.402491,9030.512492,11917.315666,-18539.511052
125.402800,-3404.947333,11843.295072,-6511.811733
125.403110,-6809.894666,10510.924376,8427.050478
125.403419,518.144159,11399.171507,1225.752797
125.403729,4293.194464,7105.977043,-6128.763984
125.404039,-0.000000,4515.256246,3064.381992
125.404348,-8512.368333,3627.009116,14249.376263
125.404658,1998.556043,10288.862594,-3524.039291
125.404968,5255.462188,11325.150913,-18462.901502
125.405277,3775.050304,10362.883188,-11184.994271
125.405587,-4515.256246,10584.944971,1685.410096
125.405896,-4145.153275,11029.068536,1838.629195
125.406206,888.247130,10955.047942,-1072.533697
125.406516,-592.164754,10584.944971,1532.190996
125.406825,370.102971,8290.306550,2834.553343
125.407135,-1998.556043,8142.265362,3907.087040
125.407444,-2368.659014,11843.295072,-1455.581446
125.407754,3552.988522,11843.295072,-11491.432470
125.408064,2368.659014,13175.665768,-9729.412825
125.408373,-2664.741391,11843.295072,-383.047749
125.408683,-3256.906145,12139.377449,2451.505594
125.408992,-666.185348,13249.686362,2298.286494
125.409302,3627.009116,7328.038826,-1685.410096
125.409612,-740.205942,5329.482782,1532.190996
125.409921,-3256.906145,6587.832884,4903.011187
125.410231,962.267725,9326.594869,-3140.991542
125.410541,5773.606348,14285.974681,-12870.404366
125.410850,1406.391290,12139.377449,-8350.440928
125.411160,-6809.894666,9178.553681,2681.334243
125.411469,-1184.329507,7105.977043,1455.581446
125.411779,2664.741391,6513.812290,-689.485948
125.412089,-444.123565,7772.162391,76.609550
125.412398,518.144159,3182.885551,6741.640382
125.412708,1554.432478,9918.759623,4903.011187
125.413017,1554.432478,9844.739029,-3447.429741
125.413327,4737.318029,11843.295072,-4903.011187
125.413637,-0.000000,11177.109724,-4060.306139
125.413946,-3997.112087,11621.233289,-1302.362347
125.414256,1628.453072,14137.933492,-4979.620737
125.414566,74.020594,10732.986159,-5515.887586
125.414875,3775.050304,9400.615463,-459.657299
125.415185,-1110.308913,8808.450710,7201.297681
125.415494,2072.576638,5773.606348,8886.707777
125.415804,-0.000000,8068.244768,0.000000
125.416114,1406.391290,8290.306550,-7660.954980
125.416423,3330.926739,7624.121203,-8044.002729
125.416733,-1628.453072,10362.883188,-6894.859482
125.417042,-1628.453072,9844.739029,-3983.696590
125.417352,-0.000000,10807.006753,-1532.190996
125.417662,3997.112087,5847.626942,459.657299
125.417971,-3997.112087,5255.462188,5286.058936
125.418281,-74.020594,7994.224174,8733.488677
125.418590,-1184.329507,7624.121203,-1532.190996
125.418900,3997.112087,10436.903782,-10648.727422
125.419210,3849.070898,11399.171507,-9806.022374
125.419519,-3775.050304,10140.821405,-4673.182538
125.419829,-1850.514855,7105.977043,459.657299
125.420139,-222.061783,11769.274478,2221.676944
125.420448,3108.864956,10955.047942,1915.238745
125.420758,-1480.411884,8660.409521,7124.688131
125.421067,-2960.823768,7328.038826,9959.241474
125.421377,-0.000000,6069.688724,-4749.792088
125.421687,5477.523971,9770.718434,-17160.539155
125.421996,-444.123565,10362.883188,-9806.022374
125.422306,-4367.215058,11917.315666,-459.657299
125.422615,-3182.885551,15470.304188,153.219100
125.422925,962.267725,12953.603985,-459.657299
125.423235,1850.514855,7846.182985,2757.943793
125.423544,-1776.494261,5477.523971,5362.668486
125.423854,-3108.864956,3330.926739,4903.011187
125.424163,-296.082377,7105.977043,-2145.067394
125.424473,5995.668130,7772.162391,-11491.432470
125.424783,1110.308913,11029.068536,-9806.022374
125.425092,-5181.441594,12805.562797,1608.800546
125.425402,-2072.576638,9252.574275,2145.067394
125.425712,-1332.370696,9992.780217,-1608.800546
125.426021,1110.308913,8956.491898,4519.963438
125.426331,148.041188,3775.050304,4826.401637
125.426640,-0.000000,8956.491898,3140.991542
125.426950,1924.535449,10214.842000,-2757.943793
125.427260,740.205942,9326.594869,-6358.592633
125.427569,1110.308913,11547.212695,-4596.572988
125.427879,-2516.700203,13101.645173,1991.848295
125.428188,-2664.741391,15026.180623,2145.067394
125.428498,3552.988522,14285.974681,-4136.915689
125.428808,1776.494261,7624.121203,-5056.230287
125.429117,-962.267725,6587.832884,2987.772442
125.429427,222.061783,8142.265362,7277.907231
125.429737,-2294.638420,7994.224174,-1762.019645
125.430046,3627.009116,10362.883188,-6052.154434
125.430356,3404.947333,9770.718434,-7814.174080
125.430665,-2294.638420,9252.574275,-995.924147
125.430975,-4737.318029,11325.150913,3600.648841
125.431285,2960.823768,9992.780217,-1838.629195
125.431594,4219.173869,8216.285956,-7737.564530
125.431904,1554.432478,7846.182985,5745.716235
125.432213,-5699.585753,7994.224174,11414.822920
125.432523,-1480.411884,10510.924376,-153.219100
125.432833,8512.368333,9030.512492,-10572.117872
125.433142,-74.020594,8956.491898,-6894.859482
125.433452,-6439.791695,10881.027347,5056.230287
125.433761,-1850.514855,11695.253884,919.314598
125.434071,3997.112087,10881.027347,-7431.126331
125.434381,4811.338623,9918.759623,-2757.943793
125.434690,-1036.288319,9548.656652,7124.688131
125.435000,-2738.761985,7846.182985,6435.202183
125.435310,3775.050304,8956.491898,-3830.477490
125.435619,7179.997637,9474.636058,-8503.660028
125.435929,-4293.194464,8956.491898,-1225.752797
125.436238,-2220.617826,9770.718434,5056.230287
125.436548,-0.000000,14211.954086,-4290.134789
125.436858,5625.565159,9548.656652,-9652.803275
125.437167,-74.020594,8660.409521,-306.438199
125.437477,-4441.235652,5107.421000,15168.690860
125.437786,-1702.473667,5995.668130,5515.887586
125.438096,3478.967927,8364.327145,-6894.859482
125.438406,3849.070898,4737.318029,-8120.612279
125.438715,-2590.720797,10658.965565,383.047749
125.439025,-4145.153275,13619.789333,4213.525239
125.439334,-1184.329507,11325.150913,-6818.249932
125.439644,5921.647536,10436.903782,-6435.202183
125.439953,-3182.885551,8882.471304,2528.115143
125.440263,-5921.647536,6957.935855,13176.842566
125.440573,1776.494261,10066.800811,2528.115143
125.440882,4071.132681,7772.162391,-8963.317327
125.441192,3182.885551,8808.450710,-6511.811733
125.441501,-4367.215058,6883.915261,2451.505594
125.441811,-2368.659014,10584.944971,5439.278036
125.442120,1332.370696,14656.077652,-3677.258390
125.442430,4145.153275,13101.645173,-6894.859482
125.442740,-2294.638420,8734.430116,306.438199
125.443049,-2960.823768,9696.697840,6894.859482
125.443359,370.102971,10288.862594,-995.924147
125.443668,3552.988522,7550.100608,-8273.831378
125.443978,2220.617826,9400.615463,-3753.867940
125.444288,-4293.194464,8956.491898,2987.772442
125.444597,-3182.885551,10732.986159,6435.202183
125.444907,1776.494261,11251.130318,-4903.011187
125.445216,6069.688724,7031.956449,-8044.002729
125.445526,-3256.906145,9178.553681,919.314598
125.445835,-5403.503377,5995.668130,7967.393179
125.446145,1998.556043,5921.647536,-536.266849
125.446455,3997.112087,8290.306550,-7507.735880
125.446764,1554.432478,9992.780217,-1991.848295
125.447074,-5995.668130,7624.121203,3677.258390
125.447383,-0.000000,9474.636058,383.047749
125.447693,814.226536,12879.583391,-7048.078582
125.448002,3775.050304,11251.130318,-4060.306139
125.448312,-3627.009116,9474.636058,3524.039291
125.448622,-2146.597232,10214.842000,7277.907231
125.448931,-1702.473667,12287.418637,-1149.143247
125.449241,3627.009116,9548.656652,-10572.117872
125.449550,888.247130,10214.842000,-6052.154434
125.449860,-3552.988522,10510.924376,1685.410096
125.450170,-0.000000,9326.594869,383.047749
125.450479,2368.659014,9548.656652,-1685.410096
125.450789,3034.844362,8660.409521,383.047749
125.451098,-2368.659014,8142.265362,4136.915689
125.451408,-1480.411884,6587.832884,4596.572988
125.451717,814.226536,8956.491898,-2911.162892
125.452027,4145.153275,8586.388927,-9729.412825
125.452337,1110.308913,12213.398043,-7048.078582
125.452646,-2368.659014,10436.903782,1378.971896
125.452956,-370.102971,7254.018232,919.314598
125.453265,-222.061783,10881.027347,-2145.067394
125.453575,2664.741391,11473.192101,2604.724693
125.453885,-2812.782580,9400.615463,2911.162892
125.454194,1628.453072,9252.574275,612.876398
125.454504,1406.391290,10214.842000,-3830.477490
125.454813,3256.906145,11029.068536,-4979.620737
125.455123,444.123565,9326.594869,-3370.820191
125.455432,-1998.556043,11399.171507,306.438199
125.455742,-2220.617826,11843.295072,2681.334243
125.456052,1184.329507,9992.780217,-3677.258390
125.456361,2368.659014,9400.615463,-4213.525239
125.456671,-1850.514855,7846.182985,3370.820191
125.456980,1332.370696,7920.203579,3217.601092
125.457290,-4441.235652,10066.800811,-4673.182538
125.457599,2220.617826,10362.883188,-4903.011187
125.457909,-148.041188,8512.368333,-2834.553343
125.458219,1036.288319,9474.636058,-1915.238745
125.458528,-1998.556043,10807.006753,1455.581446
125.458838,-2516.700203,7772.162391,-1225.752797
125.459147,3256.906145,7179.997637,-3677.258390
125.459457,-2738.761985,8808.450710,536.266849
125.459767,-0.000000,7402.059420,4596.572988
125.460076,-2886.803174,10510.924376,-3983.696590
125.460386,4737.318029,7105.977043,-13023.623466
125.460695,-1036.288319,7920.203579,-3140.991542
125.461005,-2294.638420,8808.450710,3524.039291
125.461314,-444.123565,9918.759623,3907.087040
125.461624,1702.473667,9622.677246,1991.848295
125.461934,2886.803174,9548.656652,-766.095498
125.462243,-2368.659014,6661.853478,2221.676944
125.462553,-296.082377,12361.439231,4596.572988
125.462862,-2516.700203,14285.974681,-4060.306139
125.463172,6883.915261,11991.336260,-17083.929605
125.463482,-148.041188,11325.150913,-7584.345430
125.463791,-5477.523971,9918.759623,5362.668486
125.464101,-3701.029710,11991.336260,4519.963438
125.464410,3627.009116,9400.615463,-2451.505594
125.464720,3330.926739,7698.141797,-4136.915689
125.465029,-2146.597232,6291.750507,5439.278036
125.465339,-4219.173869,5181.441594,8273.831378
125.465649,-2590.720797,9030.512492,-3217.601092
125.465958,7698.141797,9178.553681,-13942.938064
125.466268,-1258.350101,12361.439231,-10572.117872
125.466577,-6291.750507,10584.944971,6511.811733
125.466887,444.123565,9844.739029,4443.353888
125.467196,4515.256246,7179.997637,-5975.544884
125.467506,2368.659014,8734.430116,229.828649
125.467816,-7328.038826,5181.441594,12334.137518
125.468125,-3330.926739,8438.347739,6205.373534
125.468435,5181.441594,11917.315666,-12410.747068
125.468744,5403.503377,12287.418637,-14325.985813
125.469054,-3552.988522,13989.892304,-612.876398
125.469364,-4441.235652,13397.727550,4596.572988
125.469673,1406.391290,13249.686362,-2145.067394
125.469983,4219.173869,10362.883188,-5592.497135
125.470292,-74.020594,11695.253884,3064.381992
125.470602,-2664.741391,4959.379811,11261.603821
125.470911,-962.267725,7031.956449,1838.629195
125.471221,888.247130,8808.450710,-12334.137518
125.471531,4145.153275,7772.162391,-9959.241474
125.471840,222.061783,10436.903782,-4903.011187
125.472150,-2812.782580,8956.491898,1762.019645
125.472459,-666.185348,10658.965565,919.314598
125.472769,2442.679609,7698.141797,-1302.362347
125.473078,-0.000000,5477.523971,-995.924147
125.473388,-2294.638420,5921.647536,6894.859482
125.473698,-1776.494261,8808.450710,0.000000
125.474007,2664.741391,10436.903782,-12487.356617
125.474317,5181.441594,11177.109724,-8886.707777
125.474626,-4145.153275,11399.171507,995.924147
125.474936,-2294.638420,12213.398043,3140.991542
125.475246,1406.391290,11843.295072,-766.095498
125.475555,3034.844362,7920.203579,-842.705048
125.475865,-1850.514855,7328.038826,3677.258390
125.476174,222.061783,5699.585753,6588.421283
125.476484,-3552.988522,9178.553681,0.000000
125.476793,2886.803174,7846.182985,-9039.926876
125.477103,1998.556043,11547.212695,-8886.707777
125.477413,-4737.318029,11917.315666,2834.553343
125.477722,-2886.803174,11991.336260,2757.943793
125.478032,1258.350101,12213.398043,-383.047749
125.478341,3404.947333,8068.244768,-3677.258390
125.478651,-518.144159,7105.977043,1532.190996
125.478961,-7105.977043,4737.318029,8580.269578
125.479270,-2294.638420,5477.523971,-306.438199
125.479580,3849.070898,8216.285956,-10955.165621
125.479889,2886.803174,11843.295072,-7890.783629
125.480199,-5181.441594,9770.718434,383.047749
125.480508,-2590.720797,10362.883188,1302.362347
125.480818,740.205942,11547.212695,-6128.763984
125.481128,2516.700203,5551.544565,-3830.477490
125.481437,-3923.091493,7105.977043,6281.983084
125.481747,-2220.617826,4219.173869,15551.738609
125.482056,592.164754,8734.430116,0.000000
125.482366,5107.421000,9844.739029,-7277.907231
125.482675,-1406.391290,10658.965565,-4903.011187
125.482985,-2886.803174,13619.789333,-1378.971896
125.483295,-4737.318029,13767.830521,-3370.820191
125.483604,3997.112087,16654.633695,-10955.165621
125.483914,1850.514855,10436.903782,-4673.182538
125.484223,-4145.153275,9548.656652,7814.174080
125.484533,-74.020594,3627.009116,10648.727422
125.484843,962.267725,7105.977043,-2451.505594
125.485152,1332.370696,9326.594869,-4596.572988
125.485462,-1184.329507,6513.812290,-3447.429741
125.485771,-0.000000,9474.636058,-5209.449386
125.486081,-1998.556043,13323.706956,-2911.162892
125.486390,1110.308913,12879.583391,-5056.230287
125.486700,2516.700203,6291.750507,-766.095498
125.487010,-4219.173869,7994.224174,6818.249932
125.487319,-2442.679609,5477.523971,7660.954980
125.487629,-1332.370696,5625.565159,-2681.334243
125.487938,2442.679609,8290.306550,-7354.516781
125.488248,-888.247130,11547.212695,-6971.469032
125.488558,-222.061783,12583.501014,-4903.011187
125.488867,296.082377,14508.036463,-1915.238745
125.489177,518.144159,12361.439231,-4366.744339
125.489486,148.041188,6439.791695,1455.581446
125.489796,-3330.926739,7698.141797,7967.393179
125.490105,-370.102971,4737.318029,6741.640382
125.490415,592.164754,9474.636058,-1991.848295
125.490725,2516.700203,7105.977043,-8350.440928
125.491034,-2072.576638,12287.418637,-8044.002729
125.491344,1628.453072,13101.645173,-6128.763984
125.491653,-1110.308913,12731.542202,-919.314598
125.491963,296.082377,13397.727550,-1072.533697
125.492272,962.267725,5477.523971,2451.505594
125.492582,-2442.679609,2812.782580,5822.325785
125.492892,-666.185348,3701.029710,5515.887586
125.493201,-1850.514855,7550.100608,-3140.991542
125.493511,5181.441594,9252.574275,-9422.974625
125.493820,-296.082377,11695.253884,-9729.412825
125.494130,-296.082377,11843.295072,-2145.067394
125.494440,-2516.700203,14730.098246,0.000000
125.494749,962.267725,9400.615463,-4749.792088
125.495059,2516.700203,6587.832884,-919.314598
125.495368,-5107.421000,5773.606348,8120.612279
125.495678,-1406.391290,7846.182985,8273.831378
125.495987,1850.514855,8142.265362,-6128.763984
125.496297,7105.977043,9252.574275,-9576.193725
125.496607,-518.144159,11843.295072,-6052.154434
125.496916,-4737.318029,12435.459826,1762.019645
125.497226,-2886.803174,15100.201217,536.266849
125.497535,2294.638420,13915.871710,-5132.839837
125.497845,-740.205942,8438.347739,-5056.230287
125.498155,-1850.514855,4959.379811,8580.269578
125.498464,-2960.823768,5033.400406,6818.249932
125.498774,2294.638420,7846.182985,-5056.230287
125.499083,6883.915261,7994.224174,-7507.735880
125.499393,-2738.761985,9178.553681,-3907.087040
125.499702,-2664.741391,11103.089130,2987.772442
125.500012,-1702.473667,13915.871710,459.657299
125.500322,3330.926739,10658.965565,-12257.527968
125.500631,1258.350101,6735.874072,-6971.469032
125.500941,-5477.523971,5773.606348,7737.564530
125.501250,-2442.679609,5255.462188,6205.373534
125.501560,4367.215058,10362.883188,-8273.831378
125.501869,6143.709319,9548.656652,-8044.002729
125.502179,-6069.688724,9548.656652,3217.601092
125.502489,-3404.947333,12287.418637,5669.106685
125.502798,-0.000000,14211.954086,-5822.325785
125.503108,4663.297435,12213.398043,-12257.527968
125.503417,-740.205942,7254.018232,-3217.601092
125.503727,-1628.453072,5921.647536,5439.278036
125.504037,-666.185348,6661.853478,6128.763984
125.504346,2072.576638,10362.883188,-2374.896044
125.504656,4367.215058,7698.141797,-5975.544884
125.504965,-4885.359217,7550.100608,2528.115143
125.505275,-4441.235652,13619.789333,4979.620737
125.505584,3997.112087,14952.160028,-10418.898773
125.505894,6291.750507,9104.533087,-16011.395908
125.506204,-3701.029710,7550.100608,1838.629195
125.506513,-5329.482782,5995.668130,11874.480219
125.506823,1406.391290,5181.441594,3140.991542
125.507132,2960.823768,8068.244768,-3830.477490
125.507442,3108.864956,7031.956449,-612.876398
125.507751,-2960.823768,9770.718434,-689.485948
125.508061,-2368.659014,11547.212695,-842.705048
125.508371,-1110.308913,14508.036463,-9039.926876
125.508680,6735.874072,11325.150913,-12334.137518
125.508990,-2368.659014,10584.944971,0.000000
125.509299,-4885.359217,8364.327145,12793.794817
125.509609,518.144159,5847.626942,5209.449386
125.509919,6735.874072,5625.565159,-6052.154434
125.510228,1258.350101,8734.430116,-4903.011187
125.510538,-5181.441594,11103.089130,4673.182538
125.510847,1036.288319,12657.521608,-536.266849
125.511157,962.267725,15618.345376,-13483.280765
125.511466,6957.935855,13619.789333,-11031.775171
125.511776,-7105.977043,12657.521608,2834.553343
125.512086,-4959.379811,8216.285956,10035.851024
125.512395,2812.782580,7994.224174,1378.971896
125.512705,4293.194464,5921.647536,-7814.174080
125.513014,-0.000000,7846.182985,-1302.362347
125.513324,-2886.803174,6365.771101,5132.839837
125.513634,3256.906145,12065.356855,-4290.134789
125.513943,1776.494261,12953.603985,-7967.393179
125.514253,1184.329507,12139.377449,-3370.820191
125.514562,-7179.997637,8586.388927,-229.828649
125.514872,-0.000000,3997.112087,6588.421283
125.515181,-3034.844362,7994.224174,-306.438199
125.515491,3552.988522,7476.080014,-8886.707777
125.515801,3182.885551,7550.100608,-4903.011187
125.516110,-5329.482782,9178.553681,2911.162892
125.516420,-518.144159,13471.748144,229.828649
125.516729,4737.318029,13767.830521,-8044.002729
125.517039,1998.556043,10436.903782,-2987.772442
125.517348,-4885.359217,10140.821405,8197.221829
125.517658,-1406.391290,7402.059420,4826.401637
125.517968,962.267725,9400.615463,-7584.345430
125.518277,2146.597232,9770.718434,-8580.269578
125.518587,-962.267725,9696.697840,-1838.629195
125.518896,-1036.288319,11473.192101,-383.047749
125.519206,-370.102971,9918.759623,-383.047749
125.519516,1776.494261,13249.686362,-4213.525239
125.519825,1776.494261,7920.203579,-4290.134789
125.520135,-4367.215058,7328.038826,3140.991542
125.520444,-666.185348,8586.388927,3524.039291
125.520754,1258.350101,5329.482782,-5515.887586
125.521063,3997.112087,9548.656652,-8656.879127
125.521373,-1110.308913,9622.677246,76.609550
125.521683,-4071.132681,10066.800811,-612.876398
125.521992,-518.144159,11917.315666,-612.876398
125.522302,1110.308913,11991.336260,-6281.983084
125.522611,814.226536,8956.491898,-3753.867940
125.522921,-3997.112087,8438.347739,2911.162892
125.523231,296.082377,8364.327145,306.438199
125.523540,-1110.308913,7920.203579,-6052.154434
125.523850,3478.967927,8882.471304,-5439.278036
125.524159,-1258.350101,8882.471304,1685.410096
125.524469,-1850.514855,9770.718434,4826.401637
125.524778,1628.453072,13175.665768,-612.876398
125.525088,1406.391290,10881.027347,-4826.401637
125.525398,1776.494261,9474.636058,-2681.334243
125.525707,-2442.679609,5995.668130,1532.190996
125.526017,-1702.473667,7846.182985,-2451.505594
125.526326,-1628.453072,10881.027347,-5209.449386
125.526636,2368.659014,10362.883188,-7354.516781
125.526945,592.164754,10658.965565,-2068.457845
125.527255,-1332.370696,7772.162391,3447.429741
125.527565,-888.247130,12287.418637,842.705048
125.527874,1184.329507,9696.697840,-3677.258390
125.528184,3404.947333,5403.503377,-4213.525239
125.528493,148.041188,5255.462188,3217.601092
125.528803,-2590.720797,8956.491898,3753.867940
125.529113,-518.144159,9622.677246,-3753.867940
125.529422,5033.400406,11843.295072,-7890.783629
125.529732,-2368.659014,11103.089130,-3600.648841
125.530041,-1480.411884,9400.615463,4673.182538
125.530351,-1480.411884,12139.377449,0.000000
125.530660,4441.235652,10140.821405,-7431.126331
125.530970,4071.132681,7994.224174,-1838.629195
125.531280,-5403.503377,6217.729913,6128.763984
125.531589,-2146.597232,9770.718434,5669.106685
125.531899,1480.411884,12879.583391,-4443.353888
125.532208,5773.606348,10955.047942,-8656.879127
125.532518,-0.000000,11029.068536,-4519.963438
125.532827,-1776.494261,10362.883188,2145.067394
125.533137,-222.061783,9104.533087,-459.657299
125.533447,4737.318029,9030.512492,-5209.449386
125.533756,2368.659014,5773.606348,-1149.143247
125.534066,-4737.318029,3849.070898,8273.831378
125.534375,-740.205942,4663.297435,6894.859482
125.534685,-222.061783,9400.615463,-4826.401637
125.534995,7994.224174,10881.027347,-12257.527968
125.535304,-1924.535449,11473.192101,-3677.258390
125.535614,-5403.503377,13693.809927,4136.915689
125.535923,370.102971,11917.315666,2068.457845
125.536233,6069.688724,10436.903782,-6818.249932
125.536542,-2146.597232,7920.203579,1685.410096
125.536852,-4219.173869,6439.791695,10955.165621
125.537161,-3478.967927,6661.853478,5439.278036
125.537471,3404.947333,9548.656652,-7277.907231
125.537780,4663.297435,10658.965565,-10648.727422
125.538090,-4515.256246,10955.047942,-459.657299
125.538399,-1554.432478,12509.480420,3447.429741
125.538709,-370.102971,14063.912898,-1991.848295
125.539018,3330.926739,10955.047942,-5286.058936
125.539328,888.247130,7772.162391,1378.971896
125.539637,-2368.659014,5921.647536,7124.688131
125.539947,-1332.370696,5921.647536,2834.553343
125.540256,-814.226536,7254.018232,-6205.373534
125.540566,5773.606348,10140.821405,-10725.336972
125.540875,-3478.967927,10436.903782,-1455.581446
125.541185,-4441.235652,11917.315666,6281.983084
125.541494,1924.535449,11547.212695,-3830.477490
125.541804,4367.215058,9548.656652,-9422.974625
125.542113,-2886.803174,6069.688724,2911.162892
125.542423,-4293.194464,4219.173869,12640.575717
125.542732,-1036.288319,8290.306550,-1225.752797
125.543042,4589.276840,9104.533087,-13330.061665
125.543351,2812.782580,10807.006753,-8350.440928
125.543661,-6291.750507,13027.624579,1149.143247
125.543970,740.205942,16358.551318,2604.724693
125.544280,3108.864956,11769.274478,-3983.696590
125.544589,3256.906145,8216.285956,-3524.039291
125.544899,-2294.638420,5921.647536,7354.516781
125.545208,-2886.803174,6143.709319,8273.831378
125.545518,2146.597232,8216.285956,-2374.896044
125.545827,3034.844362,12139.377449,-11031.775171
125.546137,2368.659014,12657.521608,-8580.269578
125.546446,-3701.029710,11843.295072,0.000000
125.546756,3034.844362,11399.171507,1072.533697
125.547065,1480.411884,11473.192101,-3370.820191
125.547375,2072.576638,6587.832884,-76.609550
125.547684,-4515.256246,3627.009116,6665.030833
125.547994,-2146.597232,3108.864956,10035.851024
125.548303,148.041188,7476.080014,-306.438199
125.548613,7698.141797,13471.748144,-13253.452115
125.548922,592.164754,12657.521608,-10648.727422
125.549232,-6513.812290,11843.295072,1762.019645
125.549541,1184.329507,12139.377449,1685.410096
125.549851,3701.029710,12213.398043,-7967.393179
125.550160,1998.556043,8808.450710,-1455.581446
125.550470,-2368.659014,3923.091493,10878.556072
125.550779,-2072.576638,2590.720797,8810.098227
125.551089,1258.350101,3108.864956,842.705048
125.551398,5255.462188,10214.842000,-4060.306139
125.551708,-1258.350101,11621.233289,-1378.971896
125.552017,-2960.823768,14582.057057,-3370.820191
125.552327,-222.061783,19171.333898,-2987.772442
125.552636,888.247130,11991.336260,-9806.022374
125.552946,3182.885551,10584.944971,-3907.087040
125.553255,-4293.194464,6143.709319,8044.002729
125.553565,962.267725,5033.400406,10035.851024
125.553874,-148.041188,5107.421000,689.485948
125.554184,3997.112087,7402.059420,-4213.525239
125.554493,-1776.494261,9474.636058,-3140.991542
125.554803,-2072.576638,10214.842000,-1455.581446
125.555112,-0.000000,12509.480420,-4596.572988
125.555422,1702.473667,12361.439231,-10189.070123
125.555731,2146.597232,10288.862594,-4903.011187
125.556041,-3849.070898,5847.626942,7967.393179
125.556350,-1258.350101,6513.812290,10265.679673
125.556660,-962.267725,6587.832884,536.266849
125.556969,4367.215058,9548.656652,-3677.258390
125.557279,-222.061783,11991.336260,-4749.792088
125.557588,-222.061783,11769.274478,-4903.011187
125.557898,370.102971,12879.583391,-2757.943793
125.558207,-1184.329507,13249.686362,-5132.839837
125.558517,2516.700203,8068.244768,-3140.991542
125.558826,-2960.823768,6069.688724,3294.210641
125.559136,-4663.297435,6217.729913,11184.994271
125.559445,-1998.556043,10140.821405,4596.572988
125.559755,6661.853478,10881.027347,-10495.508323
125.560064,-814.226536,9474.636058,-10035.851024
125.560374,-222.061783,12213.398043,-842.705048
125.560683,2072.576638,10584.944971,-2068.457845
125.560993,2368.659014,11917.315666,-8273.831378
125.561302,444.123565,7994.224174,3600.648841
125.561612,-4663.297435,3701.029710,11261.603821
125.561921,814.226536,4515.256246,4290.134789
125.562231,-1924.535449,8364.327145,-2834.553343
125.562540,5033.400406,9104.533087,-5362.668486
125.562850,2368.659014,13619.789333,-8427.050478
125.563159,-1702.473667,13693.809927,-10265.679673
125.563469,-4959.379811,12953.603985,842.705048
125.563778,2516.700203,14063.912898,-5362.668486
125.564088,4589.276840,6735.874072,-5898.935335
125.564397,-3701.029710,2664.741391,8886.707777
125.564707,-5181.441594,4663.297435,14249.376263
125.565016,1998.556043,4293.194464,-383.047749
125.565326,6957.935855,9696.697840,-10725.336972
125.565635,-1332.370696,11029.068536,-2911.162892
125.565945,-4959.379811,15914.427753,-383.047749
125.566254,-2738.761985,14730.098246,-2681.334243
125.566564,2812.782580,17690.922014,-10112.460574
125.566873,2146.597232,8882.471304,-6741.640382
125.567183,-3034.844362,7179.997637,2757.943793
125.567492,-2516.700203,5033.400406,8503.660028
125.567802,-666.185348,5995.668130,459.657299
125.568111,6809.894666,9104.533087,-6971.469032
125.568421,-1702.473667,7994.224174,-2145.067394
125.568730,296.082377,11621.233289,1991.848295
125.569040,-740.205942,12731.542202,0.000000
125.569349,5995.668130,13323.706956,-10035.851024
125.569659,962.267725,6439.791695,-5362.668486
125.569968,-4589.276840,5107.421000,6741.640382
125.570278,-222.061783,7105.977043,2757.943793
125.570587,2368.659014,7624.121203,-6052.154434
125.570897,6291.750507,9400.615463,-9806.022374
125.571206,-4959.379811,10288.862594,2528.115143
125.571516,-4885.359217,10955.047942,8120.612279
125.571825,3108.864956,15026.180623,-6665.030833
125.572135,5477.523971,10732.986159,-12257.527968
125.572444,-2516.700203,7105.977043,1072.533697
125.572754,-4737.318029,7994.224174,7967.393179
125.573063,1628.453072,6809.894666,-1302.362347
125.573373,-148.041188,9104.533087,-3064.381992
125.573682,4737.318029,10955.047942,-4826.401637
125.573992,222.061783,8660.409521,-3140.991542
125.574301,-3701.029710,9030.512492,3524.039291
125.574611,-518.144159,12435.459826,-2221.676944
125.574920,7402.059420,9326.594869,-11721.261119
125.575230,296.082377,8068.244768,-4290.134789
125.575539,-6513.812290,5773.606348,11721.261119
125.575849,-2146.597232,6735.874072,6511.811733
125.576158,3923.091493,8216.285956,-7431.126331
125.576468,4293.194464,8438.347739,-5898.935335
125.576777,-3108.864956,10214.842000,1225.752797
125.577087,-2294.638420,11843.295072,-229.828649
125.577396,-3330.926739,11251.130318,-7660.954980
125.577706,5181.441594,13323.706956,-6205.373534
125.578015,-740.205942,9622.677246,-3140.991542
125.578325,-4441.235652,7254.018232,6818.249932
125.578634,-3997.112087,9030.512492,6435.202183
125.578944,6217.729913,5625.565159,-7660.954980
125.579253,2516.700203,9178.553681,-7431.126331
125.579563,-5847.626942,10288.862594,6511.811733
125.579872,-1924.535449,11991.336260,3217.601092
125.580182,5773.606348,14878.139434,-9882.631924
125.580491,2886.803174,9252.574275,-7201.297681
125.580801,-4293.194464,9474.636058,3677.258390
125.581110,-1702.473667,7179.997637,5132.839837
125.581420,-296.082377,7920.203579,-995.924147
125.581729,3034.844362,9030.512492,-3753.867940
125.582039,1702.473667,9474.636058,-4443.353888
125.582348,-2220.617826,9252.574275,-4826.401637
125.582658,-3552.988522,7105.977043,2374.896044
125.582967,2368.659014,11473.192101,-2987.772442
125.583277,6809.894666,8512.368333,-8120.612279
125.583586,-2812.782580,7920.203579,383.047749
125.583896,-5403.503377,7550.100608,11568.042020
125.584205,740.205942,6809.894666,-229.828649
125.584515,4293.194464,13175.665768,-10955.165621
125.584824,148.041188,11843.295072,-2068.457845
125.585134,-4367.215058,9474.636058,3907.087040
125.585443,296.082377,14211.954086,-306.438199
125.585753,2664.741391,13767.830521,-7048.078582
125.586062,4145.153275,8216.285956,-4979.620737
125.586372,-4737.318029,8660.409521,689.485948
125.586681,-3404.947333,7105.977043,4903.011187
125.586991,-666.185348,9548.656652,0.000000
125.587300,4737.318029,9918.759623,-6741.640382
125.587610,-0.000000,8512.368333,-6052.154434
125.587919,-4219.173869,13175.665768,3830.477490
125.588229,962.267725,7994.224174,3217.601092
125.588538,2738.761985,9622.677246,-5515.887586
125.588848,2146.597232,10140.821405,-5745.716235
125.589157,-3330.926739,6217.729913,2298.286494
125.589467,-1628.453072,2146.597232,2068.457845
125.589776,-2220.617826,8364.327145,-3140.991542
125.590086,6143.709319,9770.718434,-5822.325785
125.590395,740.205942,11103.089130,-5822.325785
125.590705,-2442.679609,12435.459826,-919.314598
125.591014,296.082377,12213.398043,2221.676944
125.591324,592.164754,11325.150913,-2068.457845
125.591633,5329.482782,13249.686362,-1532.190996
125.591943,-1628.453072,7179.997637,0.000000
125.592252,-5181.441594,7031.956449,6358.592633
125.592562,1554.432478,11473.192101,-1532.190996
125.592871,4663.297435,9770.718434,-9806.022374
125.593181,-1776.494261,11991.336260,-2757.943793
125.593490,-3182.885551,9622.677246,3217.601092
125.593800,-1702.473667,12361.439231,-2221.676944
125.594109,1406.391290,9696.697840,-4213.525239
125.594419,1924.535449,9400.615463,-3447.429741
125.594728,-2812.782580,6439.791695,0.000000
125.595038,-1480.411884,6291.750507,3983.696590
125.595347,-4811.338623,8734.430116,459.657299
125.595657,6513.812290,7328.038826,-8273.831378
125.595966,-592.164754,8586.388927,-4673.182538
125.596276,-5625.565159,12361.439231,4903.011187
125.596585,-666.185348,9918.759623,919.314598
125.596895,1628.453072,10584.944971,-6741.640382
125.597204,2960.823768,9696.697840,-3907.087040
125.597514,-1850.514855,7105.977043,1838.629195
125.597823,-4367.215058,7105.977043,1532.190996
125.598133,-2072.576638,11029.068536,-2451.505594
125.598442,4811.338623,7550.100608,-5286.058936
125.598752,-148.041188,11177.109724,-11108.384721
125.599061,-2812.782580,8956.491898,3600.648841
125.599371,-3552.988522,11991.336260,6281.983084
125.599680,4959.379811,12583.501014,-5898.935335
125.599990,5773.606348,9326.594869,-5975.544884
125.600299,-3849.070898,10807.006753,5132.839837
125.600609,-7105.977043,7920.203579,8273.831378
125.600918,-444.123565,10807.006753,-4366.744339
125.601228,7328.038826,9326.594869,-12793.794817
125.601537,-1332.370696,9548.656652,-7737.564530
125.601847,-3256.906145,8586.388927,2451.505594
125.602156,-5033.400406,9992.780217,2911.162892
125.602466,3997.112087,8956.491898,-4979.620737
125.602775,4737.318029,5773.606348,-1532.190996
125.603085,-3849.070898,6069.688724,10572.117872
125.603394,-6957.935855,7476.080014,7431.126331
125.603704,2812.782580,8734.430116,-6052.154434
125.604013,4959.379811,8808.450710,-12257.527968
125.604323,-1628.453072,13619.789333,-6052.154434
125.604632,-1924.535449,7698.141797,1915.238745
125.604942,-4885.359217,8216.285956,459.657299
125.605251,3701.029710,14137.933492,-919.314598
125.605561,5181.441594,3627.009116,229.828649
125.605870,-2960.823768,6365.771101,5286.058936
125.606180,-5995.668130,9622.677246,8350.440928
125.606489,1480.411884,9770.718434,-4443.353888
125.606799,8808.450710,12731.542202,-15934.786358
125.607108,-1850.514855,13989.892304,-6818.249932
125.607418,-5255.462188,15470.304188,10725.336972
125.607727,-2590.720797,10881.027347,1149.143247
125.608037,4885.359217,9104.533087,-6128.763984
125.608346,222.061783,3997.112087,229.828649
125.608656,-1850.514855,3404.947333,7354.516781
125.608965,-3923.091493,7994.224174,5515.887586
125.609275,4441.235652,9622.677246,-4903.011187
125.609584,4145.153275,12731.542202,-10572.117872
125.609894,-592.164754,11843.295072,-6511.811733
125.610203,-1480.411884,8512.368333,3907.087040
125.610513,-1628.453072,12287.418637,229.828649
125.610822,2294.638420,7328.038826,-4443.353888
125.611132,2146.597232,4737.318029,536.266849
125.611441,-2442.679609,4959.379811,6665.030833
125.611751,-3478.967927,8660.409521,3140.991542
125.612060,2294.638420,11547.212695,-6435.202183
125.612370,5477.523971,11695.253884,-9729.412825
125.612679,-1702.473667,15174.221811,-5515.887586
125.612989,-5255.462188,12953.603985,4596.572988
125.613298,-2368.659014,11103.089130,1455.581446
125.613608,6513.812290,6957.935855,-4443.353888
125.613917,-1924.535449,6883.915261,-459.657299
125.614227,-2738.761985,6439.791695,8733.488677
125.614536,-4515.256246,7105.977043,689.485948
125.614846,6143.709319,10658.965565,-10572.117872
125.615155,4441.235652,12953.603985,-9806.022374
125.615465,-4293.194464,13767.830521,-536.266849
125.615774,-1110.308913,10140.821405,1685.410096
125.616084,-74.020594,9252.574275,-4749.792088
125.616393,3701.029710,4811.338623,-689.485948
125.616703,-1258.350101,5107.421000,5515.887586
125.617012,-222.061783,4737.318029,3600.648841
125.617322,-4737.318029,4515.256246,3677.258390
125.617631,3478.967927,14804.118840,-3830.477490
125.617941,2368.659014,13989.892304,-10801.946522
125.618250,-962.267725,12953.603985,-7660.954980
125.618560,-2886.803174,14656.077652,1685.410096
125.618869,1776.494261,9474.636058,1762.019645
125.619179,4959.379811,7846.182985,-2911.162892
125.619488,-0.000000,5181.441594,5209.449386
125.619798,-4737.318029,2442.679609,8197.221829
125.620107,-4145.153275,5921.647536,4213.525239
125.620417,3182.885551,11177.109724,-3217.601092
125.620726,1702.473667,13693.809927,-8120.612279
125.621036,222.061783,16802.674883,-6665.030833
125.621345,-1998.556043,14137.933492,-3907.087040
125.621655,-1776.494261,15100.201217,-3370.820191
125.621964,4737.318029,8808.450710,-2451.505594
125.622274,-888.247130,3034.844362,4903.011187
125.622583,-3256.906145,5033.400406,10878.556072
125.622893,-3330.926739,4367.215058,6588.421283
125.623202,4811.338623,5921.647536,-3600.648841
125.623512,4811.338623,10584.944971,-9806.022374
125.623821,-2072.576638,12509.480420,-7124.688131
125.624131,-2738.761985,14137.933492,-3677.258390
125.624440,1332.370696,12361.439231,-6435.202183
125.624750,5329.482782,9548.656652,-3983.696590
125.625059,370.102971,8142.265362,2681.334243
125.625369,-3256.906145,4737.318029,9576.193725
125.625678,-3404.947333,5847.626942,5362.668486
125.625987,5773.606348,10362.883188,-3677.258390
125.626297,2664.741391,10732.986159,-7737.564530
125.626606,-222.061783,13693.809927,-4213.525239
125.626916,518.144159,12287.418637,-3600.648841
125.627225,2072.576638,13693.809927,-4903.011187
125.627535,-888.247130,8586.388927,229.828649
125.627844,-74.020594,6883.915261,7201.297681
125.628154,-1036.288319,5255.462188,6741.640382
125.628463,-3404.947333,8068.244768,612.876398
125.628773,4589.276840,9400.615463,-2298.286494
125.629082,444.123565,10807.006753,-9499.584175
125.629392,-222.061783,15914.427753,-6205.373534
125.629701,-3997.112087,13027.624579,-1608.800546
125.630011,-1628.453072,11695.253884,-2221.676944
125.630320,3552.988522,6957.935855,-2604.724693
125.630630,592.164754,2368.659014,4213.525239
125.630939,-4071.132681,2960.823768,10495.508323
125.631249,-4737.318029,5625.565159,4749.792088
125.631558,5255.462188,9400.615463,-9576.193725
125.631868,5625.565159,11473.192101,-10878.556072
125.632177,-148.041188,15248.242405,-5975.544884
125.632487,-4737.318029,13545.768739,-1762.019645
125.632796,2072.576638,12805.562797,-995.924147
125.633106,1924.535449,10214.842000,1532.190996
125.633415,-1184.329507,5699.585753,4826.401637
125.633725,-1480.411884,5181.441594,7507.735880
125.634034,-4071.132681,7698.141797,536.266849
125.634344,8882.471304,11769.274478,-9116.536426
125.634653,1924.535449,15544.324782,-9269.755526
125.634963,-1924.535449,16580.613101,-995.924147
125.635272,-3775.050304,15544.324782,-612.876398
125.635582,3108.864956,11843.295072,-6665.030833
125.635891,962.267725,3330.926739,-842.705048
125.636201,-3182.885551,4737.318029,5745.716235
125.636510,-2368.659014,2442.679609,5515.887586
125.636820,-1406.391290,3923.091493,1685.410096
125.637129,4515.256246,11325.150913,-4903.011187
125.637439,1480.411884,11695.253884,-5745.716235
125.637748,-1332.370696,10658.965565,-3677.258390
125.638058,-6957.935855,12583.501014,229.828649
125.638378,4959.379811,9622.677246,-4443.353888
125.638687,3108.864956,9474.636058,-2987.772442
125.638997,-0.000000,5107.421000,1685.410096
125.639306,-3923.091493,4515.256246,7354.516781
125.639615,-518.144159,8956.491898,1378.971896
125.639925,2960.823768,12583.501014,-4213.525239
125.640234,1184.329507,13471.748144,-612.876398
125.640544,444.123565,14137.933492,-4979.620737
125.640853,-4885.359217,15174.221811,-3370.820191
125.641162,2886.803174,12139.377449,-2681.334243
125.641472,2368.659014,4737.318029,-2068.457845
125.641781,-0.000000,4737.318029,5592.497135
125.642090,-5181.441594,7031.956449,8580.269578
125.642400,1480.411884,5625.565159,1149.143247
125.642709,6957.935855,9474.636058,-7354.516781
125.643018,-2072.576638,11843.295072,-4213.525239
125.643328,-3775.050304,13175.665768,153.219100
125.643637,-1850.514855,11843.295072,-3753.867940
125.643947,3997.112087,10881.027347,-7277.907231
125.644256,962.267725,6735.874072,-2757.943793
125.644565,-1480.411884,5033.400406,4136.915689
125.644875,-4737.318029,4145.153275,7814.174080
125.645184,-740.205942,6513.812290,3753.867940
125.645493,5477.523971,10066.800811,-3983.696590
125.645803,592.164754,9474.636058,-5822.325785
125.646112,-962.267725,10140.821405,-1072.533697
125.646421,-3330.926739,12953.603985,-4749.792088
125.646731,3182.885551,11547.212695,-5822.325785
125.647040,-444.123565,10658.965565,1378.971896
125.647350,2442.679609,10436.903782,2757.943793
125.647659,-3701.029710,8512.368333,2604.724693
125.647968,3108.864956,7254.018232,306.438199
125.648278,1702.473667,7624.121203,306.438199
125.648587,-518.144159,13323.706956,-306.438199
125.648896,2368.659014,15914.427753,-2298.286494
125.649206,-1702.473667,13989.892304,-6358.592633
125.649515,2590.720797,9030.512492,-5975.544884
125.649824,-148.041188,6217.729913,-1685.410096
125.650134,-1850.514855,9548.656652,-383.047749
125.650443,-4737.318029,7550.100608,4060.306139
125.650753,2220.617826,7328.038826,919.314598
125.651062,4293.194464,6291.750507,-2528.115143
125.651371,1480.411884,8956.491898,-842.705048
125.651681,-1406.391290,11473.192101,612.876398
125.651990,-1110.308913,9992.780217,-3830.477490
125.652299,4737.318029,12435.459826,-3983.696590
125.652609,-2738.761985,7105.977043,0.000000
125.652918,-1184.329507,8142.265362,2451.505594
125.653227,-4663.297435,8734.430116,536.266849
125.653537,1850.514855,9474.636058,-3140.991542
125.653846,3034.844362,8882.471304,-5822.325785
125.654156,814.226536,10881.027347,-3140.991542
125.654465,-1628.453072,12287.418637,-153.219100
125.654774,-1406.391290,9548.656652,0.000000
125.655084,3849.070898,11103.089130,842.705048
125.655393,-1702.473667,8660.409521,153.219100
125.655702,-2590.720797,7920.203579,2604.724693
125.656012,-666.185348,7550.100608,-2911.162892
125.656321,4441.235652,9474.636058,-7354.516781
125.656630,1258.350101,13249.686362,-4060.306139
125.656940,518.144159,10881.027347,995.924147
125.657249,-814.226536,11843.295072,-1608.800546
125.657559,2368.659014,9844.739029,-766.095498
125.657868,-0.000000,9030.512492,-1608.800546
125.658177,666.185348,7328.038826,-1838.629195
125.658487,-592.164754,5995.668130,0.000000
125.658796,-2072.576638,11177.109724,306.438199
125.659105,4293.194464,10140.821405,-2987.772442
125.659415,2590.720797,9696.697840,-5362.668486
125.659724,-1776.494261,8438.347739,-1149.143247
125.660033,-1850.514855,12361.439231,1762.019645
125.660343,-740.205942,8364.327145,383.047749
125.660652,2886.803174,6365.771101,-1225.752797
125.660962,-1924.535449,8808.450710,2451.505594
125.661271,-296.082377,7550.100608,-842.705048
125.661580,-740.205942,7402.059420,-2987.772442
125.661890,2886.803174,8586.388927,-2604.724693
125.662199,518.144159,10066.800811,-2451.505594
125.662508,-0.000000,11177.109724,766.095498
125.662818,-1850.514855,12583.501014,2221.676944
125.663127,296.082377,10584.944971,-995.924147
125.663436,3330.926739,9844.739029,-4136.915689
125.663746,-0.000000,10510.924376,-1532.190996
125.664055,-2368.659014,7550.100608,-229.828649
125.664365,-2812.782580,10066.800811,-459.657299
125.664674,4219.173869,8956.491898,-3677.258390
125.664983,444.123565,8586.388927,-2681.334243
125.665293,1258.350101,7031.956449,2604.724693
125.665602,-3775.050304,10362.883188,3140.991542
125.665911,1850.514855,8290.306550,-2221.676944
125.666221,3775.050304,7698.141797,-2221.676944
125.666530,1184.329507,8882.471304,-306.438199
125.666839,-1924.535449,9178.553681,0.000000
125.667149,-222.061783,11843.295072,-3753.867940
125.667458,1850.514855,7254.018232,-4903.011187
125.667768,-888.247130,9622.677246,-1225.752797
125.668077,-1554.432478,11843.295072,3600.648841
125.668386,-1110.308913,11325.150913,-1225.752797
125.668696,2072.576638,8512.368333,-919.314598
125.669005,444.123565,10362.883188,689.485948
125.669314,444.123565,6809.894666,766.095498
125.669624,-3404.947333,9400.615463,919.314598
125.669933,-1554.432478,11399.171507,-4213.525239
125.670242,3627.009116,9326.594869,-5822.325785
125.670552,296.082377,9548.656652,-3753.867940
125.670861,-592.164754,9030.512492,1991.848295
125.671171,-6587.832884,8512.368333,919.314598
125.671480,5329.482782,6143.709319,-1532.190996
125.671789,3701.029710,6291.750507,0.000000
125.672099,296.082377,7846.182985,5132.839837
125.672408,-4515.256246,7920.203579,3983.696590
125.672717,-2220.617826,10807.006753,-5669.106685
125.673027,6957.935855,13101.645173,-7814.174080
125.673336,2072.576638,11029.068536,-6741.640382
125.673645,-2368.659014,11177.109724,-3217.601092
125.673955,-3330.926739,13027.624579,229.828649
125.674264,3627.009116,8586.388927,76.609550
125.674573,1998.556043,7624.121203,3370.820191
125.674883,1110.308913,6365.771101,8656.879127
125.675192,-5033.400406,6957.935855,3677.258390
125.675502,-370.102971,9252.574275,-4443.353888
125.675811,3923.091493,11621.233289,-8963.317327
125.676120,-740.205942,12065.356855,-7048.078582
125.676430,-1406.391290,16284.530724,-3524.039291
125.676739,-2738.761985,15618.345376,-3140.991542
125.677048,4737.318029,8586.388927,-995.924147
125.677358,740.205942,8438.347739,3447.429741
125.677667,-0.000000,2220.617826,6894.859482
125.677976,-7698.141797,5181.441594,5286.058936
125.678286,1332.370696,6439.791695,-2757.943793
125.678595,5995.668130,8364.327145,-10495.508323
125.678905,-1776.494261,12435.459826,-4979.620737
125.679214,-3256.906145,16284.530724,459.657299
125.679523,888.247130,12805.562797,-7124.688131
125.679833,4293.194464,10732.986159,-4060.306139
125.680142,-1480.411884,7328.038826,9806.022374
125.680451,740.205942,3627.009116,4903.011187
125.680761,-3034.844362,6587.832884,-383.047749
125.681070,2516.700203,11843.295072,-3753.867940
125.681379,1776.494261,9474.636058,-4443.353888
125.681689,-0.000000,13693.809927,-2528.115143
125.681998,-2220.617826,16802.674883,-2681.334243
125.682308,-222.061783,13027.624579,-3677.258390
125.682617,3034.844362,8068.244768,-1455.581446
125.682926,-2886.803174,4885.359217,0.000000
125.683236,-814.226536,4293.194464,4060.306139
125.683545,-3034.844362,5625.565159,-459.657299
125.683854,1258.350101,10436.903782,-5132.839837
125.684164,1850.514855,10436.903782,-2681.334243
125.684473,-1776.494261,12805.562797,-3677.258390
125.684782,-3108.864956,13915.871710,-3294.210641
125.685092,-1480.411884,11251.130318,-2604.724693
125.685401,3034.844362,7031.956449,-1991.848295
125.685711,-0.000000,3404.947333,2145.067394
125.686020,-888.247130,6809.894666,4290.134789
125.686329,-3775.050304,7624.121203,-536.266849
125.686639,5403.503377,8216.285956,-3907.087040
125.686948,1332.370696,11325.150913,-4290.134789
125.687257,-4145.153275,13249.686362,-842.705048
125.687567,-666.185348,16062.468941,-4979.620737
125.687876,-0.000000,8290.306550,-6205.373534
125.688185,3478.967927,8512.368333,1149.143247
125.688495,-1850.514855,5329.482782,6128.763984
125.688804,-4367.215058,4367.215058,1991.848295
125.689114,-4219.173869,8438.347739,306.438199
125.689423,1924.535449,10732.986159,-1072.533697
125.689732,3627.009116,13545.768739,-5592.497135
125.690042,-1480.411884,14285.974681,-5822.325785
125.690351,-3256.906145,16950.716072,-6741.640382
125.690660,-444.123565,9474.636058,-4979.620737
125.690970,2368.659014,9474.636058,-995.924147
125.691279,-592.164754,3256.906145,3370.820191
125.691588,-1184.329507,6439.791695,3677.258390
125.691898,-1776.494261,8142.265362,2987.772442
125.692207,3108.864956,6957.935855,-2451.505594
125.692517,1184.329507,10214.842000,-5209.449386
125.692826,-888.247130,10881.027347,-4290.134789
125.693135,-1702.473667,12731.542202,-7967.393179
125.693445,1850.514855,11769.274478,-5822.325785
125.693754,-74.020594,7846.182985,383.047749
125.694063,-148.041188,3923.091493,3907.087040
125.694373,-0.000000,7476.080014,6588.421283
125.694682,-3108.864956,10066.800811,1225.752797
125.694991,3330.926739,6365.771101,-1838.629195
125.695301,444.123565,12287.418637,-7124.688131
125.695610,2368.659014,13397.727550,-7814.174080
125.695920,-2442.679609,14359.995275,-2911.162892
125.696229,666.185348,12953.603985,-1378.971896
125.696538,1406.391290,9474.636058,2528.115143
125.696848,518.144159,4663.297435,5822.325785
125.697157,-3182.885551,6439.791695,4366.744339
125.697466,-2072.576638,8290.306550,-766.095498
125.697776,4219.173869,10584.944971,-6128.763984
125.698085,-296.082377,10066.800811,-7507.735880
125.698394,1554.432478,12065.356855,-5898.935335
125.698704,-5181.441594,12509.480420,-4136.915689
125.699013,2516.700203,12361.439231,-1685.410096
125.699323,-1332.370696,7179.997637,4136.915689
125.699632,2368.659014,3775.050304,4903.011187
125.699941,-3849.070898,3923.091493,1915.238745
125.700251,-3108.864956,5773.606348,2681.334243
125.700560,2738.761985,5921.647536,-4060.306139
125.700869,1036.288319,10362.883188,-7124.688131
125.701179,1554.432478,14211.954086,-6741.640382
125.701488,-4663.297435,13545.768739,-4826.401637
125.701797,888.247130,13249.686362,153.219100
125.702107,3182.885551,8438.347739,1072.533697
125.702416,962.267725,3923.091493,536.266849
125.702726,-4071.132681,5995.668130,4903.011187
125.703035,-1184.329507,6439.791695,1915.238745
125.703344,3108.864956,12657.521608,-6435.202183
125.703654,1554.432478,13101.645173,-5898.935335
125.703963,-296.082377,13989.892304,-1915.238745
125.704272,-2664.741391,16358.551318,-7354.516781
125.704582,4589.276840,10362.883188,-8350.440928
125.704891,-2146.597232,6439.791695,3140.991542
125.705200,-1554.432478,4515.256246,6511.811733
125.705510,-370.102971,6291.750507,2221.676944
125.705819,-1480.411884,6809.894666,-612.876398
125.706129,666.185348,10881.027347,-766.095498
125.706438,4071.132681,12361.439231,-6128.763984
125.706747,1628.453072,11843.295072,-7814.174080
125.707057,-5995.668130,16432.571912,-3830.477490
125.707366,1924.535449,8956.491898,1685.410096
125.707675,2220.617826,6809.894666,-2298.286494
125.707985,-74.020594,5847.626942,229.828649
125.708294,-1554.432478,5033.400406,4519.963438
125.708603,-814.226536,5107.421000,2681.334243
125.708913,1184.329507,13545.768739,-995.924147
125.709222,2368.659014,9474.636058,-1225.752797
125.709531,-74.020594,14211.954086,-2145.067394
125.709841,-3552.988522,14211.954086,-5439.278036
125.710150,518.144159,9770.718434,-2987.772442
125.710460,740.205942,13323.706956,-1225.752797
125.710769,1628.453072,4441.235652,-1072.533697
125.711078,-3701.029710,7402.059420,612.876398
125.711388,-0.000000,10362.883188,766.095498
125.711697,-0.000000,10362.883188,-306.438199
125.712006,2368.659014,11547.212695,-2757.943793
125.712316,814.226536,11843.295072,-3370.820191
125.712625,-666.185348,10658.965565,-5286.058936
125.712934,444.123565,8216.285956,-1225.752797
125.713244,-740.205942,7920.203579,3140.991542
125.713553,2146.597232,4589.276840,153.219100
125.713863,-4071.132681,6513.812290,459.657299
125.714172,1406.391290,7328.038826,229.828649
125.714481,-1406.391290,9400.615463,-2374.896044
125.714791,2960.823768,11991.336260,-5515.887586
125.715100,-1998.556043,14952.160028,-5056.230287
125.715409,-2738.761985,14063.912898,-2911.162892
125.715719,5551.544565,12287.418637,-383.047749
125.716028,-1850.514855,8438.347739,-1608.800546
125.716337,1332.370696,2960.823768,536.266849
125.716647,-5625.565159,5847.626942,4673.182538
125.716956,444.123565,9400.615463,2987.772442
125.717266,5625.565159,11621.233289,-2451.505594
125.717575,814.226536,9104.533087,-4519.963438
125.717884,-888.247130,15100.201217,-2911.162892
125.718194,-3182.885551,12435.459826,-5209.449386
125.718503,3404.947333,8734.430116,-4443.353888
125.718812,-666.185348,6291.750507,-612.876398
125.719122,518.144159,4959.379811,-153.219100
125.719431,-2664.741391,6069.688724,1991.848295
125.719740,-740.205942,9104.533087,1915.238745
125.720050,1776.494261,9178.553681,0.000000
125.720359,7550.100608,8808.450710,-2757.943793
125.720669,-1480.411884,10140.821405,-5975.544884
125.720978,-3923.091493,11473.192101,-1532.190996
125.721287,-370.102971,7846.182985,-1685.410096
125.721597,3552.988522,7846.182985,-9116.536426
125.721906,1184.329507,8438.347739,-4366.744339
125.722215,-6809.894666,9252.574275,5515.887586
125.722525,1184.329507,9400.615463,4366.744339
125.722834,4071.132681,7994.224174,-4443.353888
125.723143,4071.132681,6291.750507,-1991.848295
125.723453,-2442.679609,11103.089130,2068.457845
125.723762,-1036.288319,10510.924376,76.609550
125.724072,1776.494261,13175.665768,-1225.752797
125.724381,2664.741391,11177.109724,1225.752797
125.724690,-3034.844362,8216.285956,-1838.629195
125.725000,-4367.215058,11177.109724,-3830.477490
125.725309,-518.144159,7994.224174,-3753.867940
125.725618,370.102971,11177.109724,-4136.915689
125.725928,3849.070898,9178.553681,-3907.087040
125.726237,-1110.308913,8734.430116,306.438199
125.726546,-2812.782580,11769.274478,3447.429741
125.726856,592.164754,6735.874072,2911.162892
125.727165,5847.626942,3997.112087,689.485948
125.727475,-3182.885551,5551.544565,-1532.190996
125.727784,-3478.967927,6735.874072,3064.381992
125.728093,592.164754,8142.265362,-995.924147
125.728403,4071.132681,13989.892304,-9806.022374
125.728712,2886.803174,9030.512492,-3294.210641
125.729021,-4219.173869,14952.160028,3983.696590
125.729331,1480.411884,11843.295072,-383.047749
125.729640,2812.782580,8216.285956,-5209.449386
125.729949,2960.823768,4737.318029,1378.971896
125.730259,-7920.203579,11177.109724,5745.716235
125.730568,-148.041188,12065.356855,-383.047749
125.730878,5181.441594,8586.388927,-6665.030833
125.731187,-222.061783,13249.686362,-3294.210641
125.731496,1258.350101,10510.924376,536.266849
125.731806,-3108.864956,9918.759623,-1455.581446
125.732115,1184.329507,9992.780217,-153.219100
125.732424,1924.535449,9696.697840,-1685.410096
125.732734,1480.411884,6069.688724,-2451.505594
125.733043,-1850.514855,8438.347739,229.828649
125.733352,-4589.276840,6217.729913,2374.896044
125.733662,3404.947333,10510.924376,-4826.401637
125.733971,2738.761985,9548.656652,-7584.345430
125.734281,592.164754,8586.388927,-4060.306139
125.734590,-4737.318029,10807.006753,3753.867940
125.734899,2368.659014,11399.171507,-2068.457845
125.735209,2072.576638,6883.915261,-4290.134789
125.735518,2294.638420,6661.853478,1225.752797
125.735827,-4737.318029,6587.832884,6741.640382
125.736137,-1406.391290,7772.162391,-689.485948
125.736446,1480.411884,12287.418637,-5669.106685
125.736755,4441.235652,10214.842000,-5592.497135
125.737065,370.102971,10066.800811,-3524.039291
125.737374,-2294.638420,11695.253884,1149.143247
125.737684,148.041188,9844.739029,4136.915689
125.737993,2220.617826,9326.594869,-229.828649
125.738303,3775.050304,6513.812290,-1225.752797
125.738612,-6143.709319,9326.594869,4826.401637
125.738922,-1406.391290,8364.327145,-1378.971896
125.739231,1702.473667,14063.912898,-7814.174080
125.739541,3256.906145,10066.800811,-6128.763984
125.739850,-1480.411884,9918.759623,-153.219100
125.740160,-5403.503377,12879.583391,-2528.115143
125.740469,1332.370696,7624.121203,-766.095498
125.740779,1258.350101,3404.947333,3447.429741
125.741088,814.226536,5699.585753,2451.505594
125.741397,-4663.297435,5107.421000,1378.971896
125.741707,-0.000000,9104.533087,-1149.143247
125.742016,-518.144159,14508.036463,-6281.983084
125.742326,7476.080014,13767.830521,-8044.002729
125.742635,-2294.638420,12361.439231,-1762.019645
125.742945,-1628.453072,13175.665768,2757.943793
125.743254,1480.411884,9474.636058,612.876398
125.743564,2072.576638,6735.874072,-306.438199
125.743873,-1184.329507,2368.659014,6205.373534
125.744183,-4663.297435,9696.697840,4519.963438
125.744492,1628.453072,13915.871710,-4213.525239
125.744802,2220.617826,14211.954086,-6894.859482
125.745111,1480.411884,11769.274478,-5056.230287
125.745421,-888.247130,13027.624579,-3983.696590
125.745730,-1998.556043,11325.150913,-2911.162892
125.746040,-740.205942,11547.212695,1991.848295
125.746349,4589.276840,6069.688724,1608.800546
125.746659,-222.061783,148.041188,2987.772442
125.746968,-6439.791695,6809.894666,4749.792088
125.747278,-814.226536,13841.851115,2451.505594
125.747587,6587.832884,7402.059420,-8733.488677
125.747897,1850.514855,14211.954086,-8810.098227
125.748206,-3997.112087,14878.139434,-536.266849
125.748516,-1258.350101,7698.141797,2451.505594
125.748825,962.267725,9400.615463,612.876398
125.749134,3330.926739,5477.523971,-612.876398
125.749444,-3404.947333,2442.679609,2145.067394
125.749753,-2590.720797,4367.215058,3753.867940
125.750063,-1258.350101,10584.944971,-6971.469032
125.750372,2442.679609,13471.748144,-8044.002729
125.750682,2072.576638,12139.377449,-3677.258390
125.750991,-1776.494261,17468.860231,-2374.896044
125.751301,3256.906145,10066.800811,-1991.848295
125.751610,740.205942,6661.853478,2145.067394
125.751920,3552.988522,7254.018232,3064.381992
125.752229,148.041188,2960.823768,3140.991542
125.752539,-4515.256246,8364.327145,3064.381992
125.752848,370.102971,12583.501014,-1532.190996
125.753158,4885.359217,11843.295072,-10955.165621
125.753467,740.205942,13619.789333,-7431.126331
125.753777,-4367.215058,14582.057057,-1225.752797
125.754086,-0.000000,7550.100608,-1378.971896
125.754396,2368.659014,9548.656652,1455.581446
125.754705,4737.318029,5699.585753,3524.039291
125.755015,-2516.700203,3552.988522,8273.831378
125.755324,-3627.009116,8216.285956,5592.497135
125.755634,740.205942,10955.047942,-1991.848295
125.755943,2960.823768,9548.656652,-7431.126331
125.756252,814.226536,13249.686362,-9652.803275
125.756562,-3404.947333,13323.706956,-5439.278036
125.756871,-1110.308913,11547.212695,-1991.848295
125.757181,1554.432478,8290.306550,-612.876398
125.757490,4589.276840,5107.421000,1455.581446
125.757800,-4737.318029,5847.626942,6818.249932
125.758109,-3256.906145,4589.276840,8580.269578
125.758419,1406.391290,4959.379811,383.047749
125.758728,3256.906145,15396.283594,-8503.660028
125.759038,518.144159,14359.995275,-7890.783629
125.759347,-3256.906145,15174.221811,-6281.983084
125.759657,-0.000000,17172.777854,-4979.620737
125.759966,3404.947333,10066.800811,-306.438199
125.760276,1998.556043,3552.988522,1915.238745
125.760585,-4589.276840,4515.256246,6358.592633
125.760895,-2812.782580,5329.482782,7507.735880
125.761204,4293.194464,5921.647536,306.438199
125.761514,2738.761985,11251.130318,-4213.525239
125.761823,-444.123565,15988.448347,-3907.087040
125.762133,148.041188,12213.398043,-3983.696590
125.762442,1924.535449,9548.656652,-5975.544884
125.762752,1184.329507,10658.965565,-2298.286494
125.763061,1554.432478,6069.688724,1378.971896
125.763371,-3034.844362,4737.318029,5286.058936
125.763680,-3552.988522,7476.080014,7124.688131
125.763989,-370.102971,8882.471304,1532.190996
125.764299,5551.544565,10214.842000,-8580.269578
125.764608,-2146.597232,14582.057057,-5669.106685
125.764918,-2294.638420,15914.427753,-612.876398
125.765227,-1406.391290,12509.480420,-3753.867940
125.765537,1924.535449,11843.295072,-4443.353888
125.765846,2220.617826,6957.935855,-766.095498
125.766156,-6957.935855,4737.318029,5592.497135
125.766465,-2368.659014,6069.688724,4060.306139
125.766775,2738.761985,6513.812290,-2911.162892
125.767084,3775.050304,11917.315666,-6128.763984
125.767394,888.247130,11917.315666,-3753.867940
125.767703,-1776.494261,10955.047942,-1991.848295
125.768013,-148.041188,11917.315666,-3217.601092
125.768322,3256.906145,7254.018232,-2068.457845
125.768632,2146.597232,2442.679609,2451.505594
125.768941,-3034.844362,6291.750507,4749.792088
125.769251,-1776.494261,7920.203579,3753.867940
125.769560,2442.679609,9622.677246,-4290.134789
125.769870,3182.885551,11621.233289,-7967.393179
125.770179,-2516.700203,13619.789333,-5132.839837
125.770489,-1924.535449,13915.871710,-1455.581446
125.770798,1924.535449,13249.686362,-2374.896044
125.771107,370.102971,8216.285956,-1149.143247
125.771417,1258.350101,2886.803174,536.266849
125.771726,-2516.700203,3034.844362,5515.887586
125.772036,-1628.453072,6513.812290,2834.553343
125.772345,740.205942,10214.842000,-1991.848295
125.772655,4515.256246,11991.336260,-6435.202183
125.772964,-2220.617826,15322.262999,-3064.381992
125.773274,-1924.535449,16358.551318,-1532.190996
125.773583,-1036.288319,11991.336260,-3907.087040
125.773893,6735.874072,7179.997637,-5209.449386
125.774202,-3404.947333,5847.626942,1455.581446
125.774512,-2368.659014,4885.359217,5362.668486
125.774821,-592.164754,5773.606348,0.000000
125.775131,1332.370696,8734.430116,-2298.286494
125.775440,3849.070898,12509.480420,-2757.943793
125.775750,1554.432478,11917.315666,-10189.070123
125.776059,-2220.617826,15248.242405,-3140.991542
125.776369,2812.782580,10584.944971,-2145.067394
125.776678,4515.256246,4367.215058,-3524.039291
125.776988,-4071.132681,7476.080014,-383.047749
125.777297,-2664.741391,5033.400406,5669.106685
125.777607,888.247130,5773.606348,-306.438199
125.777916,4293.194464,7920.203579,-3753.867940
125.778226,-222.061783,11029.068536,0.000000
125.778535,-6365.771101,10362.883188,2604.724693
125.778844,222.061783,14137.933492,-6128.763984
125.779154,888.247130,14211.954086,-7584.345430
125.779463,5255.462188,6587.832884,-2681.334243
125.779773,-4515.256246,8512.368333,-459.657299
125.780082,-3552.988522,7402.059420,1302.362347
125.780392,-1480.411884,8956.491898,2528.115143
125.780701,5181.441594,7550.100608,229.828649
125.781011,148.041188,13323.706956,-4366.744339
125.781320,-2072.576638,9252.574275,-3140.991542
125.781630,-1998.556043,9622.677246,-3294.210641
125.781939,3923.091493,9474.636058,-5898.935335
125.782249,2590.720797,8216.285956,-3064.381992
125.782558,-2664.741391,5403.503377,5975.544884
125.782868,-6069.688724,7476.080014,6894.859482
125.783177,2072.576638,9326.594869,-766.095498
125.783487,5477.523971,7846.182985,-3524.039291
125.783796,-1998.556043,11325.150913,-3217.601092
125.784106,-3256.906145,13767.830521,-4903.011187
125.784415,2368.659014,12731.542202,-8197.221829
125.784725,-962.267725,12805.562797,-3294.210641
125.785034,3256.906145,10436.903782,-383.047749
125.785344,-2812.782580,7105.977043,229.828649
125.785653,-2368.659014,7254.018232,3983.696590
125.785962,-2960.823768,5699.585753,6052.154434
125.786272,4219.173869,7402.059420,-2987.772442
125.786581,1110.308913,11251.130318,-6128.763984
125.786891,-5033.400406,11695.253884,153.219100
125.787200,1850.514855,12731.542202,-3447.429741
125.787510,3849.070898,11103.089130,-9193.145976
125.787819,3182.885551,9696.697840,-3447.429741
125.788129,-6735.874072,6217.729913,6435.202183
125.788438,-1702.473667,7328.038826,2528.115143
125.788748,3404.947333,6735.874072,-5056.230287
125.789057,4293.194464,6069.688724,-2221.676944
125.789367,-2886.803174,9400.615463,1072.533697
125.789676,-666.185348,12805.562797,153.219100
125.789986,1184.329507,14137.933492,0.000000
125.790295,3775.050304,11399.171507,-5669.106685
125.790605,1998.556043,6439.791695,-3677.258390
125.790914,-6513.812290,6069.688724,1838.629195
125.791224,-3478.967927,8660.409521,536.266849
125.791533,962.267725,9474.636058,-1991.848295
125.791843,3552.988522,10881.027347,-5132.839837
125.792152,-5329.482782,11843.295072,2068.457845
125.792462,-1998.556043,11843.295072,2451.505594
125.792771,2368.659014,10732.986159,-3983.696590
125.793081,4737.318029,9252.574275,-2911.162892
125.793390,-0.000000,9770.718434,536.266849
125.793699,-4071.132681,6513.812290,0.000000
125.794009,-2664.741391,9474.636058,-919.314598
125.794318,6513.812290,6883.915261,-8120.612279
125.794628,3182.885551,8734.430116,-5056.230287
125.794937,-2294.638420,12805.562797,842.705048
125.795247,-3108.864956,11695.253884,3907.087040
125.795556,1628.453072,10214.842000,-1149.143247
125.795866,1406.391290,10510.924376,-5132.839837
125.796175,2220.617826,8882.471304,-2145.067394
125.796485,-4811.338623,5477.523971,306.438199
125.796794,-814.226536,9252.574275,-1762.019645
125.797104,3182.885551,10140.821405,-6818.249932
125.797413,2960.823768,10140.821405,-3907.087040
125.797723,-4885.359217,12879.583391,1838.629195
125.798032,-2960.823768,11325.150913,4136.915689
125.798342,3923.091493,13693.809927,-2681.334243
125.798651,814.226536,8512.368333,-8044.002729
125.798961,-74.020594,5699.585753,-2911.162892
125.799270,-8808.450710,6587.832884,2911.162892
125.799580,2738.761985,7254.018232,-383.047749
125.799889,2368.659014,8216.285956,-5592.497135
125.800199,1332.370696,16358.551318,-536.266849
125.800508,-3330.926739,10288.862594,2757.943793
125.800817,-1258.350101,8142.265362,0.000000
125.801127,3108.864956,12213.398043,-7048.078582
125.801436,3627.009116,8734.430116,-4060.306139
125.801746,-1036.288319,6513.812290,1225.752797
125.802055,-4219.173869,8068.244768,3830.477490
125.802365,-1628.453072,11621.233289,229.828649
125.802674,5255.462188,11325.150913,-3983.696590
125.802984,3108.864956,9844.739029,-5898.935335
125.803293,-5033.400406,10140.821405,153.219100
125.803603,-3330.926739,9918.759623,3753.867940
125.803912,1628.453072,8882.471304,-4749.792088
125.804222,6069.688724,8364.327145,-7277.907231
125.804531,-2072.576638,9030.512492,229.828649
125.804841,-6735.874072,6439.791695,5362.668486
125.805150,-1110.308913,9474.636058,-919.314598
125.805460,4589.276840,9400.615463,-6588.421283
125.805769,1332.370696,10881.027347,-3677.258390
125.806079,-5477.523971,7846.182985,1915.238745
125.806388,-888.247130,10362.883188,3600.648841
125.806698,4515.256246,11843.295072,-1608.800546
125.807007,4515.256246,8512.368333,-689.485948
125.807317,-2220.617826,9918.759623,1608.800546
125.807626,-7550.100608,7476.080014,1838.629195
125.807936,2664.741391,12287.418637,-6205.373534
125.808245,2664.741391,11547.212695,-11491.432470
125.808554,444.123565,14878.139434,-6281.983084
125.808864,-5921.647536,10732.986159,4290.134789
125.809173,-2294.638420,12657.521608,2987.772442
125.809483,3701.029710,9770.718434,-1532.190996
125.809792,8586.388927,4515.256246,-536.266849
125.810102,-1628.453072,6365.771101,2911.162892
125.810411,-6069.688724,5773.606348,4903.011187
125.810721,888.247130,9252.574275,-2911.162892
125.811030,5773.606348,8734.430116,-10495.508323
125.811340,1332.370696,10362.883188,-4903.011187
125.811649,-8882.471304,13249.686362,3064.381992
125.811959,-296.082377,8512.368333,306.438199
125.812268,5477.523971,7994.224174,-3753.867940
125.812578,1480.411884,5551.544565,919.314598
125.812887,-4811.338623,4663.297435,9576.193725
125.813197,-5107.421000,6513.812290,2681.334243
125.813506,-0.000000,12287.418637,-6511.811733
125.813816,6365.771101,10881.027347,-8963.317327
125.814125,814.226536,12879.583391,-5669.106685
125.814435,-7476.080014,18431.127956,3677.258390
125.814744,-0.000000,14285.974681,3140.991542
125.815054,6439.791695,5625.565159,-4673.182538
125.815363,3404.947333,7105.977043,0.000000
125.815672,-8438.347739,6587.832884,8580.269578
125.815982,-4885.359217,5033.400406,2834.553343
125.816291,5329.482782,12657.521608,-7890.783629
125.816601,5921.647536,11769.274478,-10418.898773
125.816910,-2294.638420,12953.603985,-1608.800546
125.817220,-6513.812290,11991.336260,9806.022374
125.817529,2220.617826,12287.418637,-2604.724693
125.817839,6957.935855,7772.162391,-4366.744339
125.818148,3256.906145,5329.482782,2374.896044
125.818458,-8290.306550,6883.915261,5822.325785
125.818767,-2738.761985,7179.997637,4060.306139
125.819077,2886.803174,7624.121203,-5822.325785
125.819386,4589.276840,9104.533087,-7967.393179
125.819696,-4959.379811,14582.057057,-2911.162892
125.820005,-4071.132681,12139.377449,919.314598
125.820315,2516.700203,10288.862594,-4136.915689
125.820624,3627.009116,6587.832884,-1915.238745
125.820934,4293.194464,6069.688724,2528.115143
125.821243,-9474.636058,4737.318029,4826.401637
125.821553,-2738.761985,11843.295072,3983.696590
125.821862,4515.256246,9474.636058,-5515.887586
125.822172,5847.626942,10955.047942,-8503.660028
125.822481,-2738.761985,16802.674883,-3140.991542
125.822791,-5477.523971,13101.645173,-1532.190996
125.823100,1998.556043,10362.883188,-3294.210641
125.823409,5255.462188,8068.244768,-2681.334243
125.823719,1924.535449,6735.874072,689.485948
125.824028,-5403.503377,4515.256246,7201.297681
125.824338,-1332.370696,8216.285956,1532.190996
125.824647,3552.988522,10214.842000,-7048.078582
125.824957,7105.977043,11103.089130,-11184.994271
125.825266,-6809.894666,14656.077652,-3370.820191
125.825576,-5181.441594,11843.295072,1302.362347
125.825885,4515.256246,11695.253884,-4979.620737
125.826195,7402.059420,6143.709319,-5439.278036
125.826504,-814.226536,5329.482782,6435.202183
125.826814,-8364.327145,5995.668130,12104.308868
125.827123,1184.329507,7105.977043,3677.258390
125.827433,4663.297435,8438.347739,-7201.297681
125.827742,3034.844362,10510.924376,-9116.536426
125.828052,-7254.018232,14582.057057,-4213.525239
125.828361,-2812.782580,12805.562797,-2145.067394
125.828671,2072.576638,14211.954086,-7660.954980
125.828980,6735.874072,8438.347739,-5286.058936
125.829290,-0.000000,7772.162391,5362.668486
125.829599,-8512.368333,3701.029710,10189.070123
125.829909,370.102971,6957.935855,4673.182538
125.830218,5477.523971,5921.647536,-4903.011187
125.830527,5847.626942,10214.842000,-8656.879127
125.830837,-7031.956449,15322.262999,-3524.039291
125.831146,-3701.029710,13915.871710,-459.657299
125.831456,370.102971,14656.077652,-6281.983084
125.831765,9770.718434,6217.729913,-7277.907231
125.832075,-2738.761985,6439.791695,1378.971896
125.832384,-7402.059420,3997.112087,10265.679673
125.832694,296.082377,4441.235652,3677.258390
125.833003,2516.700203,5033.400406,-4979.620737
125.833313,3775.050304,11695.253884,-4979.620737
125.833622,-5551.544565,13101.645173,-766.095498
125.833932,-740.205942,14434.015869,-536.266849
125.834241,3108.864956,11843.295072,-5362.668486
125.834551,6217.729913,8586.388927,-4136.915689
125.834860,-2960.823768,8882.471304,2604.724693
125.835170,-6365.771101,4737.318029,5975.544884
125.835479,-518.144159,4737.318029,842.705048
125.835789,5329.482782,9252.574275,-7354.516781
125.836098,666.185348,15766.386565,-7507.735880
125.836408,-3478.967927,11325.150913,-612.876398
125.836717,-444.123565,13545.768739,2298.286494
125.837027,3849.070898,14285.974681,-4673.182538
125.837336,6661.853478,6809.894666,-3907.087040
125.837646,-3627.009116,5107.421000,5898.935335
125.837955,-4145.153275,1776.494261,8656.879127
125.838264,148.041188,6439.791695,0.000000
125.838574,5329.482782,7105.977043,-9422.974625
125.838883,3478.967927,11399.171507,-7890.783629
125.839193,-9548.656652,14285.974681,612.876398
125.839502,-2072.576638,14878.139434,919.314598
125.839812,4515.256246,11991.336260,-8580.269578
125.840122,5773.606348,7846.182985,-3677.258390
125.840431,-6439.791695,5921.647536,6435.202183
125.840741,-6069.688724,888.247130,9193.145976
125.841050,4959.379811,7476.080014,-766.095498
125.841360,2738.761985,9252.574275,-2145.067394
125.841669,1998.556043,13397.727550,-2681.334243
125.841979,-6587.832884,11399.171507,229.828649
125.842288,814.226536,15174.221811,-1608.800546
125.842598,5477.523971,15322.262999,-8963.317327
125.842907,4441.235652,8290.306550,-3370.820191
125.843217,-5181.441594,7328.038826,3677.258390
125.843526,-5551.544565,2590.720797,10418.898773
125.843836,3256.906145,8364.327145,-76.609550
125.844146,4959.379811,7476.080014,-7584.345430
125.844455,888.247130,10658.965565,-2145.067394
125.844765,-6291.750507,10955.047942,4826.401637
125.845074,-222.061783,12435.459826,-1762.019645
125.845384,5329.482782,12361.439231,-10035.851024
125.845693,5181.441594,9252.574275,-6588.421283
125.846003,-5477.523971,7105.977043,4366.744339
125.846312,-5255.462188,6143.709319,7201.297681
125.846622,4219.173869,11547.212695,-2987.772442
125.846931,7031.956449,5477.523971,-7584.345430
125.847241,-2590.720797,11769.274478,536.266849
125.847550,-9548.656652,8734.430116,4749.792088
125.847860,1110.308913,15470.304188,-1532.190996
125.848170,6069.688724,11547.212695,-9269.755526
125.848479,5403.503377,7920.203579,-7354.516781
125.848789,-7624.121203,10066.800811,5975.544884
125.849098,-2516.700203,6957.935855,5898.935335
125.849408,3923.091493,8512.368333,-3677.258390
125.849717,8586.388927,8956.491898,-6665.030833
125.850027,-1036.288319,10140.821405,-2987.772442
125.850336,-8956.491898,10955.047942,2681.334243
125.850646,222.061783,12953.603985,-612.876398
125.850955,8438.347739,9474.636058,-10495.508323
125.851265,3256.906145,9474.636058,-4826.401637
125.851574,-7920.203579,7179.997637,10112.460574
125.851884,-1924.535449,5551.544565,5669.106685
125.852194,2886.803174,7994.224174,-4749.792088
125.852503,7920.203579,7994.224174,-5209.449386
125.852813,-5477.523971,10362.883188,1225.752797
125.853122,-8882.471304,10955.047942,2221.676944
125.853432,4811.338623,13767.830521,-3983.696590
125.853741,5847.626942,9400.615463,-10342.289223
125.854051,2146.597232,11029.068536,-2451.505594
125.854360,-12509.480420,4811.338623,8197.221829
125.854670,444.123565,7105.977043,3830.477490
125.854979,5847.626942,5329.482782,-6052.154434
125.855289,6513.812290,7994.224174,-2987.772442
125.855598,-6217.729913,10584.944971,3600.648841
125.855908,-3701.029710,11695.253884,153.219100
125.856218,4071.132681,15322.262999,-5898.935335
125.856527,5625.565159,9696.697840,-8656.879127
125.856837,592.164754,10288.862594,-3294.210641
125.857146,-10288.862594,9252.574275,7814.174080
125.857456,1406.391290,7994.224174,3524.039291
125.857765,5181.441594,5255.462188,-8503.660028
125.858075,2886.803174,9252.574275,-4826.401637
125.858384,-6291.750507,9178.553681,4673.182538
125.858694,-2886.803174,10436.903782,919.314598
125.859003,4145.153275,13841.851115,-5669.106685
125.859313,3701.029710,9400.615463,-5132.839837
125.859622,-2072.576638,8882.471304,-153.219100
125.859932,-6069.688724,8068.244768,3753.867940
125.860242,1406.391290,10288.862594,-995.924147
125.860551,3849.070898,6291.750507,-6971.469032
125.860861,2960.823768,7476.080014,-4136.915689
125.861170,-6735.874072,9992.780217,3370.820191
125.861480,-1480.411884,9844.739029,5362.668486
125.861789,4663.297435,11843.295072,-3140.991542
125.862099,6883.915261,9178.553681,-4596.572988
125.862408,-1850.514855,8956.491898,1608.800546
125.862718,-5625.565159,7550.100608,5286.058936
125.863027,-222.061783,9030.512492,-689.485948
125.863337,3330.926739,10288.862594,-9116.536426
125.863646,2442.679609,10658.965565,-6588.421283
125.863956,-5329.482782,10955.047942,383.047749
125.864266,-2738.761985,13915.871710,5286.058936
125.864575,5107.421000,13989.892304,-3753.867940
125.864885,5847.626942,7476.080014,-5592.497135
125.865194,-4219.173869,8956.491898,2451.505594
125.865504,-4811.338623,7254.018232,6971.469032
125.865813,3849.070898,6217.729913,-2298.286494
125.866123,4663.297435,5773.606348,-9269.755526
125.866432,-592.164754,8290.306550,-2987.772442
125.866742,-7476.080014,10214.842000,2987.772442
125.867051,1554.432478,8882.471304,2757.943793
125.867361,3404.947333,10510.924376,-3370.820191
125.867670,5699.585753,9844.739029,-2298.286494
125.867980,-4145.153275,7105.977043,2834.553343
125.868290,-5921.647536,6513.812290,4903.011187
125.868599,-0.000000,9030.512492,1838.629195
125.868909,4071.132681,9918.759623,-9116.536426
125.869218,2442.679609,11695.253884,-6588.421283
125.869528,-8660.409521,12805.562797,2374.896044
125.869837,1924.535449,14508.036463,2068.457845
125.870147,5033.400406,13545.768739,-7431.126331
125.870456,5699.585753,10584.944971,-4290.134789
125.870766,-4663.297435,8142.265362,5898.935335
125.871075,-4293.194464,5181.441594,5209.449386
125.871385,2664.741391,9400.615463,-1991.848295
125.871694,2294.638420,8586.388927,-9499.584175
125.872004,1702.473667,9770.718434,-3753.867940
125.872314,-8512.368333,10584.944971,2604.724693
125.872623,740.205942,10436.903782,842.705048
125.872933,6513.812290,10140.821405,-5898.935335
125.873242,6217.729913,7772.162391,-6128.763984
125.873552,-7772.162391,4885.359217,7201.297681
125.873861,-5847.626942,5699.585753,9806.022374
125.874171,5551.544565,9326.594869,-4979.620737
125.874480,6291.750507,8216.285956,-10265.679673
125.874790,-3330.926739,9918.759623,-1072.533697
125.875099,-8142.265362,11029.068536,2604.724693
125.875409,4293.194464,13101.645173,-3524.039291
125.875718,4663.297435,10881.027347,-5822.325785
125.876028,1776.494261,8660.409521,76.609550
125.876338,-6735.874072,8882.471304,6894.859482
125.876647,-1554.432478,9474.636058,4596.572988
125.876957,3997.112087,9770.718434,-6741.640382
125.877266,5551.544565,10436.903782,-10801.946522
125.877576,-518.144159,9474.636058,-2757.943793
125.877885,-7772.162391,11029.068536,4213.525239
125.878195,3627.009116,12805.562797,-459.657299
125.878504,3256.906145,9030.512492,-7048.078582
125.878814,3923.091493,6735.874072,2145.067394
125.879123,-7105.977043,6809.894666,8886.707777
125.879433,-1036.288319,7846.182985,4136.915689
125.879742,962.267725,5921.647536,-6588.421283
125.880052,4885.359217,6661.853478,-11108.384721
125.880362,-4145.153275,10288.862594,-4213.525239
125.880671,-7698.141797,12139.377449,2834.553343
125.880981,1184.329507,13101.645173,612.876398
125.881290,7550.100608,9548.656652,-6894.859482
125.881600,3404.947333,9104.533087,383.047749
125.881909,-10140.821405,7254.018232,9652.803275
125.882219,-444.123565,6291.750507,4366.744339
125.882528,6291.750507,9622.677246,-9652.803275
125.882838,5255.462188,10807.006753,-10725.336972
125.883147,-5699.585753,13767.830521,766.095498
125.883457,-5181.441594,13619.789333,2298.286494
125.883766,4737.318029,11769.274478,-3524.039291
125.884076,4441.235652,10066.800811,-6435.202183
125.884386,814.226536,6365.771101,76.609550
125.884695,-8512.368333,4515.256246,6588.421283
125.885005,-148.041188,9844.739029,0.000000
125.885314,5699.585753,9326.594869,-10801.946522
125.885624,3701.029710,9104.533087,-6818.249932
125.885933,-5625.565159,9548.656652,3140.991542
125.886243,-3034.844362,15692.365970,3907.087040
125.886552,6883.915261,12953.603985,-2834.553343
125.886862,5477.523971,4663.297435,-4366.744339
125.887171,-2738.761985,2886.803174,5362.668486
125.887481,-7698.141797,3997.112087,7814.174080
125.887790,1406.391290,7105.977043,0.000000
125.888100,3627.009116,10436.903782,-9959.241474
125.888410,518.144159,9548.656652,-8503.660028
125.888719,-9252.574275,13323.706956,-153.219100
125.889029,1036.288319,13101.645173,1532.190996
125.889338,5773.606348,10214.842000,-2757.943793
125.889648,2664.741391,10214.842000,-2451.505594
125.889957,-1332.370696,7920.203579,6665.030833
125.890267,-4737.318029,4663.297435,9116.536426
125.890576,148.041188,10066.800811,1072.533697
125.890886,5921.647536,10584.944971,-9346.365076
125.891195,2294.638420,10584.944971,-10878.556072
125.891505,-8290.306550,13989.892304,-153.219100
125.891814,-4367.215058,13397.727550,1532.190996
125.892124,7698.141797,12657.521608,-6128.763984
125.892434,6957.935855,6809.894666,-4979.620737
125.892743,-4071.132681,5033.400406,9806.022374
125.893053,-10140.821405,2368.659014,13866.328514
125.893362,4145.153275,6365.771101,1072.533697
125.893672,5181.441594,7105.977043,-11031.775171
125.893981,1924.535449,12583.501014,-8810.098227
125.894291,-9030.512492,13249.686362,-766.095498
125.894600,-222.061783,13619.789333,-1838.629195
125.894910,5477.523971,12065.356855,-6588.421283
125.895219,5773.606348,6883.915261,-1762.019645
125.895529,-3330.926739,5403.503377,9499.584175
125.895838,-5699.585753,3627.009116,13253.452115
125.896148,4885.359217,7698.141797,1762.019645
125.896458,3034.844362,8438.347739,-9499.584175
125.896767,1332.370696,14137.933492,-7507.735880
125.897077,-9252.574275,16654.633695,-1532.190996
125.897386,-888.247130,16358.551318,-7737.564530
125.897696,6661.853478,12213.398043,-8427.050478
125.898005,2886.803174,8068.244768,-1608.800546
125.898315,-4589.276840,8216.285956,9882.631924
125.898624,-3849.070898,7105.977043,10572.117872
125.898934,4589.276840,4589.276840,1302.362347
125.899243,4737.318029,4959.379811,-5669.106685
125.899553,-1554.432478,10066.800811,-4136.915689
125.899862,-6735.874072,13471.748144,-3753.867940
125.900172,-2738.761985,14211.954086,-7431.126331
125.900482,5477.523971,11325.150913,-7277.907231
125.900791,5107.421000,9474.636058,-6281.983084
125.901101,-2886.803174,5477.523971,5132.839837
125.901410,-7476.080014,1110.308913,16164.615008
125.901720,2368.659014,4293.194464,4290.134789
125.902029,3923.091493,6439.791695,-5898.935335
125.902339,1480.411884,12657.521608,-3064.381992
125.902648,-6661.853478,14730.098246,-2451.505594
125.902958,2442.679609,12731.542202,-4979.620737
125.903267,1702.473667,14137.933492,-6665.030833
125.903577,1628.453072,10214.842000,-3064.381992
125.903886,-4885.359217,9918.759623,3753.867940
125.904196,-2664.741391,6587.832884,7660.954980
125.904506,3627.009116,7031.956449,-2145.067394
125.904815,1998.556043,7698.141797,-7354.516781
125.905125,-1036.288319,12065.356855,-2834.553343
125.905434,-7698.141797,11843.295072,0.000000
125.905744,2738.761985,13323.706956,-9806.022374
125.906053,6661.853478,11473.192101,-8963.317327
125.906363,2220.617826,7624.121203,-2221.676944
125.906672,-5921.647536,6069.688724,7890.783629
125.906982,-1406.391290,1110.308913,7967.393179
125.907291,4071.132681,3404.947333,-612.876398
125.907601,3108.864956,6883.915261,-3907.087040
125.907910,-1036.288319,13249.686362,-2987.772442
125.908220,-5699.585753,12509.480420,-3140.991542
125.908530,-1850.514855,15544.324782,-4673.182538
125.908839,6661.853478,9548.656652,-8810.098227
125.909149,2442.679609,8438.347739,-4596.572988
125.909458,-6809.894666,6735.874072,8120.612279
125.909768,-4219.173869,3923.091493,10725.336972
125.910077,5181.441594,8734.430116,-5592.497135
125.910387,3775.050304,13249.686362,-6971.469032
125.910696,-2516.700203,13323.706956,1378.971896
125.911006,-7476.080014,14211.954086,0.000000
125.911315,2146.597232,15840.407159,-8120.612279
125.911625,3701.029710,13249.686362,-12257.527968
125.911934,740.205942,11029.068536,-3677.258390
125.912244,-6217.729913,4959.379811,5515.887586
125.912554,-518.144159,5625.565159,5515.887586
125.912863,4811.338623,7698.141797,-1991.848295
125.913173,4293.194464,4737.318029,-2911.162892
125.913482,-3701.029710,8290.306550,4979.620737
125.913792,-4441.235652,10881.027347,2834.553343
125.914101,4737.318029,12361.439231,-7354.516781
125.914411,2960.823768,9696.697840,-11108.384721
125.914720,-148.041188,9326.594869,-2145.067394
125.915030,-6957.935855,5625.565159,3830.477490
125.915339,2442.679609,6957.935855,2298.286494
125.915649,4071.132681,7550.100608,-5592.497135
125.915958,2590.720797,7624.121203,-2221.676944
125.916268,-4959.379811,10732.986159,3907.087040
125.916578,-2960.823768,9474.636058,2145.067394
125.916887,3627.009116,16580.613101,-8580.269578
125.917197,1258.350101,17098.757260,-9039.926876
125.917506,-592.164754,11029.068536,-842.705048
125.917816,-8586.388927,7105.977043,5439.278036
125.918125,4663.297435,10288.862594,842.705048
125.918435,3034.844362,8438.347739,-3524.039291
125.918744,2294.638420,8068.244768,-1378.971896
125.919054,-5551.544565,9548.656652,3983.696590
125.919363,-3775.050304,9252.574275,-1455.581446
125.919673,5625.565159,11991.336260,-7814.174080
125.919982,2368.659014,8956.491898,-6281.983084
125.920292,-0.000000,8808.450710,1302.362347
125.920602,-8142.265362,6291.750507,8656.879127
125.920911,3478.967927,5181.441594,3447.429741
125.921221,6365.771101,2368.659014,-7737.564530
125.921530,296.082377,7328.038826,-306.438199
125.921840,-7105.977043,12065.356855,4443.353888
125.922149,-2812.782580,8956.491898,-2221.676944
125.922459,5847.626942,13693.809927,-8886.707777
125.922768,2590.720797,12657.521608,-4749.792088
125.923078,-2812.782580,11917.315666,689.485948
125.923387,-9474.636058,8364.327145,5822.325785
125.923697,5551.544565,11177.109724,1685.410096
125.924006,7698.141797,9474.636058,-8273.831378
125.924316,518.144159,8068.244768,306.438199
125.924626,-10881.027347,10881.027347,7584.345430
125.924935,-1554.432478,11325.150913,-1532.190996
125.925245,7846.182985,13767.830521,-14325.985813
125.925554,1258.350101,10214.842000,-4979.620737
125.925864,-3256.906145,11547.212695,4749.792088
125.926173,-2368.659014,8734.430116,1991.848295
125.926483,4663.297435,7550.100608,-995.924147
125.926792,2442.679609,4811.338623,-612.876398
125.927102,2146.597232,10288.862594,0.000000
125.927411,-5847.626942,7624.121203,76.609550
125.927721,-1776.494261,8142.265362,2757.943793
125.928030,4293.194464,10214.842000,-4519.963438
125.928340,4293.194464,9178.553681,-8044.002729
125.928650,-4219.173869,9030.512492,3600.648841
125.928959,-7328.038826,8512.368333,5898.935335
125.929269,5033.400406,10584.944971,-5592.497135
125.929578,3701.029710,6069.688724,-7431.126331
125.929888,-962.267725,8734.430116,1149.143247
125.930197,-7920.203579,10066.800811,3753.867940
125.930507,3404.947333,12435.459826,-229.828649
125.930816,3775.050304,9474.636058,-4749.792088
125.931126,1924.535449,9474.636058,-1991.848295
125.931435,-6365.771101,11695.253884,4136.915689
125.931745,-7105.977043,9696.697840,1838.629195
125.932054,5847.626942,11325.150913,-8886.707777
125.932364,3478.967927,7994.224174,-11108.384721
125.932674,-0.000000,13323.706956,1608.800546
125.932983,-4219.173869,11769.274478,3447.429741
125.933293,4441.235652,9326.594869,-2145.067394
125.933602,4145.153275,8956.491898,-2145.067394
125.933912,148.041188,4737.318029,1532.190996
125.934221,-4737.318029,6069.688724,4903.011187
125.934531,-4145.153275,5699.585753,2911.162892
125.934840,4367.215058,11843.295072,-6665.030833
125.935150,2442.679609,9548.656652,-10955.165621
125.935459,592.164754,13397.727550,-2757.943793
125.935769,-6143.709319,8438.347739,5898.935335
125.936078,2664.741391,11695.253884,-1685.410096
125.936388,6883.915261,7105.977043,-6281.983084
125.936698,1110.308913,6661.853478,612.876398
125.937007,-6809.894666,9770.718434,8273.831378
125.937317,-1776.494261,6957.935855,3677.258390
125.937626,7105.977043,9474.636058,-7431.126331
125.937936,2220.617826,10510.924376,-6971.469032
125.938245,-3997.112087,13323.706956,2374.896044
125.938555,-7105.977043,10510.924376,2374.896044
125.938864,4071.132681,15026.180623,-5822.325785
125.939174,4589.276840,8734.430116,-10112.460574
125.939483,444.123565,6217.729913,-689.485948
125.939793,-7624.121203,9178.553681,6971.469032
125.940102,-2516.700203,6809.894666,2528.115143
125.940412,4885.359217,9918.759623,-6358.592633
125.940721,3182.885551,8216.285956,-6205.373534
125.941031,444.123565,10288.862594,919.314598
125.941341,-6217.729913,10288.862594,2987.772442
125.941650,3108.864956,10732.986159,1072.533697
125.941960,2146.597232,6439.791695,-7431.126331
125.942269,2516.700203,5625.565159,-383.047749
125.942579,-7476.080014,5625.565159,6971.469032
125.942888,-2442.679609,9844.739029,3217.601092
125.943198,3997.112087,12731.542202,-8350.440928
125.943507,3997.112087,9474.636058,-9499.584175
125.943817,-2072.576638,11029.068536,306.438199
125.944126,-7698.141797,13323.706956,5286.058936
125.944436,6217.729913,14804.118840,-2911.162892
125.944745,5995.668130,9178.553681,-7277.907231
125.945055,962.267725,8956.491898,5669.106685
125.945364,-8734.430116,5995.668130,11414.822920
125.945674,2368.659014,8660.409521,2911.162892
125.945983,4367.215058,11991.336260,-12487.356617
125.946293,3552.988522,11843.295072,-10648.727422
125.946602,-5847.626942,15396.283594,2068.457845
125.946912,-5995.668130,10584.944971,2681.334243
125.947221,7772.162391,11029.068536,-6741.640382
125.947531,3627.009116,6809.894666,-7737.564530
125.947841,-814.226536,1850.514855,7660.954980
125.948150,-8364.327145,3404.947333,12257.527968
125.948460,5847.626942,5551.544565,536.266849
125.948769,5625.565159,10732.986159,-8963.317327
125.949079,2960.823768,7994.224174,-5056.230287
125.949388,-6365.771101,14359.995275,1455.581446
125.949698,-4293.194464,11029.068536,-229.828649
125.950007,4293.194464,11843.295072,-8580.269578
125.950317,5107.421000,8438.347739,-7431.126331
125.950626,-2368.659014,7031.956449,4903.011187
125.950936,-7031.956449,4293.194464,11338.213370
125.951245,1702.473667,8290.306550,2451.505594
125.951555,5181.441594,11695.253884,-9039.926876
125.951864,1924.535449,13175.665768,-5132.839837
125.952174,-7550.100608,15248.242405,2528.115143
125.952483,-1998.556043,12065.356855,-766.095498
125.952793,4219.173869,15988.448347,-8044.002729
125.953102,4441.235652,6587.832884,-7354.516781
125.953412,-2960.823768,4737.318029,8044.002729
125.953721,-7772.162391,6809.894666,10648.727422
125.954031,4367.215058,8364.327145,-1378.971896
125.954341,4811.338623,7994.224174,-9959.241474
125.954650,370.102971,8586.388927,-2221.676944
125.954960,-6365.771101,9400.615463,4826.401637
125.955269,-296.082377,13397.727550,0.000000
125.955579,4071.132681,14285.974681,-11644.651570
125.955888,888.247130,6883.915261,-6128.763984
125.956198,-4145.153275,5107.421000,6971.469032
125.956507,-6587.832884,3182.885551,6435.202183
125.956817,6365.771101,11177.109724,-3830.477490
125.957126,2738.761985,10584.944971,-11644.651570
125.957436,962.267725,10658.965565,-1532.190996
125.957745,-7328.038826,10584.944971,4290.134789
125.958055,2886.803174,16210.510130,-306.438199
125.958364,5847.626942,13027.624579,-8810.098227
125.958674,1998.556043,6661.853478,-7737.564530
125.958983,-7105.977043,6069.688724,9039.926876
125.959293,-5921.647536,5107.421000,6665.030833
125.959602,5403.503377,9178.553681,-7277.907231
125.959912,962.267725,8142.265362,-9422.974625
125.960221,-888.247130,12657.521608,842.705048
125.960531,-7846.182985,8586.388927,2298.286494
125.960841,2738.761985,12953.603985,-3677.258390
125.961150,6069.688724,11399.171507,-9576.193725
125.961460,-1184.329507,3775.050304,-612.876398
125.961769,-4441.235652,6439.791695,10725.336972
125.962079,-2442.679609,4663.297435,7277.907231
125.962388,7624.121203,9992.780217,-5822.325785
125.962698,2664.741391,7402.059420,-9346.365076
125.963007,-1480.411884,12879.583391,1685.410096
125.963317,-7846.182985,10881.027347,306.438199
125.963626,4663.297435,12287.418637,-7277.907231
125.963936,4071.132681,10436.903782,-9039.926876
125.964245,-592.164754,8660.409521,2681.334243
125.964555,-4145.153275,9400.615463,9039.926876
125.964864,-2220.617826,5625.565159,3983.696590
125.965174,6513.812290,10732.986159,-4903.011187
125.965483,-0.000000,9400.615463,-4213.525239
125.965793,444.123565,13471.748144,0.000000
125.966102,-6809.894666,11769.274478,-383.047749
125.966412,5107.421000,17246.798449,-6971.469032
125.966721,3552.988522,11103.089130,-10418.898773
125.967031,962.267725,6513.812290,-4826.401637
125.967341,-4663.297435,5477.523971,9422.974625
125.967650,-814.226536,3182.885551,4519.963438
125.967960,5847.626942,9548.656652,-4749.792088
125.968269,962.267725,6143.709319,-3907.087040
125.968579,-888.247130,10510.924376,-459.657299
125.968888,-4959.379811,11029.068536,-229.828649
125.969198,5847.626942,16062.468941,-4673.182538
125.969507,3701.029710,10732.986159,-7354.516781
125.969817,1628.453072,4811.338623,-1762.019645
125.970126,-6143.709319,4959.379811,5898.935335
125.970436,-2368.659014,4959.379811,6281.983084
125.970745,4959.379811,8586.388927,-3830.477490
125.971055,2072.576638,7105.977043,-6511.811733
125.971364,-518.144159,12361.439231,5898.935335
125.971674,-6143.709319,11029.068536,229.828649
125.971983,5625.565159,17098.757260,-6435.202183
125.972293,2072.576638,13101.645173,-8656.879127
125.972602,-222.061783,10584.944971,-536.266849
125.972912,-11177.109724,10584.944971,2987.772442
125.973222,296.082377,8364.327145,-842.705048
125.973531,4885.359217,11621.233289,-11184.994271
125.973841,518.144159,10066.800811,-9806.022374
125.974150,-4737.318029,16062.468941,-1991.848295
125.974460,-3775.050304,9622.677246,-1532.190996
125.974769,4293.194464,14508.036463,-6665.030833
125.975079,888.247130,9992.780217,-10035.851024
125.975388,2294.638420,4885.359217,-4213.525239
125.975698,-1702.473667,3108.864956,3294.210641
125.976007,-74.020594,5477.523971,-1762.019645
125.976317,2072.576638,9400.615463,-7967.393179
125.976626,1776.494261,9104.533087,-10572.117872
125.976936,-3997.112087,9252.574275,-6052.154434
125.977245,-444.123565,12065.356855,-7890.783629
125.977555,740.205942,12213.398043,-13253.452115
125.977864,2368.659014,10362.883188,-14249.376263
125.978174,2220.617826,5255.462188,-10725.336972
125.978483,-1184.329507,5477.523971,-4290.134789
125.978793,3034.844362,4219.173869,1225.752797
125.979102,-1036.288319,6143.709319,306.438199
125.979412,888.247130,11843.295072,-5439.278036
125.979722,3404.947333,10955.047942,-12487.356617
125.980031,-3330.926739,13175.665768,-16011.395908
125.980341,-740.205942,16062.468941,-15934.786358
125.980650,-3404.947333,14211.954086,-14709.033562
125.980960,370.102971,14582.057057,-15321.909960
125.981269,74.020594,7476.080014,-10265.679673
125.981579,592.164754,6143.709319,-4826.401637
125.981888,3404.947333,1628.453072,0.000000
125.982198,592.164754,2220.617826,1455.581446
125.982507,-2442.679609,5625.565159,536.266849
125.982817,-1332.370696,8512.368333,-8427.050478
125.983126,-0.000000,10214.842000,-19765.263848
125.983436,-2146.597232,14878.139434,-18156.463303
125.983745,-3256.906145,15100.201217,-14402.595362
125.984055,-4367.215058,13175.665768,-14402.595362
125.984364,592.164754,7550.100608,-11414.822920
125.984674,-2072.576638,7476.080014,-10495.508323
125.984983,1110.308913,4737.318029,-6128.763984
125.985293,3034.844362,6365.771101,-2374.896044
125.985602,1998.556043,3849.070898,-2221.676944
125.985912,-666.185348,7772.162391,-4903.011187
125.986222,-2738.761985,10807.006753,-9806.022374
125.986531,-3701.029710,12731.542202,-17160.539155
125.986841,296.082377,15026.180623,-21297.454844
125.987150,2220.617826,13841.851115,-19918.482948
125.987460,1110.308913,11399.171507,-13330.061665
125.987769,-1258.350101,7105.977043,-8350.440928
125.988079,-74.020594,6513.812290,-3753.867940
125.988388,592.164754,7179.997637,-3524.039291
125.988698,1924.535449,6439.791695,-6052.154434
125.989007,3552.988522,7994.224174,-12717.185267
125.989317,5921.647536,7624.121203,-14172.766713
125.989626,-1406.391290,9474.636058,-9729.412825
125.989936,-2960.823768,13249.686362,-6741.640382
125.990245,3997.112087,13767.830521,-9806.022374
125.990555,-0.000000,13027.624579,-12410.747068
125.990864,-2368.659014,11769.274478,-9806.022374
125.991174,-2590.720797,8882.471304,-11874.480219
125.991483,4737.318029,9992.780217,-18539.511052
125.991793,-0.000000,8586.388927,-15781.567259
125.992102,-3701.029710,11399.171507,-4290.134789
125.992412,-0.000000,10955.047942,-3370.820191
125.992722,5255.462188,9326.594869,-10801.946522
125.993031,1480.411884,8142.265362,-6894.859482
125.993341,-1998.556043,4441.235652,-3753.867940
125.993650,-3701.029710,5625.565159,-8350.440928
125.993960,1036.288319,10584.944971,-15475.129060
125.994269,2812.782580,13027.624579,-18156.463303
125.994579,-888.247130,14137.933492,-12410.747068
125.994888,-3552.988522,12509.480420,-2604.724693
125.995198,-1924.535449,9622.677246,-4673.182538
125.995507,740.205942,5329.482782,-9882.631924
125.995817,-592.164754,5921.647536,-7660.954980
125.996126,-3923.091493,5995.668130,-6588.421283
125.996436,-1776.494261,10066.800811,-9959.241474
125.996745,-296.082377,14285.974681,-13636.499864
125.997055,-1776.494261,16358.551318,-16088.005458
125.997364,-1258.350101,15914.427753,-14709.033562
125.997674,-444.123565,14656.077652,-10265.679673
125.997983,1850.514855,8882.471304,-9116.536426
125.998293,3478.967927,3552.988522,-9652.803275
125.998602,1332.370696,-2072.576638,-5745.716235
125.998912,-1406.391290,148.041188,-842.705048
125.999222,-740.205942,4441.235652,-5669.106685
125.999531,2146.597232,9474.636058,-12334.137518
125.999841,2146.597232,14285.974681,-14325.985813
126.000150,296.082377,15618.345376,-14709.033562
126.000460,666.185348,17542.880825,-14785.643111
126.000769,592.164754,12435.459826,-14709.033562
126.001079,-666.185348,8882.471304,-12027.699319
126.001388,-0.000000,6809.894666,-5362.668486
126.001698,-1702.473667,8586.388927,-4519.963438
126.002007,1258.350101,8956.491898,-9806.022374
126.002317,1850.514855,9622.677246,-15092.081311
126.002626,-0.000000,10584.944971,-15628.348159
126.002936,-2590.720797,13397.727550,-12717.185267
126.003245,-148.041188,13693.809927,-12027.699319
126.003555,2442.679609,11769.274478,-11568.042020
126.003864,1036.288319,8216.285956,-8963.317327
126.004174,-2368.659014,814.226536,-8733.488677
126.004483,-0.000000,-518.144159,-6818.249932
126.004793,296.082377,3256.906145,-8197.221829
126.005103,296.082377,10066.800811,-7124.688131
126.005412,444.123565,13101.645173,-8810.098227
126.005722,-1554.432478,15322.262999,-11721.261119
126.006031,-814.226536,15100.201217,-12257.527968
126.006341,-1332.370696,12139.377449,-11491.432470
126.006650,-1406.391290,10214.842000,-12334.137518
126.006960,-518.144159,8660.409521,-9499.584175
126.007269,-0.000000,7476.080014,-7354.516781
126.007579,-814.226536,8364.327145,-6205.373534
126.007888,1110.308913,9326.594869,-6665.030833
126.008198,-74.020594,9548.656652,-8656.879127
126.008507,1258.350101,6291.750507,-11414.822920
126.008817,814.226536,7105.977043,-9652.803275
126.009126,2146.597232,7254.018232,-6894.859482
126.009436,-2220.617826,5699.585753,-3447.429741
126.009745,1110.308913,6587.832884,-3524.039291
126.010055,2294.638420,8438.347739,-7507.735880
126.010364,962.267725,7476.080014,-6971.469032
126.010674,-444.123565,11251.130318,-2757.943793
126.010983,-518.144159,12509.480420,-4519.963438
126.011293,370.102971,12435.459826,-9193.145976
126.011603,-3256.906145,11473.192101,-8656.879127
126.011912,-3552.988522,11103.089130,-9576.193725
126.012222,-2516.700203,9474.636058,-14019.547613
126.012531,-2664.741391,10436.903782,-14555.814462
126.012841,-2960.823768,11029.068536,-11184.994271
126.013150,-1036.288319,12065.356855,-10495.508323
126.013460,148.041188,12879.583391,-9729.412825
126.013769,-148.041188,13323.706956,-8427.050478
126.014079,-814.226536,12213.398043,-10572.117872
126.014388,-814.226536,10584.944971,-12257.527968
126.014698,-1776.494261,9474.636058,-15245.300410
126.015007,-444.123565,8216.285956,-18386.291952
126.015317,1554.432478,7772.162391,-18999.168350
126.015626,2442.679609,7402.059420,-11108.384721
126.015936,3108.864956,6883.915261,-8044.002729
126.016245,9178.553681,1850.514855,-3753.867940
126.016555,-6883.915261,-1258.350101,2987.772442
126.016864,5477.523971,6439.791695,306.438199
126.017174,1184.329507,-148.041188,-11108.384721
126.017483,7402.059420,10140.821405,-23902.179538
126.017793,-8216.285956,10066.800811,-21374.064394
126.018103,-4515.256246,16432.571912,-20378.140247
126.018412,1036.288319,18135.045579,-23825.569988
126.018722,4959.379811,16580.613101,-20837.797546
126.019031,2368.659014,14804.118840,-8733.488677
126.019341,-2146.597232,7476.080014,842.705048
126.019650,5329.482782,3997.112087,-5132.839837
126.019960,18283.086767,6735.874072,-6128.763984
126.020269,1776.494261,10881.027347,4749.792088
126.020579,-13915.871710,-3108.864956,-12410.747068
126.020888,-8586.388927,-518.144159,-37691.898502
126.021198,-14211.954086,12435.459826,-14019.547613
126.021507,5033.400406,29090.093521,-3677.258390
126.021817,-8068.244768,16950.716072,-14096.157163
126.022126,1184.329507,8660.409521,-24668.275036
126.022436,-6365.771101,9696.697840,-11261.603821
126.022745,-8808.450710,-888.247130,-8886.707777
126.023055,-2960.823768,8660.409521,-7737.564530
126.023364,-444.123565,14434.015869,-3447.429741
126.023674,18283.086767,20429.683999,-17773.415554
126.023983,-6883.915261,2886.803174,-14862.252661
126.024293,-6809.894666,15914.427753,1915.238745
126.024603,-6957.935855,1332.370696,-1762.019645
126.024912,962.267725,8734.430116,-27426.218828
126.025222,2886.803174,6735.874072,-20301.530697
126.025531,-3330.926739,9178.553681,-10495.508323
126.025841,-1110.308913,9178.553681,-11261.603821
126.026150,4367.215058,12879.583391,-11414.822920
126.026460,7920.203579,9400.615463,-11644.651570
126.026769,-2812.782580,4071.132681,-3677.258390
126.027079,-74.020594,5995.668130,7431.126331
126.027388,-2516.700203,4367.215058,-153.219100
126.027698,7698.141797,10658.965565,-20071.702048
126.028007,1702.473667,11547.212695,-20301.530697
126.028317,-4145.153275,14730.098246,-10572.117872
126.028626,2072.576638,14211.954086,-10801.946522
126.028936,5921.647536,19319.375086,-15934.786358
126.029245,-592.164754,13397.727550,-6741.640382
126.029555,-5255.462188,10732.986159,-1532.190996
126.029864,2516.700203,5107.421000,-10265.679673
126.030174,1480.411884,6809.894666,-17773.415554
126.030483,-1110.308913,6365.771101,-14709.033562
126.030793,2886.803174,9918.759623,-8503.660028
126.031103,-74.020594,13101.645173,-3753.867940
126.031412,1924.535449,14804.118840,-1838.629195
126.031722,-370.102971,12139.377449,-3830.477490
126.032031,-1036.288319,11547.212695,-9039.926876
126.032341,-1776.494261,7846.182985,-12027.699319
126.032650,-3182.885551,4441.235652,-10112.460574
126.032960,-4885.359217,7550.100608,-14785.643111
126.033269,-2738.761985,8364.327145,-9269.755526
126.033579,-5551.544565,11251.130318,-5898.935335
126.033888,1036.288319,13989.892304,-9039.926876
126.034198,2442.679609,12435.459826,-10265.679673
126.034507,-0.000000,7698.141797,-3217.601092
126.034817,-4737.318029,5033.400406,-612.876398
126.035126,-2220.617826,1628.453072,-9193.145976
126.035436,-1628.453072,8364.327145,-13253.452115
126.035745,2960.823768,14804.118840,-15245.300410
126.036055,296.082377,15544.324782,-17237.148705
126.036364,-2220.617826,16950.716072,-12027.699319
126.036674,2442.679609,11991.336260,-9116.536426
126.036983,-6069.688724,7105.977043,-10878.556072
126.037293,444.123565,6291.750507,-9346.365076
126.037603,4737.318029,444.123565,-7737.564530
126.037912,-2442.679609,2960.823768,-3983.696590
126.038222,666.185348,8956.491898,-766.095498
126.038531,74.020594,7105.977043,-8886.707777
126.038841,2368.659014,13693.809927,-16164.615008
126.039150,4441.235652,11843.295072,-13636.499864
126.039460,-5847.626942,13915.871710,-9269.755526
126.039769,2960.823768,13471.748144,-11108.384721
126.040079,740.205942,7031.956449,-11951.089769
126.040388,962.267725,8586.388927,-7660.954980
126.040698,4219.173869,2294.638420,-3600.648841
126.041007,-4367.215058,5921.647536,2834.553343
126.041317,-74.020594,12953.603985,3830.477490
126.041626,3404.947333,13249.686362,-9116.536426
126.041936,4737.318029,15766.386565,-16930.710506
126.042245,-3627.009116,9178.553681,-10955.165621
126.042555,-7920.203579,13397.727550,-2681.334243
126.042864,222.061783,8734.430116,-6281.983084
126.043174,2960.823768,11399.171507,-9269.755526
126.043483,-222.061783,6735.874072,-3370.820191
126.043792,-4737.318029,3997.112087,3370.820191
126.044102,-4441.235652,9548.656652,4826.401637
126.044411,-1036.288319,9622.677246,-2681.334243
126.044721,3775.050304,13767.830521,-9193.145976
126.045030,-1184.329507,12361.439231,-9576.193725
126.045340,-4071.132681,10881.027347,-4596.572988
126.045649,-5995.668130,11251.130318,-6052.154434
126.045959,2960.823768,9548.656652,-11721.261119
126.046268,4219.173869,9474.636058,-7967.393179
126.046578,-222.061783,6143.709319,2834.553343
126.046887,-74.020594,6883.915261,9806.022374
126.047197,-888.247130,6513.812290,2298.286494
126.047506,6365.771101,7031.956449,-4903.011187
126.047816,-0.000000,6883.915261,-5132.839837
126.048125,-518.144159,6809.894666,-2145.067394
126.048435,-1258.350101,12361.439231,-1608.800546
126.048744,2590.720797,12065.356855,-5898.935335
126.049054,7994.224174,9178.553681,-7277.907231
126.049363,-444.123565,3701.029710,3830.477490
126.049673,-2368.659014,7031.956449,14479.204912
126.049982,-296.082377,5181.441594,8886.707777
126.050291,5699.585753,11103.089130,-2451.505594
126.050601,-814.226536,9178.553681,-4673.182538
