#time,accel_x,accel_y,accel_z
107.238950,-0.000000,9030.512492,-2068.457845
107.239260,-592.164754,9326.594869,-842.705048
107.239569,592.164754,8808.450710,153.219100
107.239879,740.205942,9474.636058,-2068.457845
107.240189,-0.000000,9326.594869,-1532.190996
107.240499,-0.000000,9252.574275,-1072.533697
107.240808,-148.041188,10288.862594,-459.657299
107.241118,-518.144159,10066.800811,-1149.143247
107.241428,-0.000000,9548.656652,-995.924147
107.241738,-74.020594,9326.594869,-2298.286494
107.242047,296.082377,9770.718434,-1532.190996
107.242357,666.185348,9400.615463,-1532.190996
107.242667,-0.000000,8512.368333,-842.705048
107.242976,888.247130,9474.636058,-1991.848295
107.243286,-0.000000,9178.553681,-1378.971896
107.243596,-148.041188,9474.636058,2911.162892
107.243906,-0.000000,8142.265362,-1838.629195
107.244215,296.082377,8956.491898,-2145.067394
107.244525,-0.000000,9622.677246,-1762.019645
107.244835,-0.000000,9770.718434,-995.924147
107.245145,-0.000000,10288.862594,-1225.752797
107.245454,-0.000000,8586.388927,-383.047749
107.245764,1332.370696,9622.677246,-1991.848295
107.246074,592.164754,8216.285956,-2145.067394
107.246384,-370.102971,8882.471304,-995.924147
107.246693,-1258.350101,10732.986159,689.485948
107.247003,666.185348,8882.471304,383.047749
107.247313,1184.329507,8586.388927,1225.752797
107.247623,2664.741391,5551.544565,229.828649
107.247932,5921.647536,6365.771101,1762.019645
107.248242,1702.473667,7846.182985,10265.679673
107.248552,-2368.659014,6883.915261,11721.261119
107.248861,4219.173869,7624.121203,8427.050478
107.249171,8734.430116,7994.224174,1302.362347
107.249481,3478.967927,4367.215058,3600.648841
107.249791,-4071.132681,8290.306550,16394.443657
107.250100,222.061783,12065.356855,13713.109414
107.250410,2442.679609,10214.842000,3907.087040
107.250720,296.082377,12657.521608,3600.648841
107.251030,-1480.411884,11991.336260,11874.480219
107.251339,-16284.530724,11325.150913,10725.336972
107.251649,27017.516883,20429.683999,-7354.516781
107.251959,-13619.789333,8512.368333,4366.744339
107.252269,-9474.636058,15470.304188,24515.055936
107.252578,-12731.542202,8364.327145,25587.589633
107.252888,3849.070898,10288.862594,-995.924147
107.253198,10436.903782,15248.242405,-5975.544884
107.253508,-13989.892304,8216.285956,10035.851024
107.253817,-1776.494261,15322.262999,5975.544884
107.254127,-1258.350101,4293.194464,1762.019645
107.254437,-2812.782580,9178.553681,5975.544884
107.254746,-1924.535449,5107.421000,18999.168350
107.255056,1554.432478,-74.020594,12717.185267
107.255366,-1776.494261,1998.556043,10878.556072
107.255676,-0.000000,4737.318029,14325.985813
107.255985,1776.494261,9918.759623,6511.811733
107.256295,-3404.947333,4589.276840,2604.724693
107.256605,666.185348,16062.468941,4290.134789
107.256915,1628.453072,10584.944971,-1608.800546
107.257224,3923.091493,13101.645173,-229.828649
107.257534,-74.020594,11769.274478,22063.550342
107.257844,-370.102971,5773.606348,25051.322785
107.258154,4737.318029,4663.297435,13942.938064
107.258463,740.205942,5699.585753,10418.898773
107.258773,-1850.514855,10807.006753,9039.926876
107.259083,5477.523971,13323.706956,-3217.601092
107.259392,5551.544565,17912.983796,-6588.421283
107.259702,-888.247130,15544.324782,9959.241474
107.260012,-8142.265362,13249.686362,20531.359346
107.260322,-3478.967927,12657.521608,12257.527968
107.260631,4219.173869,9622.677246,-153.219100
107.260941,4737.318029,7920.203579,-4136.915689
107.261251,-0.000000,7846.182985,3447.429741
107.261561,-0.000000,10658.965565,13023.623466
107.261870,-740.205942,10510.924376,14096.157163
107.262180,1924.535449,8512.368333,5286.058936
107.262490,3404.947333,5329.482782,2298.286494
107.262800,-5699.585753,1258.350101,7048.078582
107.263109,-6291.750507,5403.503377,9116.536426
107.263419,2294.638420,8364.327145,-2604.724693
107.263729,11177.109724,9178.553681,-11644.651570
107.264039,1924.535449,8290.306550,6665.030833
107.264348,-7105.977043,8438.347739,22676.426741
107.264658,-2368.659014,9992.780217,18233.072852
107.264968,4071.132681,10436.903782,919.314598
107.265277,2146.597232,8808.450710,-2987.772442
107.265587,-4663.297435,10584.944971,3753.867940
107.265897,-6217.729913,12879.583391,76.609550
107.266207,5699.585753,15396.283594,-7967.393179
107.266516,7550.100608,14508.036463,1225.752797
107.266826,-3552.988522,8660.409521,20454.749797
107.267136,-3330.926739,6069.688724,26430.294681
107.267446,2072.576638,-4737.318029,9959.241474
107.267755,-4589.276840,5477.523971,-1225.752797
107.268065,4071.132681,11177.109724,4979.620737
107.268375,-10732.986159,4219.173869,766.095498
107.268685,9770.718434,14359.995275,-3983.696590
107.268994,-1924.535449,6513.812290,2145.067394
107.269304,-2960.823768,10807.006753,11797.870669
107.269614,-6291.750507,6587.832884,23136.084040
107.269924,1332.370696,8882.471304,7890.783629
107.270233,2738.761985,9918.759623,-7507.735880
107.270543,1924.535449,11399.171507,-5286.058936
107.270853,4589.276840,11325.150913,-4519.963438
107.271162,-5773.606348,12065.356855,1608.800546
107.271472,1110.308913,16062.468941,8120.612279
107.271782,-666.185348,11473.192101,8963.317327
107.272092,-5847.626942,11695.253884,3524.039291
107.272401,-666.185348,10732.986159,1608.800546
107.272711,6217.729913,10362.883188,-7354.516781
107.273021,6957.935855,11991.336260,-11031.775171
107.273331,-3775.050304,10066.800811,8350.440928
107.273640,-3849.070898,16210.510130,17007.320056
107.273950,2442.679609,9992.780217,0.000000
107.274260,-444.123565,10362.883188,-5286.058936
107.274570,-1998.556043,12287.418637,5439.278036
107.274879,3478.967927,8956.491898,-1455.581446
107.275189,3997.112087,5403.503377,-7737.564530
107.275499,666.185348,3404.947333,7967.393179
107.275809,-666.185348,3330.926739,13636.499864
107.276118,148.041188,2368.659014,689.485948
107.276428,4071.132681,7031.956449,-2374.896044
107.276738,740.205942,11029.068536,7277.907231
107.277047,-1480.411884,7994.224174,2145.067394
107.277357,2072.576638,8216.285956,689.485948
107.277667,-3330.926739,7254.018232,7048.078582
107.277977,-6883.915261,8142.265362,-1149.143247
107.278286,3478.967927,9992.780217,-8197.221829
107.278596,-0.000000,14804.118840,-229.828649
107.278906,-5403.503377,17024.736666,7967.393179
107.279216,296.082377,16654.633695,-153.219100
107.279525,2368.659014,16432.571912,-5132.839837
107.279835,-6143.709319,12065.356855,-2451.505594
107.280145,-0.000000,9252.574275,-6588.421283
107.280455,-148.041188,10066.800811,-5286.058936
107.280764,-1554.432478,10955.047942,-2221.676944
107.281074,-1480.411884,9548.656652,6281.983084
107.281384,-2812.782580,10436.903782,2221.676944
107.281693,666.185348,6365.771101,-10112.460574
107.282003,962.267725,3849.070898,-14785.643111
107.282313,-1332.370696,8734.430116,-1762.019645
107.282623,-2072.576638,8512.368333,2757.943793
107.282932,2738.761985,8068.244768,-1455.581446
107.283242,518.144159,9474.636058,4673.182538
107.283552,-2590.720797,3330.926739,3140.991542
107.283862,4737.318029,5921.647536,-6818.249932
107.284171,2886.803174,7846.182985,-3524.039291
107.284481,-666.185348,8142.265362,2298.286494
107.284791,3108.864956,10066.800811,-459.657299
107.285101,1332.370696,9252.574275,-7048.078582
107.285410,962.267725,9622.677246,-6971.469032
107.285720,3627.009116,9252.574275,-1608.800546
107.286030,296.082377,11399.171507,4136.915689
107.286340,2368.659014,8586.388927,4826.401637
107.286649,7994.224174,9178.553681,4903.011187
107.286959,2590.720797,7846.182985,1455.581446
107.287269,5033.400406,7179.997637,-8120.612279
107.287578,3256.906145,8660.409521,-4213.525239
107.287888,-3034.844362,12953.603985,3294.210641
107.288198,-0.000000,12065.356855,0.000000
107.288508,592.164754,15322.262999,-1149.143247
107.288817,-4441.235652,13767.830521,-4060.306139
107.289127,1554.432478,7179.997637,-14862.252661
107.289437,2886.803174,12509.480420,-15092.081311
107.289747,-6957.935855,9918.759623,3140.991542
107.290056,-1036.288319,8660.409521,2528.115143
107.290366,1258.350101,9770.718434,3064.381992
107.290676,-4145.153275,4515.256246,383.047749
107.290986,-1258.350101,2738.761985,-6281.983084
107.291295,-518.144159,9918.759623,-4903.011187
107.291605,-4811.338623,6809.894666,-1838.629195
107.291915,518.144159,11399.171507,-2221.676944
107.292225,-3701.029710,13323.706956,-76.609550
107.292534,-5699.585753,8068.244768,-2221.676944
107.292844,6587.832884,10214.842000,-12487.356617
107.293154,962.267725,9252.574275,-4903.011187
107.293463,-5477.523971,7550.100608,10648.727422
107.293773,3404.947333,6883.915261,9039.926876
107.294083,3034.844362,6661.853478,2911.162892
107.294392,-222.061783,1998.556043,2451.505594
107.294702,2072.576638,8660.409521,153.219100
107.295011,2886.803174,10140.821405,919.314598
107.295321,-2220.617826,10807.006753,6052.154434
107.295630,2516.700203,10510.924376,4673.182538
107.295939,-3923.091493,12361.439231,-153.219100
107.296249,-222.061783,10955.047942,-7967.393179
107.296558,1776.494261,10584.944971,-8273.831378
107.296868,-1776.494261,15248.242405,153.219100
107.297177,-1850.514855,13619.789333,3983.696590
107.297487,2072.576638,11991.336260,3217.601092
107.297796,2146.597232,10955.047942,3677.258390
107.298106,370.102971,6735.874072,-6741.640382
107.298415,1332.370696,6587.832884,-8120.612279
107.298725,-1036.288319,12435.459826,3217.601092
107.299034,-4071.132681,9326.594869,4136.915689
107.299344,2294.638420,14211.954086,-2068.457845
107.299653,-5107.421000,8364.327145,-4979.620737
107.299962,-2368.659014,4441.235652,-9806.022374
107.300272,1776.494261,5995.668130,-11721.261119
107.300581,-3034.844362,6883.915261,1685.410096
107.300891,-2442.679609,5921.647536,7277.907231
107.301200,4737.318029,7698.141797,4136.915689
107.301510,518.144159,6069.688724,306.438199
107.301819,1702.473667,5033.400406,-2451.505594
107.302129,4367.215058,10214.842000,-2834.553343
107.302438,-2072.576638,12805.562797,0.000000
107.302748,2220.617826,9474.636058,3600.648841
107.303057,814.226536,12953.603985,1608.800546
107.303366,-4885.359217,6587.832884,-2298.286494
107.303676,1332.370696,7624.121203,-9882.631924
107.303985,3182.885551,9696.697840,-4903.011187
107.304295,-1110.308913,10807.006753,5132.839837
107.304604,2664.741391,10214.842000,7124.688131
107.304914,6069.688724,8956.491898,4673.182538
107.305223,-1554.432478,7698.141797,1915.238745
107.305533,-0.000000,7105.977043,842.705048
107.305842,2812.782580,12731.542202,229.828649
107.306152,-3256.906145,11917.315666,0.000000
107.306461,-2072.576638,14285.974681,76.609550
107.306771,-4737.318029,13175.665768,-3140.991542
107.307080,-4293.194464,9400.615463,-9193.145976
107.307389,-148.041188,9770.718434,-15092.081311
107.307699,-2590.720797,11917.315666,-3064.381992
107.308008,-5847.626942,14137.933492,6741.640382
107.308318,-0.000000,7179.997637,1302.362347
107.308627,-0.000000,6513.812290,0.000000
107.308937,-2368.659014,-962.267725,-1838.629195
107.309246,1184.329507,3997.112087,-5515.887586
107.309556,-2220.617826,9104.533087,1149.143247
107.309865,-1628.453072,8290.306550,4749.792088
107.310175,1924.535449,10510.924376,-2834.553343
107.310484,-1850.514855,9252.574275,-5592.497135
107.310794,-5403.503377,11177.109724,-4979.620737
107.311103,2812.782580,12213.398043,-10495.508323
107.311412,2442.679609,13101.645173,-5362.668486
107.311722,-1036.288319,9844.739029,5669.106685
107.312031,6365.771101,9992.780217,6435.202183
107.312341,1332.370696,8734.430116,3064.381992
107.312650,592.164754,7550.100608,3524.039291
107.312960,8586.388927,8438.347739,-995.924147
107.313269,3701.029710,10510.924376,-1302.362347
107.313579,3108.864956,9696.697840,4673.182538
107.313888,-1332.370696,11325.150913,3753.867940
107.314198,-2368.659014,11991.336260,-1991.848295
107.314507,-592.164754,10214.842000,-8886.707777
107.314817,1332.370696,12657.521608,-8350.440928
107.315126,-2886.803174,11843.295072,2068.457845
107.315435,666.185348,11621.233289,1072.533697
107.315745,-222.061783,10955.047942,766.095498
107.316054,222.061783,8586.388927,229.828649
107.316364,962.267725,5625.565159,-3600.648841
107.316673,-1776.494261,6069.688724,306.438199
107.316983,-2664.741391,9918.759623,5056.230287
107.317292,-2368.659014,7920.203579,-842.705048
107.317602,-2368.659014,10436.903782,-2987.772442
107.317911,-3108.864956,6217.729913,-5592.497135
107.318221,-2960.823768,6217.729913,-12793.794817
107.318530,-592.164754,9696.697840,-9576.193725
107.318840,-5699.585753,8660.409521,2757.943793
107.319149,814.226536,9474.636058,229.828649
107.319458,1258.350101,8956.491898,1991.848295
107.319768,-1258.350101,8364.327145,4979.620737
107.320077,814.226536,5551.544565,3830.477490
107.320387,6513.812290,12065.356855,-1149.143247
107.320696,2294.638420,10658.965565,2681.334243
107.321006,-962.267725,11251.130318,4903.011187
107.321315,814.226536,13693.809927,1685.410096
107.321625,-1110.308913,11473.192101,-7660.954980
107.321934,3701.029710,11251.130318,-11568.042020
107.322244,814.226536,11843.295072,-2987.772442
107.322553,-2294.638420,9770.718434,2221.676944
107.322863,3552.988522,8068.244768,1532.190996
107.323172,4663.297435,9474.636058,3524.039291
107.323481,-222.061783,5995.668130,3140.991542
107.323791,2368.659014,4885.359217,1149.143247
107.324100,2516.700203,10732.986159,3217.601092
107.324410,-3182.885551,11695.253884,1378.971896
107.324719,1628.453072,12139.377449,-2604.724693
107.325029,-4589.276840,11843.295072,306.438199
107.325338,-3182.885551,10732.986159,-13713.109414
107.325648,-814.226536,11399.171507,-16624.272307
107.325957,-2960.823768,11695.253884,-4903.011187
107.326267,-3552.988522,8290.306550,1149.143247
107.326576,2146.597232,4811.338623,1838.629195
107.326886,518.144159,5699.585753,2528.115143
107.327195,-666.185348,-518.144159,-4366.744339
107.327504,3108.864956,4071.132681,-5209.449386
107.327814,-2812.782580,7772.162391,1762.019645
107.328123,370.102971,10436.903782,-153.219100
107.328433,2664.741391,12657.521608,-3140.991542
107.328742,-5255.462188,9844.739029,-5056.230287
107.329052,-1776.494261,10362.883188,-10342.289223
107.329361,962.267725,13841.851115,-8120.612279
107.329671,-1184.329507,10362.883188,-4979.620737
107.329980,962.267725,10732.986159,459.657299
107.330290,3775.050304,9622.677246,5669.106685
107.330599,740.205942,7179.997637,5822.325785
107.330908,1776.494261,5551.544565,-1532.190996
107.331218,8142.265362,6365.771101,-1149.143247
107.331527,1776.494261,10288.862594,2911.162892
107.331837,1110.308913,10214.842000,2451.505594
107.332146,740.205942,10140.821405,3217.601092
107.332456,-3478.967927,12953.603985,-3907.087040
107.332765,888.247130,10658.965565,-13942.938064
107.333075,1776.494261,12139.377449,-9882.631924
107.333384,-4811.338623,11991.336260,-1302.362347
107.333694,-1184.329507,11843.295072,0.000000
107.334003,-518.144159,11177.109724,2451.505594
107.334313,-4219.173869,2738.761985,2374.896044
107.334622,2442.679609,4367.215058,-4673.182538
107.334931,1480.411884,5551.544565,-3447.429741
107.335241,-4219.173869,8068.244768,2604.724693
107.335550,-2220.617826,10214.842000,2604.724693
107.335860,-0.000000,8438.347739,-2145.067394
107.336169,-1332.370696,8216.285956,-9269.755526
107.336479,-5033.400406,7402.059420,-10725.336972
107.336788,-3034.844362,9474.636058,-3753.867940
107.337098,-1332.370696,7179.997637,-2451.505594
107.337407,-370.102971,10584.944971,-2221.676944
107.337717,-888.247130,11399.171507,3907.087040
107.338026,-370.102971,8808.450710,-2834.553343
107.338336,5995.668130,9104.533087,-7814.174080
107.338645,3182.885551,10510.924376,2911.162892
107.338954,592.164754,10807.006753,7354.516781
107.339264,1850.514855,11991.336260,612.876398
107.339573,1776.494261,11991.336260,1455.581446
107.339883,1776.494261,10214.842000,-7584.345430
107.340192,3034.844362,11473.192101,-13636.499864
107.340502,-1776.494261,11399.171507,-2451.505594
107.340811,370.102971,11177.109724,-1685.410096
107.341121,3108.864956,9696.697840,1149.143247
107.341430,-1036.288319,9844.739029,5286.058936
107.341740,740.205942,8956.491898,383.047749
107.342049,4219.173869,8512.368333,-4213.525239
107.342359,-0.000000,9548.656652,2528.115143
107.342668,-740.205942,11177.109724,5209.449386
107.342977,592.164754,10881.027347,76.609550
107.343287,-2812.782580,8512.368333,-4903.011187
107.343596,-1924.535449,8068.244768,-7201.297681
107.343906,-3034.844362,8438.347739,-7507.735880
107.344215,-2220.617826,9104.533087,-306.438199
107.344525,-3034.844362,9474.636058,-689.485948
107.344834,-1258.350101,6809.894666,459.657299
107.345144,-2368.659014,6143.709319,919.314598
107.345453,1480.411884,4441.235652,-8503.660028
107.345763,2368.659014,10214.842000,-2911.162892
107.346072,-3182.885551,11917.315666,7814.174080
107.346382,1406.391290,13841.851115,2451.505594
107.346691,1628.453072,9844.739029,-2298.286494
107.347000,-2590.720797,10436.903782,-3217.601092
107.347310,-0.000000,7846.182985,-10265.679673
107.347619,1702.473667,11769.274478,-8886.707777
107.347929,666.185348,10658.965565,842.705048
107.348238,1480.411884,11399.171507,2221.676944
107.348548,2220.617826,10214.842000,1838.629195
107.348857,-962.267725,7772.162391,1838.629195
107.349167,2738.761985,7031.956449,-2681.334243
107.349476,3330.926739,7105.977043,-1685.410096
107.349786,-592.164754,11251.130318,5362.668486
107.350095,3256.906145,8586.388927,3524.039291
107.350405,740.205942,9992.780217,0.000000
107.350714,-3701.029710,9770.718434,-1378.971896
107.351023,-1184.329507,11251.130318,-6741.640382
107.351333,1924.535449,11251.130318,-3753.867940
107.351642,-3034.844362,11251.130318,-766.095498
107.351952,-296.082377,10214.842000,-2374.896044
107.352261,-4441.235652,8512.368333,-2604.724693
107.352571,-1480.411884,5477.523971,-5362.668486
107.352880,2664.741391,5255.462188,-6281.983084
107.353190,-1184.329507,6809.894666,4749.792088
107.353499,-1406.391290,8142.265362,8044.002729
107.353809,222.061783,8956.491898,383.047749
107.354118,-1628.453072,6069.688724,-3140.991542
107.354428,-2960.823768,5477.523971,-7277.907231
107.354737,1406.391290,10510.924376,-11951.089769
107.355046,-1554.432478,15766.386565,-5515.887586
107.355356,-1998.556043,14656.077652,-1991.848295
107.355665,1258.350101,13175.665768,-229.828649
107.355975,-0.000000,11399.171507,0.000000
107.356284,-74.020594,7550.100608,-2221.676944
107.356594,2960.823768,8586.388927,-1149.143247
107.356903,2516.700203,11103.089130,229.828649
107.357213,2960.823768,9622.677246,-229.828649
107.357522,3330.926739,10214.842000,1302.362347
107.357832,592.164754,8734.430116,-1149.143247
107.358141,888.247130,8734.430116,-6588.421283
107.358450,3923.091493,10658.965565,-4213.525239
107.358760,-1924.535449,9770.718434,1378.971896
107.359069,740.205942,8660.409521,-306.438199
107.359379,2886.803174,9400.615463,842.705048
107.359688,-4737.318029,8290.306550,1991.848295
107.359998,2368.659014,6883.915261,-3677.258390
107.360307,3552.988522,11399.171507,-3217.601092
107.360617,-4441.235652,9474.636058,4979.620737
107.360926,-370.102971,11029.068536,4749.792088
107.361236,-444.123565,10362.883188,-2451.505594
107.361545,-2738.761985,8068.244768,-4903.011187
107.361855,-370.102971,9548.656652,-9039.926876
107.362164,-1258.350101,6439.791695,-6281.983084
107.362473,-2590.720797,8808.450710,1302.362347
107.362783,-1184.329507,7846.182985,2068.457845
107.363092,-222.061783,8882.471304,1302.362347
107.363402,-1702.473667,6439.791695,-842.705048
107.363711,1184.329507,8290.306550,-4826.401637
107.364021,666.185348,11843.295072,-2604.724693
107.364330,-148.041188,8808.450710,-1532.190996
107.364640,444.123565,10214.842000,-2451.505594
107.364949,-1332.370696,13027.624579,2451.505594
107.365259,-2664.741391,13249.686362,-2987.772442
107.365568,5625.565159,10658.965565,-10418.898773
107.365878,2590.720797,12213.398043,-3600.648841
107.366187,-2220.617826,8512.368333,5132.839837
107.366496,1998.556043,8808.450710,-1608.800546
107.366806,222.061783,7994.224174,1072.533697
107.367115,-444.123565,8068.244768,-842.705048
107.367425,3627.009116,7550.100608,-4136.915689
107.367734,1110.308913,9844.739029,-1762.019645
107.368044,-1702.473667,11621.233289,2298.286494
107.368353,1850.514855,9918.759623,459.657299
107.368663,-1554.432478,5921.647536,-1762.019645
107.368972,-1776.494261,7031.956449,-2834.553343
107.369282,296.082377,7846.182985,-4596.572988
107.369591,-2590.720797,8364.327145,-306.438199
107.369901,-0.000000,8068.244768,1302.362347
107.370210,592.164754,9178.553681,2528.115143
107.370519,-148.041188,7105.977043,-1915.238745
107.370829,-0.000000,5847.626942,-9652.803275
107.371138,-1554.432478,7698.141797,-2451.505594
107.371448,370.102971,11473.192101,2604.724693
107.371757,1924.535449,10066.800811,-3217.601092
107.372067,1776.494261,11177.109724,-3907.087040
107.372376,-6217.729913,11843.295072,1455.581446
107.372686,-666.185348,9030.512492,-8810.098227
107.372995,5181.441594,11547.212695,-13176.842566
107.373305,-444.123565,12065.356855,-2068.457845
107.373614,-2368.659014,11695.253884,4290.134789
107.373924,-0.000000,11029.068536,4826.401637
107.374233,-1628.453072,8142.265362,3217.601092
107.374542,4441.235652,7476.080014,-6128.763984
107.374852,2812.782580,8068.244768,-5822.325785
107.375161,-1332.370696,9918.759623,383.047749
107.375471,518.144159,11029.068536,229.828649
107.375780,2516.700203,11103.089130,-2068.457845
107.376090,-2590.720797,9548.656652,-1991.848295
107.376399,370.102971,7772.162391,-3064.381992
107.376709,1110.308913,9770.718434,-4979.620737
107.377018,-1332.370696,9474.636058,1225.752797
107.377328,2516.700203,8586.388927,3447.429741
107.377637,1554.432478,8142.265362,1455.581446
107.377947,-1258.350101,4811.338623,-383.047749
107.378256,2146.597232,6439.791695,-459.657299
107.378565,888.247130,6957.935855,0.000000
107.378875,-1554.432478,8068.244768,1532.190996
107.379184,-2294.638420,11473.192101,3907.087040
107.379494,-2072.576638,9474.636058,0.000000
107.379803,-888.247130,7698.141797,-11108.384721
107.380113,1480.411884,9400.615463,-12257.527968
107.380422,-1776.494261,11103.089130,-1149.143247
107.380732,-1110.308913,12805.562797,7201.297681
107.381041,1480.411884,12435.459826,2604.724693
107.381351,1332.370696,10362.883188,5822.325785
107.381660,-1036.288319,6661.853478,-1455.581446
107.381970,2960.823768,6735.874072,-7201.297681
107.382279,-1924.535449,11103.089130,919.314598
107.382588,-814.226536,9770.718434,-306.438199
107.382898,1406.391290,10436.903782,-153.219100
107.383207,-4219.173869,11029.068536,1532.190996
107.383517,-1332.370696,10658.965565,-6741.640382
107.383826,3552.988522,11251.130318,-11491.432470
107.384136,-666.185348,11473.192101,229.828649
107.384445,-444.123565,10658.965565,5056.230287
107.384755,2220.617826,8734.430116,2068.457845
107.385064,-0.000000,9104.533087,1762.019645
107.385374,-1554.432478,8734.430116,1378.971896
107.385683,4885.359217,9178.553681,-306.438199
107.385993,592.164754,10584.944971,2451.505594
107.386302,-1628.453072,10955.047942,3524.039291
107.386611,-740.205942,8586.388927,229.828649
107.386921,-1924.535449,7846.182985,-4749.792088
107.387230,-814.226536,8142.265362,-12257.527968
107.387540,2072.576638,9326.594869,-5669.106685
107.387849,-2368.659014,9622.677246,10418.898773
107.388159,-148.041188,9622.677246,5975.544884
107.388468,3256.906145,7402.059420,4903.011187
107.388778,-2960.823768,5773.606348,5132.839837
107.389087,-444.123565,6883.915261,-2834.553343
107.389397,5625.565159,7698.141797,-4826.401637
107.389706,-1332.370696,13249.686362,-383.047749
107.390015,-444.123565,12879.583391,1072.533697
107.390325,-1850.514855,12139.377449,-383.047749
107.390634,-3701.029710,10066.800811,-5132.839837
107.390944,-1702.473667,8882.471304,-11414.822920
107.391253,2368.659014,12805.562797,-6588.421283
107.391563,-2072.576638,10140.821405,2604.724693
107.391872,1702.473667,7402.059420,5056.230287
107.392182,2294.638420,6587.832884,6435.202183
107.392491,-0.000000,5329.482782,0.000000
107.392801,2516.700203,6587.832884,-1685.410096
107.393110,1924.535449,9030.512492,1838.629195
107.393419,-296.082377,13101.645173,-306.438199
107.393729,592.164754,15470.304188,-1225.752797
107.394038,-1924.535449,12953.603985,-1149.143247
107.394347,-1110.308913,11843.295072,-10572.117872
107.394657,2886.803174,9104.533087,-13559.890315
107.394966,-2590.720797,11325.150913,2757.943793
107.395276,-2664.741391,8882.471304,10112.460574
107.395585,5033.400406,7624.121203,2757.943793
107.395894,2960.823768,6069.688724,1915.238745
107.396204,-2664.741391,3108.864956,2834.553343
107.396513,3849.070898,5921.647536,-229.828649
107.396822,2590.720797,10288.862594,-689.485948
107.397132,-1258.350101,9770.718434,1532.190996
107.397441,-0.000000,11399.171507,1149.143247
107.397751,-3256.906145,9992.780217,-4519.963438
107.398060,-3627.009116,11251.130318,-10495.508323
107.398369,1776.494261,10584.944971,-9193.145976
107.398679,-666.185348,10436.903782,-1915.238745
107.398988,-2072.576638,10436.903782,2451.505594
107.399297,3256.906145,8290.306550,4903.011187
107.399607,444.123565,5329.482782,1991.848295
107.399916,-74.020594,3627.009116,-4213.525239
107.400225,2146.597232,7994.224174,689.485948
107.400535,814.226536,11473.192101,3983.696590
107.400844,814.226536,11399.171507,-3830.477490
107.401154,-2590.720797,11917.315666,-1838.629195
107.401463,-2442.679609,10732.986159,-3983.696590
107.401772,1776.494261,10510.924376,-14479.204912
107.402082,-0.000000,12953.603985,-4060.306139
107.402391,-5699.585753,11029.068536,6281.983084
107.402700,1776.494261,10510.924376,2298.286494
107.403010,3997.112087,9252.574275,-2068.457845
107.403319,-1628.453072,5773.606348,3753.867940
107.403629,1702.473667,5773.606348,0.000000
107.403938,4737.318029,8142.265362,-1149.143247
107.404247,814.226536,7105.977043,5439.278036
107.404557,-1628.453072,9918.759623,6971.469032
107.404866,-666.185348,8734.430116,-229.828649
107.405175,-2146.597232,9548.656652,-6435.202183
107.405485,-4441.235652,9252.574275,-8427.050478
107.405794,-148.041188,14656.077652,-3294.210641
107.406103,-1110.308913,13619.789333,-4366.744339
107.406413,2812.782580,11769.274478,1838.629195
107.406722,-370.102971,10584.944971,6511.811733
107.407032,-2368.659014,6587.832884,3907.087040
107.407341,4293.194464,5699.585753,-2298.286494
107.407650,3701.029710,6143.709319,4979.620737
107.407960,-2072.576638,7994.224174,4213.525239
107.408269,296.082377,6365.771101,-459.657299
107.408578,-4071.132681,9030.512492,0.000000
107.408888,-2072.576638,9104.533087,-7507.735880
107.409197,148.041188,11917.315666,-14402.595362
107.409507,-814.226536,13175.665768,-6128.763984
107.409816,-3182.885551,13027.624579,0.000000
107.410125,962.267725,11843.295072,-3294.210641
107.410435,1924.535449,8290.306550,2451.505594
107.410744,-1924.535449,6883.915261,4903.011187
107.411053,3849.070898,8512.368333,-229.828649
107.411363,4737.318029,10436.903782,766.095498
107.411672,-0.000000,8660.409521,2681.334243
107.411981,-1036.288319,10807.006753,2374.896044
107.412291,-1628.453072,10807.006753,-2374.896044
107.412600,-370.102971,9770.718434,-12027.699319
107.412910,296.082377,10214.842000,-10189.070123
107.413219,-148.041188,12435.459826,-2451.505594
107.413528,-2072.576638,7772.162391,-2911.162892
107.413838,3108.864956,9474.636058,1302.362347
107.414147,1850.514855,8364.327145,5975.544884
107.414456,-888.247130,3552.988522,2834.553343
107.414766,5921.647536,7994.224174,3370.820191
107.415075,-888.247130,8512.368333,3753.867940
107.415385,-1776.494261,8216.285956,842.705048
107.415694,-1258.350101,12509.480420,919.314598
107.416003,-2072.576638,11547.212695,-5515.887586
107.416313,444.123565,10732.986159,-15321.909960
107.416622,-1110.308913,12805.562797,-9652.803275
107.416931,-4145.153275,10362.883188,2911.162892
107.417241,-0.000000,9326.594869,306.438199
107.417550,3775.050304,8734.430116,1762.019645
107.417859,-2220.617826,5625.565159,7507.735880
107.418169,1480.411884,4441.235652,-1225.752797
107.418478,4367.215058,5403.503377,-2528.115143
107.418788,518.144159,9918.759623,1608.800546
107.419097,-666.185348,14582.057057,1685.410096
107.419406,666.185348,13175.665768,-919.314598
107.419716,-1332.370696,11991.336260,-7890.783629
107.420025,-2886.803174,12213.398043,-9499.584175
107.420334,1258.350101,11399.171507,-5669.106685
107.420644,-1406.391290,9326.594869,612.876398
107.420953,444.123565,11473.192101,229.828649
107.421263,518.144159,8512.368333,2987.772442
107.421572,-592.164754,5699.585753,1915.238745
107.421881,1628.453072,8216.285956,-919.314598
107.422191,4737.318029,6883.915261,-2145.067394
107.422500,814.226536,8438.347739,995.924147
107.422809,-2368.659014,9326.594869,6588.421283
107.423119,-1776.494261,10955.047942,4903.011187
107.423428,666.185348,8808.450710,-9729.412825
107.423737,-666.185348,9622.677246,-10342.289223
107.424047,-1628.453072,11917.315666,-612.876398
107.424356,-1776.494261,8586.388927,-2221.676944
107.424666,666.185348,9104.533087,-842.705048
107.424975,-2960.823768,8290.306550,5056.230287
107.425284,-2294.638420,4885.359217,-536.266849
107.425594,4219.173869,5551.544565,-5439.278036
107.425903,1850.514855,8882.471304,2374.896044
107.426212,-1850.514855,10658.965565,4826.401637
107.426522,3034.844362,11769.274478,3217.601092
107.426831,-888.247130,10066.800811,-1149.143247
107.427141,-1554.432478,11325.150913,-9729.412825
107.427450,888.247130,9252.574275,-11721.261119
107.427759,-2294.638420,11251.130318,-2221.676944
107.428069,-2368.659014,11177.109724,2068.457845
107.428378,1258.350101,8438.347739,1072.533697
107.428687,-296.082377,7105.977043,612.876398
107.428997,-2368.659014,6735.874072,-1762.019645
107.429306,5699.585753,8068.244768,0.000000
107.429615,4663.297435,10362.883188,-1225.752797
107.429925,-1628.453072,11769.274478,2528.115143
107.430234,-962.267725,13249.686362,6128.763984
107.430544,-1036.288319,11621.233289,-4366.744339
107.430853,-1184.329507,9844.739029,-14172.766713
107.431162,2368.659014,12287.418637,-5975.544884
107.431472,-1184.329507,10807.006753,-689.485948
107.431781,-1554.432478,9104.533087,229.828649
107.432090,2516.700203,9252.574275,6818.249932
107.432400,-2220.617826,3849.070898,1302.362347
107.432709,-0.000000,4293.194464,-5056.230287
107.433019,3330.926739,6661.853478,2757.943793
107.433328,-666.185348,8660.409521,2834.553343
107.433637,814.226536,11177.109724,612.876398
107.433947,-740.205942,11621.233289,3370.820191
107.434256,-3997.112087,9770.718434,-4749.792088
107.434565,1480.411884,9622.677246,-14172.766713
107.434875,1036.288319,12805.562797,-7277.907231
107.435184,-6069.688724,11843.295072,2528.115143
107.435493,2368.659014,12065.356855,689.485948
107.435803,2368.659014,7476.080014,-2068.457845
107.436112,-4219.173869,7328.038826,-1915.238745
107.436422,3701.029710,6069.688724,-2987.772442
107.436731,4515.256246,6513.812290,-1762.019645
107.437040,-296.082377,9252.574275,2681.334243
107.437350,-444.123565,12435.459826,6588.421283
107.437659,-296.082377,7179.997637,0.000000
107.437968,-888.247130,5033.400406,-10878.556072
107.438278,740.205942,13767.830521,-9193.145976
107.438587,222.061783,13323.706956,-5439.278036
107.438897,-0.000000,12435.459826,-3830.477490
107.439206,-888.247130,12583.501014,3524.039291
107.439515,-518.144159,11251.130318,2681.334243
107.439825,2220.617826,7105.977043,-5056.230287
107.440134,3034.844362,6957.935855,-3677.258390
107.440443,-1110.308913,7402.059420,5515.887586
107.440753,-222.061783,4589.276840,6741.640382
107.441062,1554.432478,10288.862594,766.095498
107.441371,222.061783,9622.677246,-2834.553343
107.441681,-4737.318029,9252.574275,-7890.783629
107.441990,-222.061783,11103.089130,-7431.126331
107.442300,1036.288319,11843.295072,-1915.238745
107.442609,-1924.535449,13767.830521,-766.095498
107.442918,148.041188,10288.862594,1685.410096
107.443228,-2886.803174,6661.853478,1302.362347
107.443537,-1554.432478,5551.544565,-6435.202183
107.443846,3775.050304,5921.647536,-2451.505594
107.444156,-74.020594,7772.162391,4519.963438
107.444465,-1258.350101,10510.924376,3524.039291
107.444775,592.164754,7846.182985,1532.190996
107.445084,-2146.597232,5255.462188,-3524.039291
107.445393,-2146.597232,11991.336260,-9422.974625
107.445703,1406.391290,11103.089130,-8810.098227
107.446012,-370.102971,12213.398043,-4979.620737
107.446321,-444.123565,11325.150913,-2757.943793
107.446631,814.226536,10288.862594,612.876398
107.446940,-2442.679609,8438.347739,0.000000
107.447249,1332.370696,6587.832884,-2604.724693
107.447559,3923.091493,7920.203579,153.219100
107.447868,1406.391290,10584.944971,3830.477490
107.448178,-444.123565,8956.491898,3524.039291
107.448487,1480.411884,9030.512492,-536.266849
107.448796,-0.000000,9844.739029,-9193.145976
107.449106,-2368.659014,10584.944971,-9269.755526
107.449415,222.061783,11547.212695,-2068.457845
107.449724,-1332.370696,11843.295072,-1915.238745
107.450034,444.123565,9474.636058,-459.657299
107.450343,-814.226536,9252.574275,6052.154434
107.450653,-1110.308913,5551.544565,459.657299
107.450962,2368.659014,7402.059420,-6358.592633
107.451271,1554.432478,10288.862594,1762.019645
107.451581,-370.102971,9992.780217,1302.362347
107.451890,518.144159,13471.748144,-2834.553343
107.452199,-1998.556043,8142.265362,-459.657299
107.452509,-2516.700203,8586.388927,-7124.688131
107.452818,222.061783,8364.327145,-7354.516781
107.453127,-0.000000,9474.636058,-766.095498
107.453437,-2960.823768,6735.874072,2451.505594
107.453746,1702.473667,7254.018232,306.438199
107.454056,1554.432478,8512.368333,2298.286494
107.454365,-1332.370696,6439.791695,-3447.429741
107.454674,3108.864956,8438.347739,-5898.935335
107.454984,3404.947333,9992.780217,3677.258390
107.455293,-2738.761985,11103.089130,-612.876398
107.455602,-518.144159,13027.624579,1762.019645
107.455912,-2294.638420,12361.439231,-2068.457845
107.456221,444.123565,8512.368333,-10418.898773
107.456531,1480.411884,13175.665768,-8886.707777
107.456840,666.185348,10658.965565,-1532.190996
107.457149,-296.082377,9474.636058,0.000000
107.457459,2590.720797,8512.368333,4060.306139
107.457768,-148.041188,6809.894666,-153.219100
107.458077,-2368.659014,7994.224174,-306.438199
107.458387,4515.256246,8512.368333,-2221.676944
107.458696,1258.350101,9918.759623,-3677.258390
107.459005,-962.267725,12583.501014,-2145.067394
107.459315,-1406.391290,7698.141797,3064.381992
107.459624,-2072.576638,10807.006753,-2068.457845
107.459934,-296.082377,10288.862594,-7048.078582
107.460243,1628.453072,8586.388927,-3370.820191
107.460552,-2442.679609,9844.739029,3600.648841
107.460862,-2368.659014,7846.182985,3600.648841
107.461171,222.061783,9326.594869,3064.381992
107.461480,-962.267725,7698.141797,-2298.286494
107.461790,740.205942,6957.935855,-5515.887586
107.462099,2664.741391,6587.832884,-1225.752797
107.462409,-962.267725,10510.924376,459.657299
107.462718,666.185348,11621.233289,1685.410096
107.463027,-1036.288319,9918.759623,2298.286494
107.463337,-4071.132681,8512.368333,-4519.963438
107.463646,444.123565,8956.491898,-9193.145976
107.463955,3108.864956,10732.986159,-7354.516781
107.464265,-666.185348,10436.903782,-3064.381992
107.464574,296.082377,10807.006753,4136.915689
107.464883,-2294.638420,11029.068536,7660.954980
107.465193,-1258.350101,7846.182985,0.000000
107.465502,3997.112087,7179.997637,-5056.230287
107.465812,2220.617826,10288.862594,-1072.533697
107.466121,-1998.556043,11103.089130,-1378.971896
107.466430,1036.288319,12805.562797,-995.924147
107.466740,-74.020594,13323.706956,-766.095498
107.467049,-444.123565,9622.677246,-8120.612279
107.467358,-444.123565,9104.533087,-7507.735880
107.467668,74.020594,7994.224174,1072.533697
107.467977,-296.082377,9770.718434,1072.533697
107.468286,1776.494261,7994.224174,5669.106685
107.468596,1702.473667,7179.997637,8656.879127
107.468905,-2146.597232,7031.956449,612.876398
107.469215,4071.132681,6365.771101,-2451.505594
107.469524,1184.329507,11769.274478,-1532.190996
107.469833,-2368.659014,12583.501014,-689.485948
107.470143,-1702.473667,13471.748144,229.828649
107.470452,-3404.947333,11917.315666,-2911.162892
107.470761,-2072.576638,11177.109724,-11108.384721
107.471071,-1850.514855,10140.821405,-8273.831378
107.471380,1998.556043,8956.491898,153.219100
107.471690,-518.144159,9400.615463,1608.800546
107.471999,4293.194464,6143.709319,3907.087040
107.472308,1480.411884,6217.729913,4519.963438
107.472618,-2368.659014,2146.597232,-459.657299
107.472927,3404.947333,5921.647536,-919.314598
107.473236,1110.308913,8956.491898,-1608.800546
107.473546,-148.041188,10732.986159,-2374.896044
107.473855,-1628.453072,12731.542202,306.438199
107.474164,-4071.132681,12509.480420,-6894.859482
107.474474,666.185348,12509.480420,-14402.595362
107.474783,4071.132681,13545.768739,-9729.412825
107.475093,-666.185348,12213.398043,0.000000
107.475402,-740.205942,11621.233289,5975.544884
107.475711,5033.400406,8290.306550,6511.811733
107.476021,666.185348,6291.750507,919.314598
107.476330,1776.494261,8216.285956,2911.162892
107.476639,4145.153275,6365.771101,2221.676944
107.476949,296.082377,8142.265362,-919.314598
107.477258,-1702.473667,11399.171507,1455.581446
107.477568,-2812.782580,11325.150913,1838.629195
107.477877,-1850.514855,11843.295072,-8886.707777
107.478186,-2442.679609,11177.109724,-12027.699319
107.478496,2442.679609,12435.459826,-2911.162892
107.478805,-1554.432478,11029.068536,-1302.362347
107.479114,740.205942,8808.450710,4596.572988
107.479424,740.205942,6735.874072,9193.145976
107.479733,-1554.432478,5033.400406,2604.724693
107.480042,3701.029710,5255.462188,-2451.505594
107.480352,3775.050304,7920.203579,383.047749
107.480661,-2886.803174,8734.430116,383.047749
107.480971,-1332.370696,10510.924376,919.314598
107.481280,-1110.308913,10584.944971,-3294.210641
107.481589,-4293.194464,11029.068536,-12257.527968
107.481899,1332.370696,11547.212695,-11568.042020
107.482208,3108.864956,11473.192101,-4749.792088
107.482517,-3108.864956,11103.089130,-1838.629195
107.482827,1702.473667,7105.977043,4979.620737
107.483136,-814.226536,4441.235652,7584.345430
107.483446,666.185348,5921.647536,459.657299
107.483755,4589.276840,7624.121203,-383.047749
107.484064,3923.091493,12287.418637,2068.457845
107.484374,-444.123565,13397.727550,-612.876398
107.484683,-1184.329507,11769.274478,842.705048
107.484992,-4145.153275,13397.727550,-3447.429741
107.485302,-962.267725,12805.562797,-14172.766713
107.485611,666.185348,11991.336260,-10725.336972
107.485920,888.247130,10362.883188,-995.924147
107.486230,-2368.659014,11103.089130,2068.457845
107.486539,3034.844362,9400.615463,6894.859482
107.486849,-148.041188,5107.421000,8120.612279
107.487158,-0.000000,4293.194464,4290.134789
107.487467,3404.947333,5477.523971,1991.848295
107.487777,222.061783,11547.212695,-1149.143247
107.488086,-1998.556043,10214.842000,-383.047749
107.488395,-0.000000,12435.459826,-383.047749
107.488705,-2812.782580,10510.924376,-7431.126331
107.489014,-2368.659014,11103.089130,-11951.089769
107.489324,-1110.308913,11991.336260,-3524.039291
107.489633,-370.102971,8808.450710,766.095498
107.489942,-1776.494261,6661.853478,536.266849
107.490252,2368.659014,5477.523971,5592.497135
107.490561,-4293.194464,7476.080014,4826.401637
107.490870,1480.411884,3182.885551,-3753.867940
107.491180,3627.009116,8364.327145,-306.438199
107.491489,1850.514855,9104.533087,0.000000
107.491798,-2072.576638,12139.377449,0.000000
107.492108,1776.494261,10584.944971,0.000000
107.492417,-2294.638420,14285.974681,-9116.536426
107.492727,888.247130,11029.068536,-12947.013916
107.493036,1332.370696,11029.068536,-4673.182538
107.493345,-2368.659014,13693.809927,-1915.238745
107.493655,2442.679609,10732.986159,-3140.991542
107.493964,2368.659014,7550.100608,3217.601092
107.494273,-814.226536,6143.709319,3294.210641
107.494583,4219.173869,6291.750507,1532.190996
107.494892,5699.585753,8734.430116,1072.533697
107.495202,-1702.473667,9400.615463,2987.772442
107.495511,-0.000000,8956.491898,4060.306139
107.495820,-1036.288319,9548.656652,-919.314598
107.496130,-2664.741391,13175.665768,-10495.508323
107.496439,666.185348,11325.150913,-9806.022374
107.496748,-3330.926739,13767.830521,-2987.772442
107.497058,-2442.679609,13471.748144,-2451.505594
107.497367,592.164754,9030.512492,0.000000
107.497677,-518.144159,8586.388927,0.000000
107.497986,-1480.411884,7254.018232,1838.629195
107.498295,4367.215058,3923.091493,3983.696590
107.498605,4441.235652,3923.091493,3600.648841
107.498914,-2072.576638,6069.688724,3677.258390
107.499223,-592.164754,7105.977043,1225.752797
107.499533,-2664.741391,7624.121203,-3140.991542
107.499842,-370.102971,10288.862594,-13176.842566
107.500152,1998.556043,14137.933492,-11644.651570
107.500461,-2886.803174,13767.830521,-4213.525239
107.500770,-740.205942,11917.315666,-3677.258390
107.501080,1776.494261,7920.203579,383.047749
107.501389,962.267725,6661.853478,2528.115143
107.501698,-0.000000,6587.832884,2834.553343
107.502008,5107.421000,7031.956449,4290.134789
107.502317,6365.771101,9696.697840,2911.162892
107.502627,-0.000000,10510.924376,-612.876398
107.502936,-518.144159,12731.542202,2068.457845
107.503245,-3108.864956,11103.089130,-2911.162892
107.503555,-444.123565,14063.912898,-15015.471761
107.503864,666.185348,13545.768739,-10342.289223
107.504173,-3701.029710,10584.944971,-306.438199
107.504483,-0.000000,8882.471304,1685.410096
107.504792,1406.391290,6883.915261,7660.954980
107.505102,-888.247130,7179.997637,5822.325785
107.505411,-444.123565,2368.659014,6205.373534
107.505720,5033.400406,6587.832884,4979.620737
107.506030,1332.370696,8290.306550,1378.971896
107.506339,-3034.844362,12509.480420,2298.286494
107.506648,-2072.576638,11325.150913,1455.581446
107.506958,-3923.091493,11843.295072,-9193.145976
107.507267,-518.144159,12731.542202,-12257.527968
107.507577,-814.226536,13989.892304,-5592.497135
107.507886,888.247130,10881.027347,-3217.601092
107.508195,-592.164754,9252.574275,919.314598
107.508505,-148.041188,7105.977043,8120.612279
107.508814,666.185348,4663.297435,2298.286494
107.509123,2220.617826,4367.215058,1915.238745
107.509433,5255.462188,5699.585753,2834.553343
107.509742,-1258.350101,8216.285956,1225.752797
107.510052,888.247130,11621.233289,306.438199
107.510361,-0.000000,11769.274478,-2451.505594
107.510670,-2146.597232,12213.398043,-11491.432470
107.510980,-1480.411884,13175.665768,-9116.536426
107.511289,2146.597232,13175.665768,-7354.516781
107.511598,444.123565,11547.212695,-5975.544884
107.511908,518.144159,11843.295072,4826.401637
107.512217,1924.535449,11177.109724,6358.592633
107.512527,-2072.576638,3330.926739,536.266849
107.512836,6291.750507,4737.318029,-536.266849
107.513145,1258.350101,6217.729913,1302.362347
107.513455,-1924.535449,8586.388927,2298.286494
107.513764,222.061783,11769.274478,5439.278036
107.514073,-4293.194464,10140.821405,-536.266849
107.514383,-1406.391290,11103.089130,-10572.117872
107.514692,-1924.535449,11177.109724,-7660.954980
107.515002,-6143.709319,14211.954086,-5592.497135
107.515311,-222.061783,11029.068536,-3524.039291
107.515620,1332.370696,9770.718434,1685.410096
107.515930,-3478.967927,7328.038826,4903.011187
107.516239,148.041188,5181.441594,3294.210641
107.516548,3997.112087,6069.688724,-459.657299
107.516858,2220.617826,5699.585753,0.000000
107.517167,-1110.308913,8882.471304,5975.544884
107.517477,-222.061783,10214.842000,4366.744339
107.517786,-2294.638420,10807.006753,-7048.078582
107.518095,-1406.391290,12361.439231,-11721.261119
107.518405,-666.185348,12435.459826,-8350.440928
107.518714,-814.226536,10436.903782,-7431.126331
107.519023,740.205942,14582.057057,-2604.724693
107.519333,-1554.432478,11769.274478,4749.792088
107.519642,-148.041188,8364.327145,459.657299
107.519952,5773.606348,5773.606348,-3677.258390
107.520261,5403.503377,7624.121203,536.266849
107.520570,-1480.411884,8068.244768,7967.393179
107.520880,1776.494261,10362.883188,5132.839837
107.521189,444.123565,11029.068536,536.266849
107.521498,-1628.453072,10066.800811,-8963.317327
107.521808,-1332.370696,11769.274478,-9959.241474
107.522117,-962.267725,11843.295072,-2911.162892
107.522427,-1480.411884,11695.253884,-4136.915689
107.522736,-0.000000,11177.109724,1302.362347
107.523045,-1554.432478,7920.203579,5286.058936
107.523355,-3775.050304,4885.359217,1455.581446
107.523664,5181.441594,4737.318029,-1685.410096
107.523973,4293.194464,8142.265362,1455.581446
107.524283,-2960.823768,9474.636058,5286.058936
107.524592,-296.082377,10436.903782,7507.735880
107.524902,-1924.535449,7846.182985,-2068.457845
107.525211,-4071.132681,10436.903782,-9882.631924
107.525520,1110.308913,10584.944971,-8963.317327
107.525830,814.226536,12065.356855,-6511.811733
107.526139,-2960.823768,11991.336260,-4749.792088
107.526448,-74.020594,8068.244768,2834.553343
107.526758,-1554.432478,9474.636058,3447.429741
107.527067,814.226536,5477.523971,-4136.915689
107.527377,6661.853478,5625.565159,-1072.533697
107.527686,-74.020594,9992.780217,229.828649
107.527995,-370.102971,7920.203579,3677.258390
107.528305,2886.803174,10510.924376,6358.592633
107.528614,-2960.823768,11177.109724,-1915.238745
107.528923,-1628.453072,10807.006753,-9806.022374
107.529233,1110.308913,13619.789333,-7890.783629
107.529542,518.144159,14359.995275,-8273.831378
107.529852,-296.082377,12805.562797,-4673.182538
107.530161,-1110.308913,12065.356855,4136.915689
107.530470,-2294.638420,9326.594869,2374.896044
107.530780,740.205942,5551.544565,-4213.525239
107.531089,5403.503377,5625.565159,689.485948
107.531398,-0.000000,7254.018232,4443.353888
107.531708,-444.123565,8808.450710,5898.935335
107.532017,-814.226536,11251.130318,3907.087040
107.532327,-3182.885551,7031.956449,-3830.477490
107.532636,-1924.535449,9918.759623,-7048.078582
107.532945,888.247130,11177.109724,-4366.744339
107.533255,-1406.391290,12879.583391,-4443.353888
107.533564,-222.061783,10881.027347,0.000000
107.533873,-1332.370696,8586.388927,689.485948
107.534183,-2590.720797,6883.915261,-4596.572988
107.534492,2072.576638,6661.853478,-2834.553343
107.534802,4145.153275,6587.832884,3294.210641
107.535111,-1258.350101,7476.080014,4136.915689
107.535420,1258.350101,9918.759623,6358.592633
107.535730,-740.205942,10214.842000,3907.087040
107.536039,-2590.720797,9992.780217,-7584.345430
107.536348,3108.864956,7476.080014,-13866.328514
107.536658,1998.556043,13027.624579,-7890.783629
107.536967,-2368.659014,12657.521608,-6281.983084
107.537277,-0.000000,11103.089130,-842.705048
107.537586,-2220.617826,9326.594869,1302.362347
107.537895,-0.000000,7254.018232,-1762.019645
107.538205,4959.379811,6957.935855,-1378.971896
107.538514,2738.761985,7994.224174,1532.190996
107.538823,-0.000000,9548.656652,2757.943793
107.539133,-1554.432478,6069.688724,1838.629195
107.539442,-814.226536,11991.336260,-3447.429741
107.539752,-888.247130,11029.068536,-10955.165621
107.540061,666.185348,11251.130318,-7737.564530
107.540370,444.123565,13397.727550,-4060.306139
107.540680,-4663.297435,10584.944971,-612.876398
107.540989,-0.000000,7328.038826,5822.325785
107.541298,-1924.535449,7105.977043,2221.676944
107.541608,-0.000000,5477.523971,-3983.696590
107.541917,3997.112087,7328.038826,-995.924147
107.542227,-888.247130,8068.244768,0.000000
107.542536,666.185348,7994.224174,-153.219100
107.542845,-888.247130,12805.562797,1991.848295
107.543155,-4293.194464,11325.150913,-1762.019645
107.543464,-1702.473667,12657.521608,-9959.241474
107.543773,3552.988522,11029.068536,-6281.983084
107.544083,-1184.329507,9474.636058,-3447.429741
107.544392,-370.102971,8586.388927,1225.752797
107.544702,-814.226536,7179.997637,5132.839837
107.545011,-1258.350101,6661.853478,153.219100
107.545320,2294.638420,4811.338623,-3294.210641
107.545630,1850.514855,10881.027347,-842.705048
107.545939,-1036.288319,11251.130318,0.000000
107.546248,2442.679609,10658.965565,-1455.581446
107.546558,148.041188,11621.233289,-2298.286494
107.546867,-2146.597232,9696.697840,-4366.744339
107.547177,1036.288319,11547.212695,-5515.887586
107.547486,3330.926739,11251.130318,-5439.278036
107.547795,296.082377,7994.224174,-1915.238745
107.548105,-2590.720797,8586.388927,6052.154434
107.548414,-222.061783,11473.192101,4519.963438
107.548723,1702.473667,6957.935855,-4903.011187
107.549033,444.123565,6365.771101,-7354.516781
107.549342,740.205942,10214.842000,0.000000
107.549652,-2072.576638,7772.162391,-842.705048
107.549961,1184.329507,9474.636058,842.705048
107.550270,-3478.967927,9252.574275,2834.553343
107.550580,-3404.947333,9696.697840,-4826.401637
107.550889,1776.494261,9400.615463,-5132.839837
107.551198,592.164754,11399.171507,-2757.943793
107.551508,-1480.411884,10362.883188,-459.657299
107.551817,-1406.391290,9400.615463,2987.772442
107.552127,-1776.494261,10881.027347,612.876398
107.552436,-1628.453072,7624.121203,-4213.525239
107.552745,4589.276840,10066.800811,-5362.668486
107.553055,-1702.473667,8956.491898,-1608.800546
107.553364,-0.000000,7920.203579,-1915.238745
107.553674,-0.000000,9696.697840,4213.525239
107.553983,-1998.556043,9178.553681,306.438199
107.554292,-1628.453072,9992.780217,-5439.278036
107.554602,2146.597232,9178.553681,-7967.393179
107.554911,1850.514855,9252.574275,-11951.089769
107.555220,222.061783,9474.636058,-2681.334243
107.555530,-1998.556043,9770.718434,5439.278036
107.555839,-1332.370696,9326.594869,2604.724693
107.556149,444.123565,7105.977043,-2221.676944
107.556458,4071.132681,10288.862594,-1991.848295
107.556767,-0.000000,8734.430116,-2528.115143
107.557077,1258.350101,8808.450710,-536.266849
107.557386,-1850.514855,10362.883188,2298.286494
107.557695,-5995.668130,11769.274478,306.438199
107.558005,-1110.308913,10881.027347,-7277.907231
107.558314,2368.659014,10955.047942,-7431.126331
107.558624,444.123565,10214.842000,-4673.182538
107.558933,-1332.370696,9326.594869,3217.601092
107.559242,370.102971,7624.121203,7507.735880
107.559552,-1628.453072,7476.080014,153.219100
107.559861,2368.659014,5699.585753,-2604.724693
107.560170,2072.576638,6661.853478,-689.485948
107.560480,-1406.391290,9548.656652,-1838.629195
107.560789,962.267725,12139.377449,1991.848295
107.561099,-3404.947333,10807.006753,2145.067394
107.561408,-3627.009116,14434.015869,-5898.935335
107.561717,1480.411884,11473.192101,-11031.775171
107.562027,666.185348,8660.409521,-8733.488677
107.562336,-1702.473667,10436.903782,-2451.505594
107.562645,1184.329507,9992.780217,4826.401637
107.562955,1110.308913,7254.018232,6971.469032
107.563264,-666.185348,5847.626942,1225.752797
107.563574,2590.720797,4959.379811,-1762.019645
107.563883,2368.659014,8142.265362,-2911.162892
107.564192,962.267725,9104.533087,-2987.772442
107.564502,-518.144159,13397.727550,459.657299
107.564811,-3108.864956,13915.871710,383.047749
107.565120,-1628.453072,12139.377449,-8503.660028
107.565430,1332.370696,10510.924376,-10495.508323
107.565739,1332.370696,11399.171507,-5669.106685
107.566049,444.123565,9696.697840,1532.190996
107.566358,740.205942,8956.491898,8197.221829
107.566667,-740.205942,8586.388927,5439.278036
107.566977,444.123565,4885.359217,-383.047749
107.567286,2516.700203,7105.977043,-1838.629195
107.567595,3256.906145,9326.594869,-2451.505594
107.567905,-518.144159,8808.450710,-919.314598
107.568214,-3997.112087,12731.542202,4519.963438
107.568524,-2886.803174,12657.521608,-306.438199
107.568833,-370.102971,10288.862594,-10342.289223
107.569142,-1036.288319,11399.171507,-8197.221829
107.569452,1554.432478,10732.986159,-2834.553343
107.569761,814.226536,8734.430116,76.609550
107.570070,-296.082377,8216.285956,7048.078582
107.570380,-1850.514855,7254.018232,7201.297681
107.570689,-370.102971,6883.915261,-229.828649
107.570999,5773.606348,9252.574275,-4213.525239
107.571308,-1480.411884,9474.636058,-1915.238745
107.571617,-666.185348,9696.697840,1149.143247
107.571927,-1998.556043,13323.706956,1685.410096
107.572236,-2812.782580,12657.521608,-6052.154434
107.572545,-1850.514855,9622.677246,-8503.660028
107.572855,4145.153275,9326.594869,-8503.660028
107.573164,444.123565,8068.244768,-4366.744339
107.573474,-740.205942,7920.203579,5669.106685
107.573783,-518.144159,6513.812290,8503.660028
107.574092,518.144159,8290.306550,0.000000
107.574402,3182.885551,7179.997637,-3064.381992
107.574711,3552.988522,9400.615463,-3524.039291
107.575020,-0.000000,9696.697840,-3830.477490
107.575330,-1406.391290,12065.356855,-612.876398
107.575639,-2590.720797,11621.233289,842.705048
107.575949,-2072.576638,12731.542202,-7124.688131
107.576258,2146.597232,10066.800811,-6052.154434
107.576567,2812.782580,8882.471304,-5209.449386
107.576877,-1406.391290,9474.636058,-153.219100
107.577186,-814.226536,7994.224174,5745.716235
107.577495,370.102971,6439.791695,5975.544884
107.577805,-2146.597232,7254.018232,1302.362347
107.578114,4663.297435,9178.553681,-919.314598
107.578424,2072.576638,9104.533087,-1608.800546
107.578733,-1998.556043,10066.800811,-2451.505594
107.579042,-2886.803174,12805.562797,-1225.752797
107.579352,-3404.947333,8882.471304,-2604.724693
107.579661,-1924.535449,11621.233289,-9959.241474
107.579970,666.185348,10807.006753,-8273.831378
107.580280,1628.453072,9178.553681,-3140.991542
107.580589,-1776.494261,9252.574275,536.266849
107.580899,1258.350101,7994.224174,6281.983084
107.581208,-444.123565,6217.729913,4673.182538
107.581517,148.041188,8290.306550,-2145.067394
107.581827,6957.935855,7328.038826,-3140.991542
107.582136,1554.432478,9104.533087,-1838.629195
107.582445,-1776.494261,10510.924376,766.095498
107.582755,-2072.576638,11843.295072,3064.381992
107.583064,-1924.535449,11473.192101,-4213.525239
107.583374,-814.226536,10436.903782,-10418.898773
107.583683,2368.659014,11103.089130,-8503.660028
107.583992,1036.288319,9770.718434,-4903.011187
107.584302,-2072.576638,9474.636058,536.266849
107.584611,1110.308913,7772.162391,6894.859482
107.584920,444.123565,4959.379811,3140.991542
107.585230,666.185348,6809.894666,459.657299
107.585539,5551.544565,5921.647536,1762.019645
107.585849,1406.391290,6735.874072,76.609550
107.586158,-2146.597232,8882.471304,4903.011187
107.586467,-1406.391290,10214.842000,5745.716235
107.586777,-3404.947333,9474.636058,-4519.963438
107.587086,-814.226536,13989.892304,-10725.336972
107.587395,-148.041188,11621.233289,-5362.668486
107.587705,-2294.638420,12953.603985,-3294.210641
107.588014,-370.102971,13619.789333,-1455.581446
107.588324,-296.082377,9400.615463,4749.792088
107.588633,-1036.288319,8364.327145,4213.525239
107.588942,1628.453072,6143.709319,459.657299
107.589252,4663.297435,5255.462188,919.314598
107.589561,-592.164754,5847.626942,3064.381992
107.589870,592.164754,9252.574275,3064.381992
107.590180,-1258.350101,7772.162391,842.705048
107.590489,-3256.906145,9992.780217,-13253.452115
107.590799,814.226536,11325.150913,-10648.727422
107.591108,2368.659014,10436.903782,-8963.317327
107.591417,-2442.679609,11843.295072,-4060.306139
107.591727,-2368.659014,10214.842000,3447.429741
107.592036,2146.597232,12583.501014,4519.963438
107.592345,1406.391290,8512.368333,-2145.067394
107.592655,2442.679609,8068.244768,1915.238745
107.592964,3552.988522,7698.141797,3064.381992
107.593274,-296.082377,7402.059420,-2068.457845
107.593583,148.041188,11621.233289,2604.724693
107.593892,-3552.988522,9696.697840,1915.238745
107.594202,-740.205942,11843.295072,-8733.488677
107.594511,370.102971,12509.480420,-12180.918418
107.594820,2072.576638,10807.006753,-7277.907231
107.595130,-3997.112087,7846.182985,-1838.629195
107.595439,296.082377,9474.636058,2451.505594
107.595749,1628.453072,8216.285956,4213.525239
107.596058,-370.102971,5995.668130,3217.601092
107.596367,5033.400406,5403.503377,4673.182538
107.596677,3330.926739,6439.791695,2298.286494
107.596986,-2072.576638,6735.874072,842.705048
107.597281,-2442.679609,10140.821405,4060.306139
107.597591,-4589.276840,11843.295072,-76.609550
107.597900,-148.041188,14211.954086,-13483.280765
107.598210,1850.514855,13915.871710,-11108.384721
107.598519,-370.102971,11251.130318,-3524.039291
107.598829,-2072.576638,11103.089130,-1072.533697
107.599138,1406.391290,8068.244768,2834.553343
107.599448,-1184.329507,6661.853478,4903.011187
107.599757,1480.411884,6217.729913,459.657299
107.600067,7254.018232,5477.523971,-2068.457845
107.600376,1850.514855,8068.244768,2221.676944
107.600686,-2886.803174,7328.038826,4903.011187
107.600995,1480.411884,12287.418637,2681.334243
107.601305,-2960.823768,13249.686362,-7201.297681
107.601614,-1702.473667,11991.336260,-9576.193725
107.601924,4663.297435,12139.377449,-10572.117872
107.602233,222.061783,11251.130318,-9959.241474
107.602543,-2146.597232,11177.109724,459.657299
107.602852,-148.041188,7698.141797,8427.050478
107.603162,1406.391290,8956.491898,919.314598
107.603471,3034.844362,6957.935855,153.219100
107.603781,3552.988522,5551.544565,4290.134789
107.604090,-0.000000,7920.203579,1225.752797
107.604400,1184.329507,8068.244768,3830.477490
107.604709,-1332.370696,11917.315666,6281.983084
107.605019,-4737.318029,13101.645173,-4903.011187
107.605328,592.164754,13175.665768,-11644.651570
107.605638,1554.432478,11991.336260,-8350.440928
107.605947,-1628.453072,11251.130318,-4519.963438
107.606256,444.123565,8660.409521,5132.839837
107.606566,-666.185348,9918.759623,7814.174080
107.606875,-2146.597232,6587.832884,3753.867940
107.607185,3256.906145,5477.523971,-1149.143247
107.607494,4737.318029,5551.544565,-1762.019645
107.607804,-1332.370696,5773.606348,1455.581446
107.608113,-0.000000,10214.842000,7201.297681
107.608423,-1332.370696,9844.739029,2834.553343
107.608732,-1480.411884,11991.336260,-7660.954980
107.609042,-740.205942,10732.986159,-11184.994271
107.609351,1258.350101,9770.718434,-8044.002729
107.609661,-1702.473667,11177.109724,-4903.011187
107.609970,-0.000000,10214.842000,1532.190996
107.610280,-1258.350101,8734.430116,5132.839837
107.610589,740.205942,7031.956449,-612.876398
107.610899,5551.544565,7476.080014,-3830.477490
107.611208,3627.009116,7105.977043,-1378.971896
107.611518,-1258.350101,9918.759623,3294.210641
107.611827,148.041188,11325.150913,7660.954980
107.612137,-3108.864956,11621.233289,-612.876398
107.612446,-1332.370696,10881.027347,-8963.317327
107.612756,3478.967927,9474.636058,-8810.098227
107.613065,740.205942,10584.944971,-6894.859482
107.613375,-4663.297435,7994.224174,0.000000
107.613684,-2368.659014,10140.821405,9422.974625
107.613994,-74.020594,8734.430116,1991.848295
107.614303,2368.659014,8216.285956,-5209.449386
107.614613,4219.173869,9622.677246,-1608.800546
107.614922,1332.370696,8364.327145,-842.705048
107.615231,-1036.288319,8956.491898,1455.581446
107.615541,-2294.638420,11325.150913,8503.660028
107.615850,-3701.029710,11621.233289,459.657299
107.616160,814.226536,10658.965565,-9576.193725
107.616469,2960.823768,9844.739029,-9959.241474
107.616779,-2294.638420,8438.347739,-2681.334243
107.617088,-2738.761985,9326.594869,1838.629195
107.617398,888.247130,9992.780217,2451.505594
107.617707,-370.102971,6365.771101,536.266849
107.618017,2590.720797,7846.182985,-4519.963438
107.618326,5551.544565,5921.647536,-3217.601092
107.618636,592.164754,5329.482782,612.876398
107.618945,-2812.782580,8660.409521,9193.145976
107.619255,-1998.556043,11843.295072,5439.278036
107.619564,888.247130,10881.027347,-8120.612279
107.619874,1480.411884,11621.233289,-11491.432470
107.620183,2368.659014,11991.336260,-7507.735880
107.620493,-5625.565159,12731.542202,-5056.230287
107.620802,-1554.432478,13101.645173,2451.505594
107.621112,518.144159,10955.047942,4290.134789
107.621421,-370.102971,8586.388927,-3447.429741
107.621731,4441.235652,8808.450710,-2987.772442
107.622040,3627.009116,4145.153275,1762.019645
107.622350,-1554.432478,4885.359217,4366.744339
107.622659,-888.247130,12657.521608,7890.783629
107.622969,-1184.329507,7328.038826,2374.896044
107.623278,-888.247130,9474.636058,-8580.269578
107.623587,3627.009116,10807.006753,-9576.193725
107.623897,-1924.535449,9400.615463,-3677.258390
107.624206,-5477.523971,13027.624579,229.828649
107.624516,-1776.494261,10807.006753,3447.429741
107.624825,-370.102971,9178.553681,2298.286494
107.625135,-0.000000,8142.265362,-4213.525239
107.625444,6661.853478,7179.997637,-4903.011187
107.625754,1554.432478,6217.729913,0.000000
107.626063,-5181.441594,8364.327145,6435.202183
107.626373,-666.185348,9474.636058,7737.564530
107.626682,1110.308913,9178.553681,-4903.011187
107.626992,1702.473667,11103.089130,-12104.308868
107.627301,-0.000000,10066.800811,-6052.154434
107.627611,1332.370696,9770.718434,-6052.154434
107.627920,-1850.514855,12139.377449,-1532.190996
107.628230,-0.000000,11695.253884,5898.935335
107.628539,296.082377,8068.244768,306.438199
107.628849,3923.091493,7328.038826,-6588.421283
107.629158,4071.132681,9030.512492,-766.095498
107.629468,-1184.329507,6217.729913,3600.648841
107.629777,-2368.659014,9844.739029,3983.696590
107.630087,-444.123565,11991.336260,1378.971896
107.630396,-148.041188,10732.986159,-8427.050478
107.630706,1850.514855,12879.583391,-9576.193725
107.631015,2812.782580,10732.986159,-5132.839837
107.631325,-3404.947333,11029.068536,0.000000
107.631634,-4441.235652,10214.842000,4749.792088
107.631944,3997.112087,5107.421000,3753.867940
107.632253,1036.288319,5477.523971,-3064.381992
107.632562,666.185348,7550.100608,-1838.629195
107.632872,2146.597232,7994.224174,2298.286494
107.633181,-3256.906145,7994.224174,3140.991542
107.633491,-740.205942,13175.665768,2145.067394
107.633800,-1406.391290,11473.192101,-2145.067394
107.634110,-296.082377,10584.944971,-9422.974625
107.634419,370.102971,13915.871710,-8886.707777
107.634729,74.020594,9030.512492,-6281.983084
107.635038,-1036.288319,8734.430116,-2298.286494
107.635348,-1480.411884,8068.244768,5286.058936
107.635657,1184.329507,7994.224174,4826.401637
107.635967,2886.803174,5477.523971,-4213.525239
107.636276,3034.844362,8142.265362,-3524.039291
107.636586,962.267725,8216.285956,2374.896044
107.636895,-962.267725,8808.450710,689.485948
107.637205,962.267725,12435.459826,-1915.238745
107.637514,-740.205942,11399.171507,-5745.716235
107.637824,-0.000000,13989.892304,-10801.946522
107.638133,1628.453072,11399.171507,-8580.269578
107.638443,592.164754,8142.265362,-1225.752797
107.638752,-3627.009116,10436.903782,2451.505594
107.639062,222.061783,10362.883188,766.095498
107.639371,3108.864956,9326.594869,-689.485948
107.639681,-1702.473667,7105.977043,-2451.505594
107.639990,3701.029710,9252.574275,-1762.019645
107.640300,444.123565,8216.285956,-2604.724693
107.640609,-2664.741391,9030.512492,1225.752797
107.640919,-666.185348,9770.718434,4213.525239
107.641228,-1110.308913,7031.956449,-3370.820191
107.641537,-666.185348,10584.944971,-5439.278036
107.641847,-370.102971,9992.780217,-1072.533697
107.642156,-2220.617826,9474.636058,-1915.238745
107.642466,-2294.638420,9770.718434,-1991.848295
107.642775,-888.247130,10732.986159,1455.581446
107.643085,296.082377,11621.233289,-3447.429741
107.643394,962.267725,10362.883188,-3753.867940
107.643704,2368.659014,8734.430116,-153.219100
107.644013,-518.144159,7550.100608,1608.800546
107.644323,666.185348,8438.347739,2528.115143
107.644632,-1998.556043,9918.759623,1838.629195
107.644942,-2220.617826,8660.409521,-1608.800546
107.645251,2442.679609,8808.450710,-9346.365076
107.645561,2664.741391,7772.162391,-7277.907231
107.645870,-888.247130,13101.645173,-3753.867940
107.646180,-1184.329507,11251.130318,-2145.067394
107.646489,-888.247130,9548.656652,2221.676944
107.646799,-962.267725,8290.306550,1762.019645
107.647108,2368.659014,8734.430116,-2911.162892
107.647418,3330.926739,7402.059420,-2681.334243
107.647727,-740.205942,5255.462188,0.000000
107.648037,-444.123565,10362.883188,3677.258390
107.648346,888.247130,12657.521608,-2451.505594
107.648656,-3108.864956,12435.459826,-6511.811733
107.648965,-888.247130,11621.233289,-2604.724693
107.649275,2220.617826,7031.956449,-7584.345430
107.649584,-1258.350101,10510.924376,-3600.648841
107.649894,-2294.638420,10214.842000,8273.831378
107.650203,1998.556043,6587.832884,5975.544884
107.650512,-666.185348,5329.482782,-3064.381992
107.650822,2738.761985,8216.285956,1838.629195
107.651131,1406.391290,7031.956449,76.609550
107.651441,-444.123565,8956.491898,-2911.162892
107.651750,-1998.556043,14508.036463,3830.477490
107.652060,-5033.400406,13101.645173,-1072.533697
107.652369,-592.164754,14804.118840,-11414.822920
107.652679,296.082377,12805.562797,-9269.755526
107.652988,1554.432478,9770.718434,-5209.449386
107.653298,370.102971,6143.709319,-2757.943793
107.653607,-592.164754,6069.688724,6971.469032
107.653917,-1702.473667,6143.709319,10112.460574
107.654226,1406.391290,6735.874072,-842.705048
107.654536,6217.729913,5107.421000,-4519.963438
107.654845,-370.102971,9030.512492,-2374.896044
107.655155,-888.247130,10510.924376,-612.876398
107.655464,-2886.803174,11177.109724,-689.485948
107.655774,-1924.535449,14804.118840,-4903.011187
107.656083,-1184.329507,12805.562797,-13866.328514
107.656393,2664.741391,11843.295072,-10878.556072
107.656702,592.164754,9474.636058,-3830.477490
107.657012,-814.226536,10732.986159,2451.505594
107.657321,2516.700203,10066.800811,4826.401637
107.657631,-148.041188,6661.853478,8350.440928
107.657940,-0.000000,7402.059420,2298.286494
107.658250,6587.832884,4071.132681,-4213.525239
107.658559,296.082377,6291.750507,-3447.429741
107.658869,-4293.194464,9474.636058,5592.497135
107.659178,-3034.844362,12509.480420,2145.067394
107.659487,-222.061783,11399.171507,-8273.831378
107.659797,-1850.514855,13693.809927,-9806.022374
107.660106,2072.576638,13397.727550,-6894.859482
107.660416,-888.247130,7772.162391,-2987.772442
107.660725,-1332.370696,14359.995275,3983.696590
107.661035,740.205942,9622.677246,7354.516781
107.661344,296.082377,7031.956449,1838.629195
107.661654,3034.844362,6365.771101,459.657299
107.661963,4145.153275,5329.482782,-1915.238745
107.662273,-518.144159,5181.441594,-1532.190996
107.662582,-4441.235652,10436.903782,4749.792088
107.662892,-3627.009116,14804.118840,842.705048
107.663201,222.061783,9474.636058,-13253.452115
107.663511,962.267725,10658.965565,-14249.376263
107.663820,444.123565,9178.553681,-5822.325785
107.664130,-1406.391290,8586.388927,-3064.381992
107.664439,-666.185348,7698.141797,5515.887586
107.664749,2886.803174,6883.915261,16088.005458
107.665058,2442.679609,7920.203579,1378.971896
107.665368,3552.988522,5033.400406,-2604.724693
107.665677,1258.350101,8068.244768,2834.553343
107.665987,-1184.329507,9326.594869,0.000000
107.666296,-592.164754,15470.304188,-2298.286494
107.666606,-962.267725,15766.386565,-3830.477490
107.666915,-1702.473667,14211.954086,-11721.261119
107.667225,1258.350101,12435.459826,-11874.480219
107.667534,2664.741391,7254.018232,-2757.943793
107.667844,-3478.967927,9918.759623,4443.353888
107.668153,1776.494261,5625.565159,7507.735880
107.668462,814.226536,4219.173869,7124.688131
107.668772,-0.000000,3478.967927,3600.648841
107.669081,5995.668130,7105.977043,3294.210641
107.669391,-592.164754,9400.615463,-689.485948
107.669700,-5255.462188,12583.501014,2528.115143
107.670010,-1924.535449,16284.530724,689.485948
107.670319,296.082377,13841.851115,-11261.603821
107.670629,592.164754,13471.748144,-14555.814462
107.670938,-1628.453072,9696.697840,-5592.497135
107.671248,-4293.194464,8364.327145,1838.629195
107.671557,-0.000000,8142.265362,4826.401637
107.671867,5773.606348,4811.338623,7507.735880
107.672176,592.164754,5181.441594,2221.676944
107.672486,2516.700203,3701.029710,383.047749
107.672795,4145.153275,7031.956449,-689.485948
107.673105,296.082377,9474.636058,-2298.286494
107.673414,-2146.597232,11251.130318,919.314598
107.673724,-3552.988522,13471.748144,306.438199
107.674033,-370.102971,9992.780217,-10725.336972
107.674343,444.123565,11621.233289,-12640.575717
107.674652,-962.267725,11325.150913,-2757.943793
107.674962,-1924.535449,11843.295072,-2374.896044
107.675271,888.247130,9252.574275,1838.629195
107.675581,2812.782580,7846.182985,3907.087040
107.675890,-0.000000,5847.626942,2298.286494
107.676200,1850.514855,4219.173869,0.000000
107.676509,1406.391290,7105.977043,995.924147
107.676819,-962.267725,5995.668130,612.876398
107.677128,-444.123565,10807.006753,3830.477490
107.677437,-2146.597232,12139.377449,-689.485948
107.677747,-1110.308913,11621.233289,-8733.488677
107.678056,-444.123565,14508.036463,-8197.221829
107.678366,-1480.411884,12583.501014,-4519.963438
107.678675,-2516.700203,12065.356855,-4060.306139
107.678985,1702.473667,10807.006753,-536.266849
107.679294,1184.329507,5921.647536,919.314598
107.679604,740.205942,6291.750507,1762.019645
107.679913,2368.659014,6365.771101,6128.763984
107.680223,3108.864956,4145.153275,6281.983084
107.680532,-1110.308913,7031.956449,3140.991542
107.680842,-222.061783,10436.903782,2374.896044
107.681151,-1924.535449,7920.203579,-4366.744339
107.681461,-3552.988522,13249.686362,-13023.623466
107.681770,-1480.411884,13101.645173,-16547.662757
107.682080,-370.102971,11399.171507,-9882.631924
107.682389,-518.144159,11103.089130,-2528.115143
107.682699,740.205942,10066.800811,4903.011187
107.683008,666.185348,7105.977043,4443.353888
107.683318,962.267725,5181.441594,3600.648841
107.683627,5329.482782,5625.565159,4903.011187
107.683937,2738.761985,4959.379811,1685.410096
107.684246,-1110.308913,10214.842000,689.485948
107.684556,-1110.308913,13841.851115,2068.457845
107.684865,-1332.370696,14285.974681,-6281.983084
107.685175,-962.267725,14211.954086,-13253.452115
107.685484,-2664.741391,11325.150913,-7660.954980
107.685794,-1998.556043,10510.924376,-3830.477490
107.686103,-1332.370696,10140.821405,-2834.553343
107.686412,2368.659014,8660.409521,2528.115143
107.686722,-740.205942,5329.482782,7048.078582
107.687031,2960.823768,4737.318029,7354.516781
107.687341,3552.988522,4737.318029,4979.620737
107.687650,666.185348,9474.636058,0.000000
107.687960,-1554.432478,11547.212695,2145.067394
107.688269,-4219.173869,12287.418637,-153.219100
107.688579,-1850.514855,13989.892304,-8350.440928
107.688888,-1850.514855,14730.098246,-13406.671215
107.689198,-888.247130,13619.789333,-10418.898773
107.689507,-666.185348,10584.944971,-4826.401637
107.689817,148.041188,8734.430116,995.924147
107.690126,-0.000000,5477.523971,6818.249932
107.690436,74.020594,3997.112087,4903.011187
107.690745,3330.926739,5107.421000,2451.505594
107.691055,6069.688724,5625.565159,-919.314598
107.691364,1332.370696,5921.647536,0.000000
107.691674,-148.041188,9992.780217,2068.457845
107.691983,-370.102971,11843.295072,-536.266849
107.692293,-3478.967927,12139.377449,-8580.269578
107.692602,-1850.514855,14137.933492,-7201.297681
107.692912,1258.350101,12509.480420,-8350.440928
107.693221,1258.350101,9474.636058,-11491.432470
107.693531,-1036.288319,9622.677246,0.000000
107.693840,-1702.473667,8290.306550,6971.469032
107.694150,-296.082377,5847.626942,2221.676944
107.694459,5477.523971,7698.141797,1225.752797
107.694768,4663.297435,5403.503377,4519.963438
107.695078,222.061783,7031.956449,3907.087040
107.695387,-740.205942,9770.718434,5822.325785
107.695697,-1776.494261,9918.759623,153.219100
107.696006,-2368.659014,14508.036463,-11261.603821
107.696316,814.226536,12139.377449,-9959.241474
107.696625,148.041188,9844.739029,-8120.612279
107.696935,-3627.009116,13397.727550,-4213.525239
107.697244,-1110.308913,11547.212695,2298.286494
107.697554,-666.185348,8438.347739,5669.106685
107.697863,1036.288319,8216.285956,459.657299
107.698173,5551.544565,6661.853478,842.705048
107.698482,1776.494261,4219.173869,1915.238745
107.698792,-666.185348,5847.626942,4673.182538
107.699101,-1702.473667,9622.677246,3907.087040
107.699411,-2368.659014,12435.459826,-3600.648841
107.699720,666.185348,13471.748144,-11568.042020
107.700030,222.061783,11695.253884,-11338.213370
107.700339,2146.597232,7846.182985,-11797.870669
107.700649,-2738.761985,9030.512492,-1532.190996
107.700958,-1850.514855,9770.718434,5056.230287
107.701268,1406.391290,6735.874072,2145.067394
107.701577,1850.514855,7920.203579,-1915.238745
107.701887,6069.688724,4959.379811,-536.266849
107.702196,1702.473667,6143.709319,1149.143247
107.702506,-1332.370696,10510.924376,5132.839837
107.702815,-962.267725,13323.706956,4903.011187
107.703125,-1258.350101,13693.809927,-4979.620737
107.703434,814.226536,12287.418637,-10648.727422
107.703744,296.082377,11991.336260,-8580.269578
107.704054,-2368.659014,8882.471304,-4903.011187
107.704363,-2960.823768,10807.006753,1838.629195
107.704673,-296.082377,11473.192101,3753.867940
107.704982,-1184.329507,7624.121203,383.047749
107.705292,4589.276840,8512.368333,-1149.143247
107.705601,6217.729913,8660.409521,-1149.143247
107.705911,-0.000000,5181.441594,2834.553343
107.706220,-2220.617826,9252.574275,12870.404366
107.706530,-3404.947333,10436.903782,5132.839837
107.706839,-592.164754,8660.409521,-5745.716235
107.707149,1480.411884,10288.862594,-7814.174080
107.707458,-1258.350101,10732.986159,-7201.297681
107.707768,-1776.494261,11251.130318,-7048.078582
107.708077,-1776.494261,12361.439231,3064.381992
107.708387,-2220.617826,10436.903782,2298.286494
107.708696,1702.473667,8956.491898,-3753.867940
107.709006,7698.141797,7994.224174,-4903.011187
107.709315,296.082377,5995.668130,1455.581446
107.709625,-0.000000,5921.647536,4213.525239
107.709934,518.144159,9548.656652,7201.297681
107.710244,-0.000000,9844.739029,919.314598
107.710553,-592.164754,13471.748144,-7890.783629
107.710863,2590.720797,12435.459826,-8503.660028
107.711172,-1998.556043,12805.562797,-10035.851024
107.711482,-1776.494261,10881.027347,-5056.230287
107.711791,-3997.112087,10732.986159,1991.848295
107.712101,-0.000000,9252.574275,-1302.362347
107.712410,2738.761985,7179.997637,-4979.620737
107.712720,4589.276840,4737.318029,1685.410096
107.713029,-814.226536,4441.235652,6435.202183
107.713339,296.082377,8142.265362,8044.002729
107.713648,1406.391290,11473.192101,6281.983084
107.713958,-1184.329507,8586.388927,-2451.505594
107.714267,-592.164754,15618.345376,-9269.755526
107.714577,1924.535449,13545.768739,-6818.249932
107.714886,666.185348,10362.883188,-8120.612279
107.715196,-5033.400406,13397.727550,-153.219100
107.715505,-1406.391290,11473.192101,2987.772442
107.715815,-0.000000,8364.327145,-1608.800546
107.716124,4959.379811,8364.327145,3830.477490
107.716434,1628.453072,4959.379811,2374.896044
107.716743,-0.000000,5477.523971,4519.963438
107.717053,-1406.391290,8438.347739,6358.592633
107.717362,1258.350101,8364.327145,919.314598
107.717672,-1406.391290,9252.574275,-7354.516781
107.717981,-1332.370696,10732.986159,-7967.393179
107.718291,1036.288319,9548.656652,-7660.954980
107.718600,-814.226536,11325.150913,-6128.763984
107.718910,-1554.432478,16358.551318,2298.286494
107.719219,-1406.391290,11251.130318,2145.067394
107.719529,-1036.288319,7179.997637,-2451.505594
107.719838,4145.153275,7402.059420,-2221.676944
107.720148,3034.844362,6143.709319,-1608.800546
107.720457,-1184.329507,9178.553681,1532.190996
107.720767,-1332.370696,10288.862594,5209.449386
107.721076,222.061783,7846.182985,-1685.410096
107.721386,148.041188,11473.192101,-7048.078582
107.721695,-1628.453072,11621.233289,-3600.648841
107.722005,666.185348,8956.491898,-6971.469032
107.722314,-1184.329507,10584.944971,-3753.867940
107.722624,-1332.370696,12731.542202,3677.258390
107.722933,148.041188,7772.162391,1072.533697
107.723243,2294.638420,6217.729913,-2451.505594
107.723552,2368.659014,9770.718434,536.266849
107.723862,1332.370696,6069.688724,2834.553343
107.724171,-1406.391290,8956.491898,4136.915689
107.724481,-0.000000,12509.480420,3064.381992
107.724790,-4663.297435,11177.109724,-2604.724693
107.725100,148.041188,14582.057057,-7277.907231
107.725409,1110.308913,13471.748144,-7584.345430
107.725719,1184.329507,11473.192101,-7507.735880
107.726028,518.144159,9178.553681,-2145.067394
107.726338,-2516.700203,6735.874072,5056.230287
107.726647,518.144159,6513.812290,4443.353888
107.726957,740.205942,7179.997637,1915.238745
107.727266,3182.885551,7402.059420,919.314598
107.727576,-2516.700203,4589.276840,689.485948
107.727885,1184.329507,10362.883188,-1608.800546
107.728195,-0.000000,10066.800811,-2451.505594
107.728504,-3478.967927,10584.944971,-3983.696590
107.728814,-814.226536,14878.139434,-6435.202183
107.729123,1184.329507,12065.356855,-8733.488677
107.729433,1258.350101,9844.739029,-4749.792088
107.729742,-1628.453072,8512.368333,4519.963438
107.730052,-962.267725,7698.141797,4749.792088
107.730361,-1036.288319,8290.306550,-2145.067394
107.730671,-0.000000,8438.347739,842.705048
107.730980,3404.947333,7105.977043,-2298.286494
107.731290,2664.741391,5847.626942,-5209.449386
107.731599,-2368.659014,9770.718434,1532.190996
107.731909,-2516.700203,12139.377449,1991.848295
107.732218,-222.061783,12139.377449,-4519.963438
107.732528,-2146.597232,10140.821405,-3677.258390
107.732837,1776.494261,12287.418637,-1915.238745
107.733147,740.205942,7550.100608,-1762.019645
107.733456,-0.000000,8660.409521,1455.581446
107.733766,-2590.720797,10214.842000,3447.429741
107.734075,-1628.453072,8734.430116,-1149.143247
107.734385,4367.215058,10732.986159,-3064.381992
107.734694,1554.432478,8734.430116,-2374.896044
107.735004,2220.617826,9622.677246,-995.924147
107.735313,-518.144159,10732.986159,2528.115143
107.735623,-3404.947333,9030.512492,1149.143247
107.735932,-222.061783,8660.409521,-3064.381992
107.736242,3108.864956,7105.977043,-5822.325785
107.736551,666.185348,8216.285956,-7124.688131
107.736861,-518.144159,7105.977043,-2298.286494
107.737170,-814.226536,7624.121203,1991.848295
107.737480,-2960.823768,10214.842000,3907.087040
107.737789,-0.000000,9622.677246,-229.828649
107.738099,2812.782580,10584.944971,-2911.162892
107.738408,4811.338623,7550.100608,-5822.325785
107.738718,-2812.782580,7698.141797,-1532.190996
107.739027,-1184.329507,11547.212695,3830.477490
107.739337,-1332.370696,11991.336260,-1225.752797
107.739646,-592.164754,13619.789333,-5898.935335
107.739956,2368.659014,12139.377449,-5439.278036
107.740265,2738.761985,7772.162391,-6894.859482
107.740575,-814.226536,7698.141797,-1455.581446
107.740884,-2072.576638,11325.150913,7354.516781
107.741194,592.164754,7179.997637,2068.457845
107.741503,2664.741391,7476.080014,-2145.067394
107.741813,1924.535449,7476.080014,2911.162892
107.742122,-222.061783,8216.285956,-995.924147
107.742432,1036.288319,10658.965565,-1532.190996
107.742741,-1702.473667,12583.501014,2451.505594
107.743051,-4589.276840,12805.562797,-2451.505594
107.743360,148.041188,15026.180623,-8427.050478
107.743670,4589.276840,10807.006753,-8810.098227
107.743979,-1258.350101,8068.244768,-4290.134789
107.744289,-1776.494261,7254.018232,4443.353888
107.744598,1702.473667,7179.997637,4136.915689
107.744908,-2516.700203,7328.038826,995.924147
107.745217,2442.679609,9178.553681,766.095498
107.745527,2442.679609,6217.729913,-2298.286494
107.745836,-74.020594,7846.182985,-5056.230287
107.746146,1776.494261,8882.471304,2451.505594
107.746455,-3701.029710,9104.533087,2221.676944
107.746765,-5625.565159,12361.439231,-4903.011187
107.747074,2368.659014,11917.315666,-9116.536426
107.747384,3552.988522,10436.903782,-8733.488677
107.747693,222.061783,8586.388927,-2145.067394
107.748003,-1110.308913,11843.295072,5898.935335
107.748312,-1110.308913,8290.306550,7124.688131
107.748622,592.164754,9030.512492,2528.115143
107.748931,3108.864956,9474.636058,153.219100
107.749241,2590.720797,2738.761985,-2911.162892
107.749550,-888.247130,6587.832884,-1072.533697
107.749860,-2146.597232,8734.430116,3447.429741
107.750169,-5699.585753,13545.768739,0.000000
107.750479,1998.556043,10881.027347,-6435.202183
107.750788,2368.659014,13693.809927,-9422.974625
107.751098,3997.112087,13619.789333,-7354.516781
107.751407,-3404.947333,11399.171507,-383.047749
107.751717,-3034.844362,10362.883188,7277.907231
107.752026,888.247130,7328.038826,5209.449386
107.752336,1258.350101,6069.688724,-153.219100
107.752645,4811.338623,5477.523971,1225.752797
107.752955,-74.020594,6069.688724,-383.047749
107.753264,-888.247130,6291.750507,-4290.134789
107.753574,-1776.494261,10584.944971,2221.676944
107.753883,-2960.823768,11769.274478,-4060.306139
107.754193,-1480.411884,11991.336260,-9806.022374
107.754502,2960.823768,13767.830521,-11338.213370
107.754812,1776.494261,8142.265362,-9346.365076
107.755121,-2516.700203,6365.771101,1302.362347
107.755431,592.164754,8364.327145,9269.755526
107.755740,-222.061783,7402.059420,6052.154434
107.756050,3997.112087,10288.862594,3217.601092
107.756359,3256.906145,7105.977043,612.876398
107.756669,1554.432478,6661.853478,-4826.401637
107.756978,-1998.556043,10658.965565,-2987.772442
107.757288,-2220.617826,12657.521608,-459.657299
107.757597,-3256.906145,14656.077652,-6511.811733
107.757907,222.061783,16284.530724,-11108.384721
107.758217,2516.700203,9622.677246,-9116.536426
107.758526,296.082377,7105.977043,-1991.848295
107.758836,-1702.473667,7920.203579,4060.306139
107.759145,-444.123565,6217.729913,8580.269578
107.759455,666.185348,6143.709319,4136.915689
107.759764,2368.659014,8586.388927,1762.019645
107.760074,4367.215058,7994.224174,-2298.286494
107.760383,-0.000000,10807.006753,-5209.449386
107.760693,-3701.029710,14434.015869,-995.924147
107.761002,-1776.494261,15470.304188,-2604.724693
107.761312,-2220.617826,13471.748144,-7967.393179
107.761621,592.164754,11991.336260,-9576.193725
107.761931,1184.329507,9622.677246,-6281.983084
107.762240,-74.020594,6809.894666,-1762.019645
107.762550,-0.000000,4885.359217,6588.421283
107.762859,-814.226536,5699.585753,7431.126331
107.763169,-518.144159,4515.256246,2451.505594
107.763478,3478.967927,6365.771101,-612.876398
107.763788,1998.556043,8586.388927,-3217.601092
107.764097,666.185348,9548.656652,-4290.134789
107.764407,-2294.638420,13471.748144,-766.095498
107.764716,-4367.215058,14137.933492,-1685.410096
107.765026,-2220.617826,12657.521608,-7201.297681
107.765335,592.164754,14063.912898,-9576.193725
107.765645,2738.761985,9400.615463,-7201.297681
107.765954,-2442.679609,5625.565159,-1302.362347
107.766264,-666.185348,10436.903782,4519.963438
107.766573,1406.391290,5107.421000,3140.991542
107.766883,666.185348,7994.224174,1225.752797
107.767192,3330.926739,7994.224174,2834.553343
107.767502,2886.803174,2368.659014,-689.485948
107.767811,-962.267725,7994.224174,766.095498
107.768121,-2368.659014,10955.047942,4443.353888
107.768430,-3182.885551,12139.377449,-2298.286494
107.768740,-814.226536,14359.995275,-7967.393179
107.769049,74.020594,14285.974681,-9652.803275
107.769359,-2590.720797,10584.944971,-7354.516781
107.769668,-0.000000,10214.842000,-2528.115143
107.769978,740.205942,10510.924376,1608.800546
107.770287,1036.288319,5773.606348,3217.601092
107.770597,1110.308913,6143.709319,5132.839837
107.770906,1924.535449,5995.668130,4673.182538
107.771216,1850.514855,4293.194464,1838.629195
107.771525,222.061783,6143.709319,1915.238745
107.771835,-4737.318029,9992.780217,4366.744339
107.772144,-2072.576638,11769.274478,-5056.230287
107.772454,-962.267725,13915.871710,-12947.013916
107.772763,-518.144159,14878.139434,-11797.870669
107.773073,-1258.350101,10807.006753,-8656.879127
107.773382,148.041188,9622.677246,-3294.210641
107.773692,1628.453072,8660.409521,4366.744339
107.774001,-74.020594,5329.482782,6128.763984
107.774311,2442.679609,7624.121203,5822.325785
107.774620,5329.482782,3997.112087,1685.410096
107.774930,222.061783,4441.235652,0.000000
107.775239,-1850.514855,8364.327145,3064.381992
107.775549,-3627.009116,9696.697840,-383.047749
107.775858,-3182.885551,12657.521608,-10725.336972
107.776168,-0.000000,16136.489536,-13100.233016
107.776477,370.102971,13397.727550,-10572.117872
107.776787,-3034.844362,9770.718434,-6281.983084
107.777096,-74.020594,10436.903782,2834.553343
107.777406,2072.576638,5181.441594,4060.306139
107.777715,1258.350101,4811.338623,5975.544884
107.778025,4441.235652,9548.656652,7814.174080
107.778334,3034.844362,4441.235652,3064.381992
107.778644,-0.000000,7402.059420,76.609550
107.778953,222.061783,11547.212695,1455.581446
107.779263,-3997.112087,12361.439231,-3524.039291
107.779572,-1776.494261,15174.221811,-10878.556072
107.779882,-1184.329507,15248.242405,-13789.718964
107.780191,1110.308913,10955.047942,-8810.098227
107.780501,-1998.556043,11769.274478,-2298.286494
107.780810,1554.432478,7698.141797,3217.601092
107.781120,518.144159,5477.523971,6205.373534
107.781429,666.185348,4145.153275,5669.106685
107.781739,4145.153275,7105.977043,3217.601092
107.782048,4737.318029,4737.318029,-995.924147
107.782358,814.226536,6439.791695,-1685.410096
107.782667,-2368.659014,12361.439231,1685.410096
107.782977,-4811.338623,12361.439231,-2987.772442
107.783286,-888.247130,17024.736666,-8733.488677
107.783596,1924.535449,14730.098246,-11414.822920
107.783905,1628.453072,9474.636058,-12640.575717
107.784215,-2590.720797,8290.306550,-1685.410096
107.784524,-814.226536,8438.347739,3983.696590
107.784834,-962.267725,4885.359217,4443.353888
107.785143,2590.720797,7698.141797,4213.525239
107.785453,4737.318029,5921.647536,3907.087040
107.785762,3404.947333,3552.988522,0.000000
107.786072,-592.164754,9918.759623,-1991.848295
107.786381,-2812.782580,10881.027347,1072.533697
107.786691,-3552.988522,13619.789333,-1532.190996
107.787000,-0.000000,15544.324782,-6894.859482
107.787310,3404.947333,13323.706956,-10112.460574
107.787619,-2590.720797,11473.192101,-7354.516781
107.787929,-3923.091493,8438.347739,2451.505594
107.788238,1554.432478,8438.347739,4060.306139
107.788548,-592.164754,7031.956449,842.705048
107.788857,-1998.556043,9400.615463,3907.087040
107.789167,4959.379811,5773.606348,1072.533697
107.789476,2664.741391,5255.462188,-1455.581446
107.789786,-2072.576638,8660.409521,4903.011187
107.790095,-2516.700203,10436.903782,5362.668486
107.790405,-4293.194464,8956.491898,-3983.696590
107.790714,-0.000000,13175.665768,-8197.221829
107.791024,2368.659014,10658.965565,-9729.412825
107.791333,-2368.659014,8734.430116,-9193.145976
107.791643,-2220.617826,11029.068536,995.924147
107.791952,-1554.432478,8882.471304,4519.963438
107.792262,-740.205942,8882.471304,0.000000
107.792571,4441.235652,9400.615463,-459.657299
107.792881,5255.462188,6217.729913,-842.705048
107.793190,2220.617826,6439.791695,-766.095498
107.793500,-2146.597232,8364.327145,7354.516781
107.793809,-2516.700203,9844.739029,5056.230287
107.794119,-1850.514855,11325.150913,-4673.182538
107.794428,1480.411884,14508.036463,-8810.098227
107.794738,2294.638420,10510.924376,-9576.193725
107.795047,-1406.391290,9844.739029,-6741.640382
107.795357,-962.267725,11843.295072,1532.190996
107.795666,-1776.494261,8290.306550,5056.230287
107.795976,-592.164754,7476.080014,3983.696590
107.796285,5107.421000,10658.965565,1991.848295
107.796595,4885.359217,5699.585753,-1532.190996
107.796904,-370.102971,6217.729913,689.485948
107.797214,-4441.235652,10510.924376,5362.668486
107.797523,148.041188,8290.306550,-3983.696590
107.797833,-2368.659014,13915.871710,-6818.249932
107.798142,2442.679609,15248.242405,-7354.516781
107.798452,1776.494261,8734.430116,-8273.831378
107.798761,-2294.638420,9030.512492,-4136.915689
107.799071,-1628.453072,8512.368333,4749.792088
107.799380,-2960.823768,5699.585753,1532.190996
107.799690,2368.659014,6513.812290,-919.314598
107.800000,4959.379811,7920.203579,-689.485948
107.800309,4293.194464,3849.070898,-2145.067394
107.800619,-1776.494261,9696.697840,2221.676944
107.800928,-1332.370696,12287.418637,4596.572988
107.801238,-2442.679609,8216.285956,-2834.553343
107.801547,370.102971,13027.624579,-7354.516781
107.801857,2960.823768,12435.459826,-9193.145976
107.802166,-592.164754,9918.759623,-9193.145976
107.802476,-2442.679609,12657.521608,-383.047749
107.802785,-1258.350101,10807.006753,3983.696590
107.803095,1702.473667,8734.430116,-2298.286494
107.803404,2072.576638,7698.141797,842.705048
107.803714,4441.235652,6365.771101,-612.876398
107.804023,1258.350101,3256.906145,-1072.533697
107.804333,-962.267725,7179.997637,4213.525239
107.804642,-2960.823768,10288.862594,4903.011187
107.804952,-3034.844362,11917.315666,-2528.115143
107.805262,3552.988522,15100.201217,-8350.440928
107.805571,2368.659014,13397.727550,-9193.145976
107.805881,-3108.864956,9918.759623,-6435.202183
107.806190,-3182.885551,10140.821405,4443.353888
107.806500,-222.061783,10807.006753,2528.115143
107.806809,-0.000000,6957.935855,-919.314598
107.807119,3034.844362,11103.089130,383.047749
107.807428,2664.741391,4663.297435,1532.190996
107.807738,-0.000000,5699.585753,-1225.752797
107.808047,592.164754,8956.491898,4136.915689
107.808357,-3849.070898,10732.986159,2528.115143
107.808666,-1480.411884,10436.903782,-3370.820191
107.808976,962.267725,14285.974681,-8656.879127
107.809285,2220.617826,11103.089130,-10495.508323
107.809595,-2072.576638,7698.141797,-5669.106685
107.809905,-1776.494261,9474.636058,2221.676944
107.810214,-2072.576638,9548.656652,689.485948
107.810524,1702.473667,9104.533087,306.438199
107.810833,4367.215058,9844.739029,3140.991542
107.811143,3775.050304,7402.059420,-1149.143247
107.811452,962.267725,5551.544565,-612.876398
107.811762,-4885.359217,8216.285956,5056.230287
107.812071,-2738.761985,9696.697840,689.485948
107.812381,-2072.576638,13175.665768,-6588.421283
107.812690,3108.864956,14804.118840,-8120.612279
107.813000,1480.411884,9178.553681,-7967.393179
107.813309,-3182.885551,9474.636058,-2987.772442
107.813619,-1036.288319,6587.832884,4749.792088
107.813928,-2220.617826,5847.626942,4673.182538
107.814238,518.144159,8364.327145,4060.306139
107.814547,6957.935855,10362.883188,-4290.134789
107.814857,2442.679609,6291.750507,-1838.629195
107.815167,-1110.308913,10140.821405,2145.067394
107.815476,-1776.494261,10955.047942,842.705048
107.815786,-2738.761985,11547.212695,-6665.030833
107.816095,-2072.576638,17024.736666,-6128.763984
107.816405,1258.350101,14582.057057,-5515.887586
107.816714,1110.308913,10436.903782,-8656.879127
107.817024,-592.164754,8068.244768,689.485948
107.817333,-1554.432478,8364.327145,7201.297681
107.817643,-296.082377,5329.482782,1838.629195
107.817952,2812.782580,6217.729913,-229.828649
107.818262,3108.864956,5551.544565,459.657299
107.818571,370.102971,8068.244768,-3140.991542
107.818881,-814.226536,10658.965565,-3140.991542
107.819190,-2220.617826,10881.027347,229.828649
107.819500,-1406.391290,11843.295072,-4596.572988
107.819809,1332.370696,14211.954086,-6665.030833
107.820119,2442.679609,11843.295072,-6205.373534
107.820429,-1036.288319,5255.462188,-5132.839837
107.820738,-2146.597232,9400.615463,2451.505594
107.821048,296.082377,8068.244768,4290.134789
107.821357,-1258.350101,6291.750507,842.705048
107.821667,2368.659014,11769.274478,-766.095498
107.821976,4219.173869,9178.553681,-2987.772442
107.822286,-1776.494261,6439.791695,-5056.230287
107.822595,-222.061783,10214.842000,2681.334243
107.822905,-3182.885551,9770.718434,1532.190996
107.823214,-0.000000,11029.068536,-4213.525239
107.823524,2664.741391,14804.118840,-4060.306139
107.823833,1628.453072,9474.636058,-4903.011187
107.824143,-444.123565,7698.141797,-4366.744339
107.824452,370.102971,9770.718434,2911.162892
107.824762,-2516.700203,8068.244768,2374.896044
107.825071,-518.144159,9326.594869,766.095498
107.825381,4219.173869,12287.418637,-229.828649
107.825691,2220.617826,8882.471304,-4749.792088
107.826000,-1406.391290,6735.874072,229.828649
107.826310,-2072.576638,8216.285956,3600.648841
107.826619,-4885.359217,8660.409521,-536.266849
107.826929,-2516.700203,11473.192101,-3753.867940
107.827238,4145.153275,14434.015869,-7048.078582
107.827548,4515.256246,7994.224174,-9882.631924
107.827857,-888.247130,8142.265362,-1455.581446
107.828167,-2146.597232,7254.018232,5669.106685
107.828476,-666.185348,5773.606348,229.828649
107.828786,1110.308913,7328.038826,6052.154434
107.829095,3404.947333,9252.574275,3370.820191
107.829405,1036.288319,6513.812290,-4366.744339
107.829714,-0.000000,11103.089130,-1378.971896
107.830024,-2590.720797,13027.624579,2987.772442
107.830333,-3997.112087,10658.965565,-5745.716235
107.830643,1110.308913,12879.583391,-7431.126331
107.830953,1924.535449,14137.933492,-6205.373534
107.831262,740.205942,10288.862594,-7124.688131
107.831572,962.267725,7402.059420,306.438199
107.831881,-888.247130,6365.771101,7967.393179
107.832191,-1702.473667,5921.647536,7124.688131
107.832500,4441.235652,7031.956449,4136.915689
107.832810,3849.070898,8290.306550,459.657299
107.833119,1924.535449,5921.647536,153.219100
107.833429,1184.329507,12361.439231,-1532.190996
107.833738,-2664.741391,10807.006753,-3677.258390
107.834048,-5181.441594,14582.057057,-5669.106685
107.834357,148.041188,17468.860231,-3983.696590
107.834667,4885.359217,10732.986159,-9193.145976
107.834976,592.164754,6365.771101,-6741.640382
107.835286,-1702.473667,6735.874072,7431.126331
107.835595,-518.144159,3775.050304,8197.221829
107.835905,-1332.370696,4071.132681,2451.505594
107.836215,3108.864956,9844.739029,1378.971896
107.836524,1702.473667,4737.318029,-1072.533697
107.836834,148.041188,3849.070898,-4673.182538
107.837143,-1924.535449,11251.130318,-1378.971896
107.837453,-4885.359217,9844.739029,2757.943793
107.837762,-4367.215058,12065.356855,-6128.763984
107.838072,3552.988522,15322.262999,-7201.297681
107.838381,2738.761985,9400.615463,-8810.098227
107.838691,-1184.329507,8438.347739,-1915.238745
107.839000,-1554.432478,8956.491898,8120.612279
107.839310,296.082377,6809.894666,4290.134789
107.839619,1332.370696,7698.141797,2681.334243
107.839929,1850.514855,9252.574275,2528.115143
107.840238,4219.173869,8660.409521,-3217.601092
107.840548,-1110.308913,8438.347739,-3140.991542
107.840857,-2738.761985,12805.562797,2298.286494
107.841167,-3775.050304,10214.842000,-3217.601092
107.841477,-1110.308913,11547.212695,-7431.126331
107.841786,888.247130,14656.077652,-3600.648841
107.842096,1554.432478,9326.594869,-6205.373534
107.842405,-0.000000,8068.244768,-1838.629195
107.842715,-888.247130,10140.821405,6665.030833
107.843024,-148.041188,5625.565159,5132.839837
107.843334,2072.576638,5255.462188,3294.210641
107.843643,3404.947333,11473.192101,1302.362347
107.843953,444.123565,4441.235652,-1608.800546
107.844262,-1554.432478,8734.430116,-459.657299
107.844572,-3627.009116,9844.739029,-2298.286494
107.844881,-4959.379811,9992.780217,-8503.660028
107.845191,-1036.288319,13545.768739,-8810.098227
107.845500,1480.411884,14063.912898,-7354.516781
107.845810,2294.638420,7624.121203,-9422.974625
107.846119,740.205942,2368.659014,1225.752797
107.846429,296.082377,8956.491898,9422.974625
107.846739,-1036.288319,2368.659014,5515.887586
107.847048,5107.421000,5477.523971,3524.039291
107.847358,2072.576638,10066.800811,-919.314598
107.847667,1110.308913,6217.729913,-2681.334243
107.847977,-1258.350101,13397.727550,-3064.381992
107.848286,-3478.967927,15026.180623,-4596.572988
107.848596,-3552.988522,14508.036463,-8963.317327
107.848905,-518.144159,16062.468941,-2834.553343
107.849215,1702.473667,12583.501014,-9116.536426
107.849524,-222.061783,6587.832884,-5056.230287
107.849834,-444.123565,7402.059420,6818.249932
107.850143,740.205942,6217.729913,9269.755526
107.850453,2294.638420,962.267725,5975.544884
107.850762,4145.153275,6365.771101,6741.640382
107.851072,1702.473667,7846.182985,3447.429741
107.851382,370.102971,7179.997637,-2911.162892
107.851691,-1702.473667,13471.748144,0.000000
107.852001,-5995.668130,13323.706956,-6128.763984
107.852310,-2738.761985,14952.160028,-10725.336972
107.852620,962.267725,16580.613101,-9959.241474
107.852929,592.164754,10955.047942,-4903.011187
107.853239,-1036.288319,6957.935855,0.000000
107.853548,444.123565,8586.388927,6894.859482
107.853858,2368.659014,4145.153275,4443.353888
107.854167,-148.041188,2368.659014,4136.915689
107.854477,3404.947333,7105.977043,1225.752797
107.854786,1628.453072,7105.977043,-2298.286494
107.855096,-2072.576638,7920.203579,-1225.752797
107.855405,-1110.308913,13915.871710,-919.314598
107.855715,-2960.823768,13249.686362,-9652.803275
107.856024,-2146.597232,13545.768739,-6818.249932
107.856334,740.205942,12731.542202,-3447.429741
107.856644,-148.041188,8956.491898,-6665.030833
107.856953,-74.020594,7994.224174,-2604.724693
107.857263,1998.556043,10807.006753,6588.421283
107.857572,-74.020594,4737.318029,4979.620737
107.857882,2072.576638,7994.224174,2987.772442
107.858191,4293.194464,9474.636058,2757.943793
107.858501,2368.659014,4293.194464,-995.924147
107.858810,-2886.803174,10955.047942,1532.190996
107.859120,-1554.432478,11547.212695,1302.362347
107.859429,-1850.514855,10732.986159,-7660.954980
107.859739,-2368.659014,16210.510130,-8427.050478
107.860048,-666.185348,12287.418637,-5439.278036
107.860358,-370.102971,6513.812290,-4979.620737
107.860667,-518.144159,11251.130318,-1532.190996
107.860977,1406.391290,10140.821405,3217.601092
107.861286,444.123565,5551.544565,2298.286494
107.861596,3997.112087,8290.306550,6128.763984
107.861906,3478.967927,7328.038826,6741.640382
107.862215,222.061783,6291.750507,1762.019645
107.862525,-2220.617826,9622.677246,2681.334243
107.862834,-3775.050304,11769.274478,306.438199
107.863144,-6513.812290,10584.944971,-8120.612279
107.863453,592.164754,14137.933492,-13176.842566
107.863763,-888.247130,13027.624579,-10035.851024
107.864072,-4367.215058,9326.594869,-6052.154434
107.864382,-518.144159,10066.800811,-842.705048
107.864691,3849.070898,4219.173869,1532.190996
107.865001,222.061783,5033.400406,4443.353888
107.865310,2960.823768,5551.544565,8810.098227
107.865620,5107.421000,6661.853478,4060.306139
107.865929,1406.391290,3404.947333,153.219100
107.866239,-3034.844362,8882.471304,5056.230287
107.866548,-5181.441594,10955.047942,-153.219100
107.866858,-2072.576638,14804.118840,-13100.233016
107.867168,1702.473667,15988.448347,-14019.547613
107.867477,-3182.885551,12805.562797,-12870.404366
107.867787,-3775.050304,11843.295072,-6052.154434
107.868096,2812.782580,10362.883188,612.876398
107.868406,592.164754,5921.647536,3447.429741
107.868715,888.247130,4589.276840,9193.145976
107.869025,5403.503377,7031.956449,10495.508323
107.869334,4885.359217,2294.638420,995.924147
107.869644,-370.102971,4515.256246,2298.286494
107.869953,-1998.556043,11621.233289,5515.887586
107.870263,-2146.597232,16802.674883,-9499.584175
107.870572,-1480.411884,16210.510130,-14325.985813
107.870882,1184.329507,15914.427753,-9346.365076
107.871191,-3330.926739,12731.542202,-10112.460574
107.871501,-1036.288319,9252.574275,-6894.859482
107.871810,1776.494261,8216.285956,5822.325785
107.872120,-148.041188,6365.771101,5898.935335
107.872430,740.205942,4885.359217,4903.011187
107.872739,6217.729913,5699.585753,6358.592633
107.873049,2442.679609,592.164754,2145.067394
107.873358,1110.308913,5329.482782,-1149.143247
107.873668,-4219.173869,11695.253884,4903.011187
107.873977,-4145.153275,11769.274478,-4060.306139
107.874287,-518.144159,14434.015869,-12410.747068
107.874596,1776.494261,13989.892304,-11721.261119
107.874906,-1702.473667,7920.203579,-8350.440928
107.875215,-2072.576638,7994.224174,229.828649
107.875525,-888.247130,12953.603985,5132.839837
107.875834,-296.082377,6809.894666,2834.553343
107.876144,5477.523971,7328.038826,4290.134789
107.876453,4367.215058,7105.977043,2911.162892
107.876763,-740.205942,3256.906145,229.828649
107.877072,-888.247130,9548.656652,3217.601092
107.877382,-5699.585753,10881.027347,-2451.505594
107.877692,-370.102971,14952.160028,-6818.249932
107.878001,-0.000000,14508.036463,-7890.783629
107.878311,1258.350101,14137.933492,-8273.831378
107.878620,-444.123565,9474.636058,-7660.954980
107.878930,-1480.411884,11399.171507,-766.095498
107.879239,-1110.308913,8956.491898,4519.963438
107.879549,-740.205942,5403.503377,1915.238745
107.879858,4219.173869,10881.027347,2451.505594
107.880168,4293.194464,6217.729913,995.924147
107.880477,1998.556043,5847.626942,-612.876398
107.880787,-1258.350101,9696.697840,2987.772442
107.881096,-6069.688724,11251.130318,995.924147
107.881406,-666.185348,12213.398043,-6894.859482
107.881715,1924.535449,13027.624579,-9729.412825
107.882025,-370.102971,10732.986159,-8886.707777
107.882334,-4959.379811,7254.018232,-2757.943793
107.882644,-740.205942,7179.997637,536.266849
107.882954,-1036.288319,5551.544565,306.438199
107.883263,-370.102971,7402.059420,3447.429741
107.883573,6513.812290,9252.574275,766.095498
107.883882,2442.679609,5033.400406,-995.924147
107.884192,-518.144159,7031.956449,4596.572988
107.884501,740.205942,8660.409521,9806.022374
107.884811,-1850.514855,11843.295072,-2681.334243
107.885120,-0.000000,13693.809927,-6511.811733
107.885430,-740.205942,14508.036463,-6971.469032
107.885739,-1036.288319,9474.636058,-9729.412825
107.886049,-5107.421000,11621.233289,-2911.162892
107.886358,-148.041188,11399.171507,1225.752797
107.886668,-1184.329507,7105.977043,612.876398
107.886977,814.226536,10584.944971,2068.457845
107.887287,3923.091493,9178.553681,2451.505594
107.887596,3849.070898,3034.844362,612.876398
107.887906,1776.494261,5625.565159,3217.601092
107.888216,-1998.556043,10214.842000,4519.963438
107.888525,-3182.885551,10288.862594,-995.924147
107.888835,1406.391290,12065.356855,-4749.792088
107.889144,1776.494261,15248.242405,-9193.145976
107.889454,-3330.926739,7624.121203,-6894.859482
107.889763,-2516.700203,8438.347739,-1225.752797
107.890073,-592.164754,10510.924376,-1915.238745
107.890382,-2220.617826,8586.388927,-1072.533697
107.890692,2812.782580,10214.842000,1838.629195
107.891001,4811.338623,7994.224174,-2374.896044
107.891311,518.144159,4071.132681,0.000000
107.891620,-888.247130,6439.791695,7967.393179
107.891930,-3404.947333,7179.997637,2451.505594
107.892239,222.061783,7105.977043,-3524.039291
107.892549,1184.329507,10584.944971,-3370.820191
107.892859,-814.226536,10658.965565,-8503.660028
107.893168,-814.226536,6661.853478,-2145.067394
107.893478,-1702.473667,11177.109724,689.485948
107.893787,-518.144159,11325.150913,-2068.457845
107.894097,-592.164754,11769.274478,-1991.848295
107.894406,5625.565159,10658.965565,2911.162892
107.894716,148.041188,7179.997637,-229.828649
107.895025,-296.082377,5921.647536,1378.971896
107.895335,-0.000000,6661.853478,6358.592633
107.895644,148.041188,9770.718434,1532.190996
107.895954,-4441.235652,13545.768739,-5745.716235
107.896263,-222.061783,13175.665768,-3217.601092
107.896573,-296.082377,12139.377449,-6741.640382
107.896882,-1332.370696,10140.821405,-6741.640382
107.897192,-0.000000,11991.336260,-689.485948
107.897501,222.061783,8142.265362,766.095498
107.897811,-518.144159,9178.553681,-689.485948
107.898121,5699.585753,10436.903782,995.924147
107.898430,222.061783,3701.029710,76.609550
107.898740,-1258.350101,3923.091493,6128.763984
107.899049,222.061783,8956.491898,7048.078582
107.899359,-1850.514855,9548.656652,-2987.772442
107.899668,2146.597232,11621.233289,-5898.935335
107.899978,-370.102971,13841.851115,-6281.983084
107.900287,-444.123565,10732.986159,-12793.794817
107.900597,-1258.350101,7105.977043,-5056.230287
107.900906,-444.123565,9992.780217,459.657299
107.901216,-1406.391290,8882.471304,-766.095498
107.901526,1258.350101,9992.780217,3294.210641
107.901835,5625.565159,7179.997637,4826.401637
107.902145,-2146.597232,4293.194464,-153.219100
107.902454,-0.000000,6217.729913,3217.601092
107.902764,1924.535449,7772.162391,1455.581446
107.903073,-2886.803174,12287.418637,-5898.935335
107.903383,2368.659014,16210.510130,-5439.278036
107.903692,-666.185348,15766.386565,-5362.668486
107.904002,-2072.576638,9696.697840,-6511.811733
107.904312,-666.185348,9548.656652,1991.848295
107.904621,518.144159,9548.656652,0.000000
107.904931,-2664.741391,5477.523971,-1762.019645
107.905240,3256.906145,9178.553681,4443.353888
107.905550,1702.473667,8586.388927,306.438199
107.905859,-1406.391290,5773.606348,-2987.772442
107.906169,814.226536,10140.821405,2221.676944
107.906478,-2812.782580,9252.574275,-1838.629195
107.906788,222.061783,11621.233289,-7048.078582
107.907097,2590.720797,15840.407159,-3600.648841
107.907407,2220.617826,10807.006753,-6818.249932
107.907717,-1850.514855,6661.853478,-2451.505594
107.908026,-296.082377,8660.409521,4826.401637
107.908336,666.185348,5403.503377,1915.238745
107.908645,-148.041188,6883.915261,-1455.581446
107.908955,3478.967927,11695.253884,1685.410096
107.909264,-2072.576638,10658.965565,-2068.457845
107.909574,-2590.720797,8142.265362,-5362.668486
107.909883,1258.350101,10658.965565,-2987.772442
107.910193,-1776.494261,10732.986159,-8197.221829
107.910502,-1554.432478,11251.130318,-2451.505594
107.910812,2072.576638,13397.727550,-2834.553343
107.911122,1258.350101,8290.306550,-4826.401637
107.911431,-1924.535449,6291.750507,919.314598
107.911741,370.102971,8068.244768,3830.477490
107.912050,-74.020594,4441.235652,-306.438199
107.912360,296.082377,9252.574275,76.609550
107.912669,2812.782580,10140.821405,995.924147
107.912979,962.267725,6883.915261,-3064.381992
107.913288,-370.102971,8882.471304,-689.485948
107.913598,-2590.720797,11103.089130,2528.115143
107.913908,-2146.597232,9844.739029,-3064.381992
107.914217,-74.020594,12879.583391,-3830.477490
107.914527,962.267725,13101.645173,-3064.381992
107.914836,-2294.638420,11547.212695,-6205.373534
107.915146,-2442.679609,7772.162391,1149.143247
107.915455,444.123565,10066.800811,2604.724693
107.915765,-1480.411884,10288.862594,-2604.724693
107.916074,4293.194464,7698.141797,-2757.943793
107.916384,2738.761985,8734.430116,1838.629195
107.916693,-0.000000,7402.059420,-1302.362347
107.917003,-592.164754,7179.997637,1915.238745
107.917313,888.247130,7105.977043,5132.839837
107.917622,-3256.906145,7772.162391,-3370.820191
107.917932,-592.164754,11621.233289,-3524.039291
107.918241,2812.782580,11325.150913,-7354.516781
107.918551,-74.020594,7031.956449,-8273.831378
107.918860,-666.185348,11177.109724,0.000000
107.919170,-1036.288319,10807.006753,3064.381992
107.919479,-814.226536,7105.977043,-2374.896044
107.919789,3552.988522,11325.150913,306.438199
107.920098,2738.761985,10658.965565,1762.019645
107.920408,-1776.494261,6365.771101,-1991.848295
107.920718,222.061783,9326.594869,995.924147
107.921027,-1702.473667,9548.656652,-383.047749
107.921337,-3997.112087,7772.162391,-3140.991542
107.921646,3923.091493,11843.295072,-1991.848295
107.921956,1110.308913,11103.089130,-7354.516781
107.922265,-592.164754,6735.874072,-4366.744339
107.922575,-666.185348,8438.347739,4519.963438
107.922884,-1924.535449,10362.883188,919.314598
107.923194,1184.329507,9696.697840,383.047749
107.923504,6735.874072,13175.665768,1455.581446
107.923813,1924.535449,9622.677246,-2298.286494
107.924123,-0.000000,10510.924376,-995.924147
107.924432,-888.247130,8882.471304,5898.935335
107.924742,-2886.803174,9326.594869,-2987.772442
107.925051,-2516.700203,9548.656652,-5286.058936
107.925361,1332.370696,12805.562797,-5669.106685
107.925670,1036.288319,10658.965565,-9422.974625
107.925980,1554.432478,9104.533087,-3294.210641
107.926289,-888.247130,7772.162391,5592.497135
107.926599,-2516.700203,7254.018232,3830.477490
107.926909,2516.700203,5921.647536,1302.362347
107.927218,3701.029710,8290.306550,1072.533697
107.927528,1406.391290,6513.812290,-2298.286494
107.927837,888.247130,5699.585753,-1608.800546
107.928147,-2146.597232,9178.553681,1915.238745
107.928456,-5995.668130,11029.068536,-1762.019645
107.928766,-666.185348,16062.468941,-6435.202183
107.929075,5329.482782,15766.386565,-10725.336972
107.929385,-0.000000,12287.418637,-8120.612279
107.929694,-1406.391290,8586.388927,2604.724693
107.930004,-1776.494261,8808.450710,6205.373534
107.930314,-666.185348,7476.080014,-1685.410096
107.930623,5773.606348,6365.771101,919.314598
107.930933,4293.194464,8586.388927,-459.657299
107.931242,-296.082377,5477.523971,-612.876398
107.931552,-1110.308913,7698.141797,6052.154434
107.931861,-962.267725,9770.718434,1991.848295
107.932171,-4441.235652,12953.603985,-7354.516781
107.932480,666.185348,15026.180623,-5592.497135
107.932790,2146.597232,13101.645173,-7967.393179
107.933100,-962.267725,10436.903782,-7354.516781
107.933409,296.082377,10510.924376,2374.896044
107.933719,-2294.638420,10732.986159,4979.620737
107.934028,296.082377,6143.709319,3294.210641
107.934338,4737.318029,8290.306550,3907.087040
107.934647,2368.659014,7031.956449,-306.438199
107.934957,-1184.329507,6439.791695,-2451.505594
107.935266,-740.205942,5403.503377,3447.429741
107.935576,-6365.771101,10732.986159,-459.657299
107.935885,-1998.556043,12509.480420,-11261.603821
107.936195,2516.700203,13397.727550,-9576.193725
107.936505,3701.029710,11325.150913,-8503.660028
107.936814,-2664.741391,7254.018232,-1762.019645
107.937124,-1480.411884,6217.729913,7048.078582
107.937433,1702.473667,7994.224174,4596.572988
107.937743,1998.556043,3923.091493,1838.629195
107.938052,4515.256246,7624.121203,1532.190996
107.938362,2294.638420,8882.471304,-919.314598
107.938671,-1628.453072,9770.718434,-1455.581446
107.938981,-1184.329507,11325.150913,1302.362347
107.939290,-4663.297435,14582.057057,-5286.058936
107.939600,-2368.659014,14952.160028,-10725.336972
107.939910,3997.112087,13027.624579,-7354.516781
107.940219,-4145.153275,10584.944971,-5209.449386
107.940529,-1924.535449,7846.182985,-842.705048
107.940838,1998.556043,6291.750507,6358.592633
107.941148,888.247130,6587.832884,5132.839837
107.941457,888.247130,5921.647536,5056.230287
107.941767,4663.297435,7254.018232,1991.848295
107.942076,2368.659014,7328.038826,-1991.848295
107.942386,-1924.535449,10362.883188,-2911.162892
107.942696,-2590.720797,10584.944971,-766.095498
107.943005,-4441.235652,12065.356855,-4826.401637
107.943315,-740.205942,15766.386565,-10801.946522
107.943624,2664.741391,13619.789333,-9576.193725
107.943934,-1554.432478,7031.956449,-5209.449386
107.944243,-3701.029710,7846.182985,4213.525239
107.944553,-0.000000,8438.347739,9806.022374
107.944862,3627.009116,4959.379811,766.095498
107.945172,2664.741391,5773.606348,3600.648841
107.945481,1554.432478,6587.832884,4136.915689
107.945791,-2590.720797,4811.338623,-1915.238745
107.946101,666.185348,11103.089130,-2757.943793
107.946410,-1628.453072,10140.821405,-1991.848295
107.946720,-4441.235652,11325.150913,-5898.935335
107.947029,1184.329507,13841.851115,-6741.640382
107.947339,4441.235652,12139.377449,-11414.822920
107.947648,-2812.782580,8142.265362,-4596.572988
107.947958,-1110.308913,10584.944971,5439.278036
107.948267,2072.576638,8512.368333,3370.820191
107.948577,370.102971,6661.853478,0.000000
107.948886,5329.482782,10436.903782,4443.353888
107.949196,2960.823768,7772.162391,-766.095498
107.949506,148.041188,6587.832884,-2451.505594
107.949815,-1628.453072,9918.759623,4979.620737
107.950125,-2960.823768,10436.903782,153.219100
107.950434,-444.123565,12435.459826,-7814.174080
107.950744,-0.000000,11325.150913,-5898.935335
107.951053,-518.144159,11251.130318,-4366.744339
107.951363,-3404.947333,7846.182985,-4366.744339
107.951672,1776.494261,8512.368333,-1762.019645
107.951982,-74.020594,9770.718434,306.438199
107.952292,-74.020594,8660.409521,-995.924147
107.952601,4589.276840,8216.285956,2911.162892
107.952911,2960.823768,8586.388927,2374.896044
107.953220,1924.535449,5255.462188,1378.971896
107.953530,-0.000000,7179.997637,5362.668486
107.953839,-5625.565159,8216.285956,383.047749
107.954149,-3775.050304,9104.533087,-5132.839837
107.954458,2664.741391,14285.974681,-10725.336972
107.954768,-2516.700203,11399.171507,-13100.233016
107.955077,-5033.400406,11399.171507,-6358.592633
107.955387,1480.411884,10510.924376,0.000000
107.955697,740.205942,9548.656652,-995.924147
107.956006,2294.638420,7624.121203,4290.134789
107.956316,4071.132681,8068.244768,7354.516781
107.956625,4589.276840,5181.441594,1532.190996
107.956935,740.205942,5551.544565,2451.505594
107.957244,-592.164754,6809.894666,4749.792088
107.957554,-3108.864956,10214.842000,-3753.867940
107.957863,-888.247130,15396.283594,-9499.584175
107.958173,1184.329507,14804.118840,-9116.536426
107.958482,-5255.462188,12287.418637,-9806.022374
107.958792,962.267725,12731.542202,-3370.820191
107.959102,888.247130,7624.121203,766.095498
107.959411,-296.082377,6143.709319,2221.676944
107.959721,1924.535449,6957.935855,7660.954980
107.960030,4219.173869,6661.853478,5439.278036
107.960340,2072.576638,5625.565159,612.876398
107.960649,2442.679609,6883.915261,2911.162892
107.960959,-2368.659014,9622.677246,842.705048
107.961268,-4219.173869,14656.077652,-6818.249932
107.961578,740.205942,14508.036463,-12104.308868
107.961888,518.144159,11473.192101,-10572.117872
107.962197,-2368.659014,10362.883188,-6741.640382
107.962507,-1480.411884,9844.739029,1608.800546
107.962816,740.205942,7476.080014,2528.115143
107.963126,-592.164754,3775.050304,3370.820191
107.963435,1998.556043,6217.729913,7124.688131
107.963745,3478.967927,7105.977043,229.828649
107.964054,444.123565,4589.276840,-4826.401637
107.964364,-296.082377,6439.791695,1991.848295
107.964673,-3552.988522,12435.459826,-919.314598
107.964983,-4145.153275,13027.624579,-7201.297681
107.965293,3997.112087,16210.510130,-7354.516781
107.965602,444.123565,11695.253884,-7584.345430
107.965912,-2516.700203,9770.718434,-3370.820191
107.966221,1184.329507,7254.018232,2911.162892
107.966531,-1036.288319,7105.977043,3370.820191
107.966840,-1480.411884,7105.977043,3064.381992
107.967150,6291.750507,6439.791695,2528.115143
107.967459,5033.400406,7476.080014,-4366.744339
107.967769,-2146.597232,6809.894666,1225.752797
107.968078,-2812.782580,8068.244768,7814.174080
107.968388,-2072.576638,9622.677246,-1072.533697
107.968698,-296.082377,15248.242405,-9039.926876
107.969007,1850.514855,15988.448347,-6281.983084
107.969317,-3108.864956,12065.356855,-7431.126331
107.969626,-1110.308913,10214.842000,-6435.202183
107.969936,1480.411884,9400.615463,689.485948
107.970245,-1850.514855,9400.615463,2681.334243
107.970555,-0.000000,8660.409521,3600.648841
107.970864,5921.647536,6513.812290,2911.162892
107.971174,1776.494261,4219.173869,1915.238745
107.971484,888.247130,6217.729913,4443.353888
107.971793,-1480.411884,8808.450710,5515.887586
107.972103,-3701.029710,10658.965565,-2757.943793
107.972412,-592.164754,13767.830521,-8273.831378
107.972722,1480.411884,14137.933492,-9422.974625
107.973031,-518.144159,9030.512492,-12257.527968
107.973341,-2590.720797,8882.471304,-3983.696590
107.973650,-1036.288319,8364.327145,3370.820191
107.973960,-2664.741391,7698.141797,3524.039291
107.974269,3256.906145,7772.162391,3600.648841
107.974579,6365.771101,10214.842000,919.314598
107.974889,222.061783,7105.977043,-689.485948
107.975198,962.267725,5699.585753,2834.553343
107.975508,-3478.967927,11695.253884,1838.629195
107.975817,-962.267725,12953.603985,-4519.963438
107.976127,-1036.288319,14137.933492,-8503.660028
107.976436,1554.432478,12361.439231,-8273.831378
107.976746,-1628.453072,6439.791695,-6511.811733
107.977055,-1554.432478,7402.059420,995.924147
107.977365,-888.247130,7476.080014,5286.058936
107.977674,-1776.494261,7105.977043,1149.143247
107.977984,3775.050304,9252.574275,3140.991542
107.978294,5403.503377,8290.306550,1072.533697
107.978603,1110.308913,7254.018232,-1532.190996
107.978913,-3478.967927,10658.965565,5362.668486
107.979222,-2368.659014,12361.439231,459.657299
107.979532,-666.185348,10288.862594,-7967.393179
107.979841,2146.597232,12805.562797,-8810.098227
107.980151,-1776.494261,11177.109724,-6052.154434
107.980460,-4219.173869,7179.997637,-5056.230287
107.980770,-1480.411884,10584.944971,1302.362347
107.981080,-296.082377,9696.697840,1149.143247
107.981389,-0.000000,6661.853478,-689.485948
107.981699,5255.462188,12361.439231,2298.286494
107.982008,3182.885551,7105.977043,-1532.190996
107.982318,1184.329507,3108.864956,0.000000
107.982627,-1924.535449,5329.482782,5592.497135
107.982937,-1554.432478,8882.471304,1455.581446
107.983246,-2146.597232,9918.759623,-3370.820191
107.983556,3923.091493,13471.748144,-5515.887586
107.983865,-2294.638420,10288.862594,-8120.612279
107.984175,-3182.885551,8808.450710,-4749.792088
107.984485,-1480.411884,11177.109724,-306.438199
107.984794,-1480.411884,10362.883188,-3830.477490
107.985104,-74.020594,10807.006753,-919.314598
107.985413,6439.791695,10140.821405,2681.334243
107.985723,2664.741391,5773.606348,-383.047749
107.986032,370.102971,4737.318029,3064.381992
107.986342,-2516.700203,8216.285956,7354.516781
107.986651,-1554.432478,8956.491898,-1149.143247
107.986961,3182.885551,10955.047942,-6588.421283
107.987270,1110.308913,12583.501014,-6971.469032
107.987580,-5033.400406,10288.862594,-6128.763984
107.987890,-2442.679609,9770.718434,-2221.676944
107.988199,1924.535449,12583.501014,-766.095498
107.988509,-444.123565,7328.038826,-1302.362347
107.988818,1924.535449,9178.553681,4673.182538
107.989128,2886.803174,10288.862594,1225.752797
107.989437,2072.576638,6069.688724,-2298.286494
107.989747,-0.000000,5107.421000,4366.744339
107.990056,-1110.308913,8586.388927,6052.154434
107.990366,-3849.070898,13471.748144,-3294.210641
107.990676,1184.329507,11843.295072,-5898.935335
107.990985,2442.679609,11843.295072,-7814.174080
107.991295,-2442.679609,9548.656652,-8503.660028
107.991604,-3849.070898,10510.924376,-2298.286494
107.991914,-1776.494261,8364.327145,1455.581446
107.992223,-888.247130,5625.565159,306.438199
107.992533,5995.668130,8734.430116,3907.087040
107.992842,3849.070898,6735.874072,2834.553343
107.993152,-1924.535449,7698.141797,1762.019645
107.993461,-0.000000,5773.606348,4903.011187
107.993771,888.247130,9992.780217,-1532.190996
107.994081,-2516.700203,12953.603985,-7584.345430
107.994390,1184.329507,15988.448347,-4290.134789
107.994700,-296.082377,15248.242405,-7737.564530
107.995009,-1776.494261,11325.150913,-7507.735880
107.995319,2072.576638,11917.315666,459.657299
107.995628,-1776.494261,9252.574275,2681.334243
107.995938,-3478.967927,7105.977043,5822.325785
107.996247,3552.988522,7550.100608,4903.011187
107.996557,3404.947333,5033.400406,0.000000
107.996866,-2072.576638,4663.297435,-383.047749
107.997176,-740.205942,10214.842000,2528.115143
107.997486,-1850.514855,12287.418637,-2451.505594
107.997795,666.185348,12361.439231,-8810.098227
107.998105,1554.432478,14582.057057,-6665.030833
107.998414,-888.247130,12805.562797,-5592.497135
107.998724,-2146.597232,7031.956449,-766.095498
107.999033,-666.185348,8882.471304,3600.648841
107.999343,-0.000000,7624.121203,3217.601092
107.999652,-666.185348,5181.441594,2145.067394
107.999962,3552.988522,6809.894666,1915.238745
108.000271,-1480.411884,10807.006753,-2221.676944
108.000581,-1776.494261,8438.347739,-1915.238745
108.000890,-518.144159,11177.109724,-3064.381992
108.001200,-1332.370696,12879.583391,-7431.126331
108.001510,-592.164754,13027.624579,-6128.763984
108.001819,-592.164754,12879.583391,-4673.182538
108.002129,370.102971,7994.224174,-3983.696590
108.002438,1258.350101,5921.647536,3983.696590
108.002748,1480.411884,7105.977043,5592.497135
108.003057,-1924.535449,6809.894666,-2145.067394
108.003367,2442.679609,8068.244768,1838.629195
108.003676,2812.782580,7846.182985,76.609550
108.003986,-1480.411884,9696.697840,-5439.278036
108.004295,-296.082377,8364.327145,-1838.629195
108.004605,-1110.308913,11251.130318,383.047749
108.004914,-3552.988522,13101.645173,-5286.058936
108.005224,-962.267725,13841.851115,-4749.792088
108.005533,1110.308913,11991.336260,-3370.820191
108.005843,-3478.967927,8438.347739,-4826.401637
108.006152,666.185348,9252.574275,76.609550
108.006462,1702.473667,8512.368333,3447.429741
108.006771,-3034.844362,9474.636058,1532.190996
108.007081,5403.503377,9696.697840,1608.800546
108.007390,2146.597232,7328.038826,4903.011187
108.007700,-0.000000,7698.141797,-1378.971896
108.008009,-1184.329507,7624.121203,1149.143247
108.008319,-2220.617826,8512.368333,0.000000
108.008628,-3034.844362,7624.121203,-2528.115143
108.008938,222.061783,12731.542202,-5898.935335
108.009248,296.082377,11769.274478,-7967.393179
108.009557,-1850.514855,8660.409521,-4443.353888
108.009867,-518.144159,5995.668130,4596.572988
108.010176,-0.000000,7476.080014,2145.067394
108.010486,-814.226536,8438.347739,-536.266849
108.010795,3849.070898,12953.603985,1532.190996
108.011105,1850.514855,7772.162391,-459.657299
108.011414,888.247130,7476.080014,-1378.971896
108.011724,666.185348,10955.047942,2145.067394
108.012033,-3478.967927,11029.068536,153.219100
108.012343,-3552.988522,12805.562797,-4903.011187
108.012652,2886.803174,11325.150913,-5975.544884
108.012962,1702.473667,9400.615463,-5975.544884
108.013271,-3182.885551,8216.285956,-2681.334243
