#time,accel_x,accel_y,accel_z
80.943501,-0.000000,9622.677246,-2145.067394
80.943811,148.041188,9770.718434,-2374.896044
80.944120,296.082377,9252.574275,-536.266849
80.944430,740.205942,8290.306550,-1072.533697
80.944740,-222.061783,9252.574275,-459.657299
80.945050,592.164754,9030.512492,-1838.629195
80.945359,-222.061783,9252.574275,-2604.724693
80.945669,370.102971,9474.636058,-612.876398
80.945979,148.041188,10362.883188,0.000000
80.946289,-518.144159,10066.800811,229.828649
80.946599,666.185348,9474.636058,-1149.143247
80.946908,-0.000000,8956.491898,-2145.067394
80.947218,-222.061783,10066.800811,-2374.896044
80.947528,-222.061783,8734.430116,-1225.752797
80.947838,-0.000000,10436.903782,0.000000
80.948148,-296.082377,9844.739029,-919.314598
80.948457,1036.288319,8512.368333,-2451.505594
80.948767,296.082377,8808.450710,-3447.429741
80.949077,-740.205942,9696.697840,-306.438199
80.949387,-148.041188,10288.862594,459.657299
80.949696,-0.000000,9474.636058,-536.266849
80.950006,3330.926739,9622.677246,-2987.772442
80.950316,-296.082377,7402.059420,-1915.238745
80.950626,-0.000000,8290.306550,-1762.019645
80.950936,-0.000000,9548.656652,-153.219100
80.951245,814.226536,8882.471304,383.047749
80.951555,962.267725,9326.594869,1685.410096
80.951865,2368.659014,5551.544565,383.047749
80.952175,4811.338623,6365.771101,1532.190996
80.952485,1850.514855,5995.668130,9422.974625
80.952794,-370.102971,6217.729913,9806.022374
80.953104,222.061783,5107.421000,10878.556072
80.953414,7772.162391,8660.409521,5975.544884
80.953724,2886.803174,6069.688724,3064.381992
80.954033,-1332.370696,9400.615463,9652.803275
80.954343,-2368.659014,11917.315666,13023.623466
80.954653,2368.659014,10807.006753,7124.688131
80.954963,740.205942,11769.274478,7354.516781
80.955273,-2590.720797,12361.439231,12793.794817
80.955582,-2220.617826,11547.212695,9882.631924
80.955892,-13027.624579,11991.336260,7201.297681
80.956202,15766.386565,17542.880825,-2145.067394
80.956512,-2072.576638,5477.523971,7201.297681
80.956822,-10955.047942,13397.727550,24515.055936
80.957131,-2812.782580,17912.983796,13100.233016
80.957441,-3552.988522,7476.080014,-4290.134789
80.957751,4663.297435,13323.706956,-2528.115143
80.958061,-14285.974681,3701.029710,13942.938064
80.958370,1110.308913,14656.077652,6281.983084
80.958680,1184.329507,6217.729913,4596.572988
80.958990,-4145.153275,5921.647536,12487.356617
80.959300,4885.359217,2960.823768,17160.539155
80.959610,-3182.885551,-1850.514855,11874.480219
80.959919,1776.494261,5181.441594,11951.089769
80.960229,-7994.224174,4811.338623,16394.443657
80.960539,3701.029710,8956.491898,-1302.362347
80.960849,888.247130,8068.244768,-3370.820191
80.961159,2146.597232,14211.954086,3600.648841
80.961468,5329.482782,8586.388927,6358.592633
80.961778,-296.082377,9622.677246,14402.595362
80.962088,-518.144159,8216.285956,26583.513781
80.962398,1258.350101,4885.359217,21450.673944
80.962707,4367.215058,7328.038826,4443.353888
80.963017,-1406.391290,9548.656652,2221.676944
80.963327,-1406.391290,15914.427753,2451.505594
80.963637,4441.235652,17987.004391,-6435.202183
80.963947,2664.741391,18801.230927,-3524.039291
80.964256,-7105.977043,17246.798449,10648.727422
80.964566,-8142.265362,12435.459826,13176.842566
80.964876,2960.823768,12139.377449,-766.095498
80.965186,3182.885551,9252.574275,-7201.297681
80.965496,3923.091493,8956.491898,-1762.019645
80.965805,74.020594,8290.306550,5209.449386
80.966115,-740.205942,7105.977043,11797.870669
80.966425,-444.123565,7254.018232,9882.631924
80.966735,3330.926739,4737.318029,-1072.533697
80.967045,-518.144159,1924.535449,-7431.126331
80.967354,-4071.132681,2812.782580,-3294.210641
80.967664,-1850.514855,6439.791695,-2221.676944
80.967974,444.123565,10288.862594,-7507.735880
80.968284,4145.153275,10436.903782,-6358.592633
80.968593,1850.514855,8512.368333,-4366.744339
80.968903,-1702.473667,7105.977043,3907.087040
80.969213,-3627.009116,10510.924376,12180.918418
80.969523,-296.082377,9770.718434,6588.421283
80.969833,7328.038826,12731.542202,-9882.631924
80.970142,518.144159,7698.141797,-7660.954980
80.970452,-0.000000,9770.718434,-4673.182538
80.970762,-4885.359217,11621.233289,-4290.134789
80.971072,-2812.782580,14211.954086,689.485948
80.971382,11325.150913,12731.542202,-4519.963438
80.971691,4959.379811,7328.038826,-7354.516781
80.972001,-666.185348,1110.308913,6128.763984
80.972311,-4071.132681,222.061783,15475.129060
80.972621,6291.750507,1702.473667,3524.039291
80.972930,962.267725,1924.535449,-1991.848295
80.973240,5181.441594,7031.956449,1685.410096
80.973550,1924.535449,5699.585753,536.266849
80.973860,-2738.761985,13915.871710,1302.362347
80.974170,-1406.391290,13915.871710,5132.839837
80.974479,2368.659014,11843.295072,-3140.991542
80.974789,6439.791695,11917.315666,-7890.783629
80.975099,-3108.864956,11251.130318,1072.533697
80.975409,-10214.842000,12731.542202,10189.070123
80.975719,666.185348,14804.118840,3753.867940
80.976028,5699.585753,17024.736666,-10878.556072
80.976338,-888.247130,16728.654289,-9652.803275
80.976648,-11251.130318,15914.427753,4136.915689
80.976958,-3108.864956,18431.127956,-1225.752797
80.977267,8956.491898,13841.851115,-17543.586904
80.977577,3849.070898,12287.418637,-4903.011187
80.977887,-3404.947333,4885.359217,17466.977354
80.978197,-2812.782580,4737.318029,17773.415554
80.978507,148.041188,3330.926739,2757.943793
80.978816,3627.009116,4515.256246,-766.095498
80.979126,1110.308913,4515.256246,-5209.449386
80.979436,-3034.844362,5033.400406,-8273.831378
80.979746,-4293.194464,10140.821405,-2068.457845
80.980056,2960.823768,9770.718434,-3447.429741
80.980365,5551.544565,4885.359217,-2987.772442
80.980675,-740.205942,2442.679609,10112.460574
80.980985,-4959.379811,4885.359217,21680.502593
80.981295,-814.226536,7105.977043,8810.098227
80.981604,6069.688724,13915.871710,-9193.145976
80.981914,2146.597232,12213.398043,-7354.516781
80.982224,-3552.988522,13619.789333,-4290.134789
80.982534,-3478.967927,15174.221811,-8733.488677
80.982844,-5625.565159,14656.077652,-1072.533697
80.983153,2220.617826,14137.933492,689.485948
80.983463,3330.926739,9844.739029,-1378.971896
80.983773,444.123565,7772.162391,4443.353888
80.984083,-4737.318029,7179.997637,13942.938064
80.984393,-444.123565,9252.574275,0.000000
80.984702,10658.965565,8956.491898,-14632.424012
80.985012,666.185348,9770.718434,-6205.373534
80.985322,-11621.233289,11399.171507,4979.620737
80.985632,-4219.173869,15396.283594,-1455.581446
80.985942,6069.688724,11177.109724,-15168.690860
80.986251,3775.050304,5033.400406,-8656.879127
80.986561,-6661.853478,5625.565159,9346.365076
80.986871,-4441.235652,4959.379811,9193.145976
80.987181,3775.050304,7402.059420,-5056.230287
80.987490,5329.482782,7476.080014,-8044.002729
80.987800,-2442.679609,10584.944971,-1378.971896
80.988110,-6809.894666,12731.542202,-3600.648841
80.988420,-888.247130,11547.212695,-12870.404366
80.988730,3627.009116,10881.027347,-12027.699319
80.989039,2220.617826,5995.668130,-3064.381992
80.989349,-740.205942,2294.638420,10418.898773
80.989659,444.123565,3701.029710,12717.185267
80.989969,7105.977043,4811.338623,4979.620737
80.990279,7698.141797,6957.935855,-5592.497135
80.990588,5625.565159,7920.203579,-6511.811733
80.990898,-1036.288319,9918.759623,-4903.011187
80.991208,-3478.967927,13397.727550,-7124.688131
80.991518,1850.514855,15692.365970,-6128.763984
80.991827,4959.379811,11473.192101,-6435.202183
80.992137,962.267725,6661.853478,1762.019645
80.992447,-2072.576638,7698.141797,10572.117872
80.992757,-222.061783,6661.853478,9576.193725
80.993067,6513.812290,11325.150913,-3064.381992
80.993376,5773.606348,11695.253884,-9039.926876
80.993686,-3182.885551,14730.098246,-7277.907231
80.993996,-9474.636058,16062.468941,-4749.792088
80.994306,-74.020594,15692.365970,-7277.907231
80.994616,4367.215058,11843.295072,-13176.842566
80.994925,-1998.556043,5773.606348,-459.657299
80.995235,-6587.832884,6217.729913,15475.129060
80.995545,-1036.288319,4515.256246,9806.022374
80.995855,6809.894666,4737.318029,-5898.935335
80.996164,5773.606348,5773.606348,-3830.477490
80.996474,-4589.276840,8216.285956,3907.087040
80.996784,-7994.224174,11621.233289,1225.752797
80.997094,666.185348,14063.912898,-6741.640382
80.997404,3108.864956,11103.089130,-11031.775171
80.997713,-3256.906145,7624.121203,689.485948
80.998023,-3701.029710,4071.132681,13100.233016
80.998333,1332.370696,5625.565159,9269.755526
80.998643,3997.112087,5329.482782,-1225.752797
80.998952,1184.329507,5995.668130,3524.039291
80.999262,-1480.411884,9326.594869,3294.210641
80.999572,-3849.070898,14063.912898,-5056.230287
80.999881,-3108.864956,17542.880825,-9499.584175
81.000191,222.061783,17616.901420,-8963.317327
81.000501,1110.308913,12065.356855,-5898.935335
81.000810,-148.041188,6069.688724,6205.373534
81.001120,-2738.761985,4959.379811,15858.176809
81.001430,1406.391290,8438.347739,13789.718964
81.001739,5033.400406,4885.359217,2068.457845
81.002049,3775.050304,7328.038826,-3600.648841
81.002359,-2812.782580,11991.336260,-4749.792088
81.002668,-7994.224174,16210.510130,-7277.907231
81.002978,-1628.453072,18209.066173,-12947.013916
81.003287,2960.823768,15692.365970,-9882.631924
81.003597,-2220.617826,8586.388927,3294.210641
81.003907,-7105.977043,5255.462188,16471.053207
81.004216,-222.061783,5255.462188,7814.174080
81.004526,6587.832884,6735.874072,-4903.011187
81.004836,1258.350101,9474.636058,-6971.469032
81.005145,-3997.112087,13915.871710,-2451.505594
81.005455,-3256.906145,16062.468941,-11644.651570
81.005765,2960.823768,16654.633695,-17007.320056
81.006074,2442.679609,11843.295072,-8656.879127
81.006384,-4219.173869,2146.597232,5592.497135
81.006694,-3108.864956,1406.391290,15628.348159
81.007003,2146.597232,1924.535449,11414.822920
81.007313,11251.130318,2220.617826,-4519.963438
81.007623,7550.100608,3849.070898,-5515.887586
81.007932,-1480.411884,11325.150913,2374.896044
81.008242,-1110.308913,13619.789333,-4673.182538
81.008551,296.082377,14211.954086,-12870.404366
81.008861,2146.597232,14137.933492,-7814.174080
81.009171,-2812.782580,9770.718434,4060.306139
81.009480,-148.041188,7624.121203,8120.612279
81.009790,4737.318029,6957.935855,6205.373534
81.010100,2368.659014,7698.141797,2221.676944
81.010409,2146.597232,10288.862594,842.705048
81.010719,814.226536,14359.995275,-4596.572988
81.011029,-2368.659014,17468.860231,-10418.898773
81.011338,-4885.359217,20207.622217,-10878.556072
81.011648,-148.041188,18283.086767,-12563.966167
81.011958,2664.741391,7624.121203,-10342.289223
81.012267,-2442.679609,3330.926739,6128.763984
81.012577,-6365.771101,1628.453072,20071.702048
81.012886,3256.906145,-814.226536,9039.926876
81.013196,8956.491898,2442.679609,-5898.935335
81.013506,2442.679609,6513.812290,-3830.477490
81.013815,-6291.750507,10807.006753,459.657299
81.014125,-6513.812290,12213.398043,-7354.516781
81.014435,-74.020594,15248.242405,-13713.109414
81.014744,-0.000000,9918.759623,-6894.859482
81.015054,-6735.874072,5033.400406,8580.269578
81.015364,-5329.482782,4885.359217,14709.033562
81.015673,2960.823768,8216.285956,10955.165621
81.015983,1998.556043,9104.533087,-536.266849
81.016293,-0.000000,11029.068536,-1455.581446
81.016602,-1258.350101,14804.118840,-8503.660028
81.016912,-5847.626942,17098.757260,-12334.137518
81.017222,1480.411884,19245.354492,-10342.289223
81.017531,2072.576638,14804.118840,-8810.098227
81.017841,518.144159,7031.956449,2145.067394
81.018150,-4441.235652,2960.823768,18539.511052
81.018460,1628.453072,2146.597232,13483.280765
81.018770,8734.430116,1480.411884,-1608.800546
81.019079,4663.297435,4737.318029,-3217.601092
81.019389,-222.061783,9992.780217,0.000000
81.019699,-4367.215058,14434.015869,-6971.469032
81.020008,-1036.288319,16358.551318,-11797.870669
81.020318,-814.226536,16284.530724,-7354.516781
81.020628,-814.226536,7698.141797,-1762.019645
81.020937,-4293.194464,3256.906145,7048.078582
81.021247,-1258.350101,4589.276840,11874.480219
81.021557,3330.926739,8882.471304,536.266849
81.021866,5255.462188,10214.842000,-4903.011187
81.022176,1258.350101,17098.757260,-5669.106685
81.022486,-5921.647536,17838.963202,-8733.488677
81.022795,-4811.338623,18579.169144,-13330.061665
81.023105,3182.885551,15100.201217,-14172.766713
81.023414,2294.638420,5329.482782,-6665.030833
81.023724,-2886.803174,1628.453072,12257.527968
81.024034,-2886.803174,-0.000000,19458.825649
81.024343,5995.668130,1332.370696,3064.381992
81.024653,10214.842000,3034.844362,-4366.744339
81.024963,2738.761985,7550.100608,-1915.238745
81.025272,-3923.091493,11325.150913,-2528.115143
81.025582,-592.164754,14508.036463,-10648.727422
81.025892,-740.205942,14804.118840,-9882.631924
81.026201,814.226536,11029.068536,-3217.601092
81.026511,-3034.844362,5625.565159,3600.648841
81.026821,-518.144159,7179.997637,10035.851024
81.027130,-1850.514855,5699.585753,8503.660028
81.027440,5329.482782,10362.883188,-2451.505594
81.027750,5329.482782,13101.645173,-9652.803275
81.028059,-2960.823768,15988.448347,-9346.365076
81.028369,-6957.935855,17616.901420,-7277.907231
81.028678,2294.638420,18283.086767,-11951.089769
81.028988,5329.482782,9474.636058,-12410.747068
81.029298,-1480.411884,3627.009116,4903.011187
81.029607,-2960.823768,962.267725,20378.140247
81.029917,1406.391290,-444.123565,13559.890315
81.030227,9178.553681,3552.988522,-3600.648841
81.030536,3330.926739,6143.709319,-5515.887586
81.030846,-2886.803174,10807.006753,-4673.182538
81.031156,-7105.977043,14211.954086,-7507.735880
81.031465,-1776.494261,15914.427753,-13406.671215
81.031775,1776.494261,12657.521608,-10572.117872
81.032085,-4441.235652,5255.462188,2221.676944
81.032394,-4293.194464,6143.709319,12487.356617
81.032704,1036.288319,5033.400406,7814.174080
81.033013,3552.988522,7031.956449,-1225.752797
81.033323,2146.597232,9770.718434,-4290.134789
81.033633,-444.123565,11843.295072,-7354.516781
81.033942,-8290.306550,15322.262999,-8044.002729
81.034252,-2072.576638,17024.736666,-10342.289223
81.034562,3404.947333,12879.583391,-14555.814462
81.034871,-370.102971,4515.256246,-3217.601092
81.035181,-4663.297435,2960.823768,16241.224558
81.035491,1184.329507,2220.617826,12947.013916
81.035800,11251.130318,-74.020594,-2528.115143
81.036110,3404.947333,5773.606348,-2145.067394
81.036420,-148.041188,10436.903782,2834.553343
81.036729,-962.267725,12435.459826,-7584.345430
81.037039,-3256.906145,16432.571912,-11414.822920
81.037349,-962.267725,15026.180623,-4366.744339
81.037658,-0.000000,11917.315666,-3753.867940
81.037968,-814.226536,6365.771101,0.000000
81.038277,-1036.288319,7698.141797,8656.879127
81.038587,-3182.885551,6291.750507,6128.763984
81.038897,4515.256246,7920.203579,-4213.525239
81.039206,1702.473667,11843.295072,-5898.935335
81.039516,-4737.318029,15174.221811,-4213.525239
81.039826,-5107.421000,16062.468941,-7814.174080
81.040135,1110.308913,14063.912898,-14632.424012
81.040445,1554.432478,9400.615463,-8580.269578
81.040755,-1554.432478,2072.576638,5286.058936
81.041064,-2368.659014,1628.453072,13636.499864
81.041374,2146.597232,4071.132681,7660.954980
81.041684,4959.379811,4293.194464,0.000000
81.041993,4811.338623,7476.080014,-919.314598
81.042303,-888.247130,9844.739029,-2604.724693
81.042613,-6217.729913,12583.501014,-4826.401637
81.042922,-148.041188,15396.283594,-6435.202183
81.043232,-592.164754,12213.398043,-8733.488677
81.043541,2960.823768,7772.162391,-4366.744339
81.043851,-962.267725,8438.347739,8044.002729
81.044161,-2072.576638,8364.327145,12180.918418
81.044470,3404.947333,9918.759623,6205.373534
81.044780,4515.256246,11251.130318,-2451.505594
81.045090,-666.185348,12139.377449,-2834.553343
81.045399,-5255.462188,14878.139434,-2451.505594
81.045709,1850.514855,17764.942608,-8580.269578
81.046019,5403.503377,13397.727550,-16088.005458
81.046328,1776.494261,10288.862594,-1915.238745
81.046638,-2886.803174,5995.668130,14479.204912
81.046948,-1332.370696,4663.297435,12334.137518
81.047257,4219.173869,6365.771101,0.000000
81.047567,5773.606348,4811.338623,-3753.867940
81.047877,518.144159,8438.347739,-2681.334243
81.048186,-5181.441594,13101.645173,-3600.648841
81.048496,-3182.885551,14359.995275,-9499.584175
81.048805,3330.926739,13471.748144,-9806.022374
81.049115,2960.823768,8660.409521,-7124.688131
81.049425,-3330.926739,2590.720797,6741.640382
81.049734,-5329.482782,5255.462188,16011.395908
81.050044,3923.091493,7994.224174,2451.505594
81.050354,7179.997637,8586.388927,-7814.174080
81.050663,-1184.329507,11695.253884,-5822.325785
81.050973,-8660.409521,14878.139434,-1838.629195
81.051283,-3256.906145,17098.757260,-11414.822920
81.051592,3997.112087,16728.654289,-19918.482948
81.051902,444.123565,12435.459826,-7124.688131
81.052212,-3997.112087,5625.565159,9346.365076
81.052521,-1184.329507,2294.638420,12410.747068
81.052831,3478.967927,1184.329507,4903.011187
81.053141,4071.132681,2664.741391,0.000000
81.053450,1998.556043,6291.750507,-1455.581446
81.053760,-666.185348,9992.780217,-2528.115143
81.054069,-2960.823768,15026.180623,-6205.373534
81.054379,-740.205942,17468.860231,-8044.002729
81.054689,1332.370696,11991.336260,-7967.393179
81.054998,148.041188,5699.585753,-2604.724693
81.055308,-4663.297435,5033.400406,8810.098227
81.055618,-2886.803174,6069.688724,15551.738609
81.055927,3108.864956,8882.471304,1532.190996
81.056237,2886.803174,10881.027347,-5898.935335
81.056547,-2294.638420,14582.057057,-4596.572988
81.056856,-7179.997637,16802.674883,-7201.297681
81.057166,296.082377,17172.777854,-14479.204912
81.057476,3256.906145,15026.180623,-12487.356617
81.057785,740.205942,7328.038826,-1455.581446
81.058095,-1184.329507,2664.741391,10342.289223
81.058404,-2960.823768,-74.020594,13559.890315
81.058714,4367.215058,3701.029710,5745.716235
81.059024,6291.750507,3182.885551,-2145.067394
81.059333,1702.473667,7328.038826,-3753.867940
81.059643,-6365.771101,11843.295072,-2451.505594
81.059953,-1036.288319,12657.521608,-8120.612279
81.060262,3627.009116,12953.603985,-13636.499864
81.060572,1924.535449,8808.450710,-7814.174080
81.060882,-3330.926739,6735.874072,8580.269578
81.061191,-3775.050304,6587.832884,14862.252661
81.061501,2812.782580,7105.977043,6358.592633
81.061811,6957.935855,10214.842000,-4060.306139
81.062120,-1110.308913,11917.315666,-4443.353888
81.062430,-4367.215058,16506.592507,-5362.668486
81.062740,-1036.288319,16580.613101,-13023.623466
81.063049,3478.967927,15766.386565,-16930.710506
81.063359,3775.050304,10955.047942,-5975.544884
81.063668,444.123565,4515.256246,10189.070123
81.063978,-1998.556043,2664.741391,16088.005458
81.064288,1110.308913,-814.226536,11108.384721
81.064597,7920.203579,2886.803174,-1762.019645
81.064907,4885.359217,5551.544565,-6281.983084
81.065217,-1850.514855,11325.150913,-5362.668486
81.065526,-5403.503377,15174.221811,-6128.763984
81.065836,666.185348,15692.365970,-8886.707777
81.066146,4293.194464,12953.603985,-9652.803275
81.066455,-1184.329507,7402.059420,919.314598
81.066765,-3775.050304,5329.482782,11568.042020
81.067075,-1110.308913,5033.400406,8350.440928
81.067384,3997.112087,9918.759623,-842.705048
81.067694,2812.782580,9474.636058,-3600.648841
81.068004,-3997.112087,12953.603985,-2221.676944
81.068313,-6957.935855,15618.345376,-7354.516781
81.068623,74.020594,15988.448347,-20761.187996
81.068932,1850.514855,12435.459826,-14632.424012
81.069242,-1702.473667,7550.100608,153.219100
81.069552,-4071.132681,3701.029710,12487.356617
81.069861,-592.164754,2590.720797,11797.870669
81.070171,5699.585753,3330.926739,2681.334243
81.070481,4737.318029,3182.885551,-1378.971896
81.070790,-3330.926739,8882.471304,1685.410096
81.071100,-4145.153275,12657.521608,-1762.019645
81.071410,-1332.370696,16284.530724,-11721.261119
81.071719,1776.494261,16136.489536,-14785.643111
81.072029,296.082377,10066.800811,-6665.030833
81.072339,-4811.338623,8364.327145,4903.011187
81.072648,-5699.585753,7550.100608,11031.775171
81.072958,4219.173869,8956.491898,3370.820191
81.073268,6513.812290,9326.594869,-2374.896044
81.073577,-3034.844362,9252.574275,2757.943793
81.073887,-5033.400406,14063.912898,2068.457845
81.074196,-222.061783,15692.365970,-15934.786358
81.074506,5477.523971,13545.768739,-20148.311597
81.074816,-962.267725,12287.418637,-5822.325785
81.075125,-4515.256246,7328.038826,9193.145976
81.075435,-1110.308913,3034.844362,10035.851024
81.075745,5107.421000,4219.173869,7890.783629
81.076054,5403.503377,4145.153275,1685.410096
81.076364,-740.205942,4441.235652,1455.581446
81.076674,-3923.091493,10288.862594,0.000000
81.076983,-740.205942,13175.665768,-10035.851024
81.077293,3775.050304,15026.180623,-18999.168350
81.077603,1110.308913,12435.459826,-10495.508323
81.077912,-3923.091493,7846.182985,5745.716235
81.078222,-2072.576638,5995.668130,11184.994271
81.078531,518.144159,5329.482782,12563.966167
81.078841,5181.441594,6735.874072,4290.134789
81.079151,1702.473667,7846.182985,-842.705048
81.079460,-2146.597232,12879.583391,-5209.449386
81.079770,-1850.514855,16062.468941,-10189.070123
81.080080,3256.906145,17912.983796,-15245.300410
81.080389,3108.864956,12953.603985,-11874.480219
81.080699,-666.185348,9844.739029,3217.601092
81.081009,-3849.070898,4959.379811,13406.671215
81.081318,1036.288319,2146.597232,12257.527968
81.081628,7624.121203,2664.741391,1762.019645
81.081938,6217.729913,3923.091493,-1378.971896
81.082247,-1554.432478,9770.718434,1762.019645
81.082557,-4663.297435,12657.521608,-2528.115143
81.082867,5847.626942,15248.242405,-12104.308868
81.083176,3330.926739,13249.686362,-15092.081311
81.083486,-370.102971,9622.677246,-2374.896044
81.083795,-4811.338623,5107.421000,11261.603821
81.084105,-3701.029710,4589.276840,15628.348159
81.084415,2738.761985,5329.482782,7584.345430
81.084724,4589.276840,5847.626942,-2451.505594
81.085034,666.185348,12139.377449,-5745.716235
81.085344,-6661.853478,15470.304188,-6894.859482
81.085653,-148.041188,17987.004391,-11031.775171
81.085963,4589.276840,18357.107362,-14632.424012
81.086273,1110.308913,10436.903782,-4596.572988
81.086582,-2590.720797,3627.009116,10112.460574
81.086892,-7031.956449,-444.123565,18386.291952
81.087202,4441.235652,1036.288319,11184.994271
81.087511,8512.368333,3330.926739,-2451.505594
81.087821,2886.803174,7772.162391,-7431.126331
81.088131,-5181.441594,13249.686362,-3600.648841
81.088440,-5255.462188,17320.819043,-6818.249932
81.088750,3182.885551,17542.880825,-16394.443657
81.089059,3256.906145,12805.562797,-11874.480219
81.089369,-4293.194464,7402.059420,8197.221829
81.089679,-6513.812290,4367.215058,19535.435199
81.089988,3997.112087,3552.988522,9882.631924
81.090298,8808.450710,6883.915261,-2604.724693
81.090608,888.247130,10362.883188,-4443.353888
81.090917,-4959.379811,16062.468941,-3140.991542
81.091227,-3701.029710,16432.571912,-10418.898773
81.091537,814.226536,18579.169144,-14938.862211
81.091846,2146.597232,14656.077652,-10495.508323
81.092156,-2812.782580,6809.894666,6435.202183
81.092466,-3849.070898,2960.823768,15015.471761
81.092775,-222.061783,666.185348,14555.814462
81.093085,9252.574275,2516.700203,1915.238745
81.093395,3627.009116,5329.482782,-2221.676944
81.093704,-3923.091493,11695.253884,919.314598
81.094014,-2072.576638,15396.283594,-3600.648841
81.094323,1258.350101,14878.139434,-16241.224558
81.094633,3182.885551,14285.974681,-15628.348159
81.094943,-3701.029710,8808.450710,919.314598
81.095252,-1850.514855,5403.503377,10725.336972
81.095562,-518.144159,3330.926739,12104.308868
81.095872,5995.668130,6069.688724,9652.803275
81.096181,2590.720797,7105.977043,995.924147
81.096491,-518.144159,12583.501014,-3753.867940
81.096801,-3108.864956,16506.592507,-5898.935335
81.097110,-1406.391290,16728.654289,-11797.870669
81.097420,3923.091493,15840.407159,-17313.758255
81.097730,518.144159,9696.697840,-7048.078582
81.098039,-1924.535449,5847.626942,9116.536426
81.098349,-4663.297435,962.267725,17773.415554
81.098658,2294.638420,5255.462188,9806.022374
81.098968,7920.203579,5403.503377,-1608.800546
81.099277,2294.638420,8290.306550,-6894.859482
81.099587,-5921.647536,12953.603985,-2451.505594
81.099897,-1554.432478,13989.892304,-12410.747068
81.100206,6217.729913,14878.139434,-17696.806004
81.100516,666.185348,9474.636058,-6588.421283
81.100825,-5033.400406,5477.523971,12717.185267
81.101135,-3330.926739,1850.514855,18003.244203
81.101444,3775.050304,4737.318029,8503.660028
81.101754,5403.503377,7698.141797,-1608.800546
81.102063,1776.494261,10732.986159,-6435.202183
81.102373,-5625.565159,15248.242405,-5515.887586
81.102683,-4145.153275,16950.716072,-9269.755526
81.102992,5921.647536,18653.189738,-18616.120601
81.103302,1480.411884,11251.130318,-12257.527968
81.103611,-3552.988522,7402.059420,8120.612279
81.103921,-5033.400406,2516.700203,18233.072852
81.104230,1406.391290,1036.288319,11491.432470
81.104540,8216.285956,4293.194464,-2374.896044
81.104850,2516.700203,6587.832884,-5132.839837
81.105159,-2886.803174,11103.089130,-4136.915689
81.105469,-3701.029710,14211.954086,-8963.317327
81.105778,2960.823768,14878.139434,-17313.758255
81.106088,2960.823768,11029.068536,-11721.261119
81.106397,-4441.235652,6069.688724,6358.592633
81.106707,-5033.400406,2664.741391,17083.929605
81.107017,-666.185348,2516.700203,12793.794817
81.107326,7772.162391,7920.203579,-842.705048
81.107636,4515.256246,8808.450710,-7967.393179
81.107945,-3404.947333,15766.386565,-4826.401637
81.108255,-6217.729913,16284.530724,-5515.887586
81.108564,3330.926739,17764.942608,-16547.662757
81.108874,5625.565159,14434.015869,-16164.615008
81.109183,-3775.050304,9474.636058,-383.047749
81.109493,-5033.400406,4663.297435,12180.918418
81.109803,-1924.535449,1036.288319,12793.794817
81.110112,8216.285956,3182.885551,2987.772442
81.110422,5551.544565,4441.235652,-2834.553343
81.110731,-2590.720797,7772.162391,0.000000
81.111041,-5773.606348,11399.171507,-229.828649
81.111350,2294.638420,13693.809927,-8810.098227
81.111660,3997.112087,13175.665768,-15704.957709
81.111970,-1554.432478,9770.718434,-5209.449386
81.112279,-5255.462188,5551.544565,9729.412825
81.112589,-3256.906145,5847.626942,14938.862211
81.112898,6809.894666,5995.668130,5822.325785
81.113208,3330.926739,9622.677246,-4673.182538
81.113517,370.102971,11399.171507,-4136.915689
81.113827,-6069.688724,15840.407159,-1915.238745
81.114137,-1332.370696,16876.695478,-12257.527968
81.114446,4515.256246,16654.633695,-19075.777900
81.114756,-0.000000,12657.521608,-5439.278036
81.115065,-1924.535449,6069.688724,9729.412825
81.115375,-3034.844362,1924.535449,14172.766713
81.115684,2368.659014,2664.741391,12717.185267
81.115994,5329.482782,6513.812290,1532.190996
81.116303,2294.638420,7698.141797,-5362.668486
81.116613,-2960.823768,10807.006753,-4596.572988
81.116923,-2664.741391,15396.283594,-7431.126331
81.117232,2220.617826,15396.283594,-12870.404366
81.117542,2146.597232,13545.768739,-10265.679673
81.117851,-3404.947333,6143.709319,5286.058936
81.118161,-3997.112087,4885.359217,14325.985813
81.118470,444.123565,6291.750507,12257.527968
81.118780,6513.812290,8956.491898,-1608.800546
81.119090,2368.659014,10510.924376,-5362.668486
81.119399,-2442.679609,11769.274478,-3907.087040
81.119709,-4219.173869,13915.871710,-6128.763984
81.120018,2072.576638,16876.695478,-10495.508323
81.120328,2442.679609,13175.665768,-12257.527968
81.120637,-666.185348,7624.121203,383.047749
81.120947,-3404.947333,1776.494261,11261.603821
81.121257,-2812.782580,2738.761985,13100.233016
81.121566,7994.224174,5329.482782,2221.676944
81.121876,5181.441594,7031.956449,-5745.716235
81.122185,-1702.473667,9844.739029,-1225.752797
81.122495,-3552.988522,13101.645173,-1685.410096
81.122804,370.102971,16432.571912,-10648.727422
81.123114,2442.679609,14508.036463,-12487.356617
81.123423,-3108.864956,10140.821405,-689.485948
81.123733,-4515.256246,6217.729913,7048.078582
81.124043,-1258.350101,5699.585753,7584.345430
81.124352,3552.988522,8290.306550,1455.581446
81.124662,4293.194464,9104.533087,-4136.915689
81.124971,-444.123565,9030.512492,229.828649
81.125281,-6439.791695,11621.233289,3677.258390
81.125590,222.061783,14285.974681,-7660.954980
81.125900,3849.070898,9474.636058,-18156.463303
81.126210,-3923.091493,9326.594869,-4903.011187
81.126519,-2368.659014,5847.626942,7584.345430
81.126829,-2146.597232,5699.585753,5132.839837
81.127138,4071.132681,6217.729913,4903.011187
81.127448,2886.803174,6661.853478,4979.620737
81.127757,814.226536,6291.750507,-1532.190996
81.128067,-2738.761985,10510.924376,-1915.238745
81.128377,-3108.864956,14285.974681,-4749.792088
81.128686,814.226536,14730.098246,-16164.615008
81.128996,1850.514855,12139.377449,-11951.089769
81.129305,-4737.318029,10066.800811,2604.724693
81.129615,-4737.318029,7031.956449,9346.365076
81.129924,-2146.597232,8438.347739,6741.640382
81.130234,4737.318029,7550.100608,-383.047749
81.130543,2664.741391,7698.141797,229.828649
81.130853,-2146.597232,8808.450710,3294.210641
81.131163,-4367.215058,11769.274478,-2068.457845
81.131472,-0.000000,16580.613101,-12257.527968
81.131782,2442.679609,11547.212695,-14249.376263
81.132091,-2516.700203,9326.594869,0.000000
81.132401,-3701.029710,7772.162391,8733.488677
81.132710,1036.288319,6143.709319,5745.716235
81.133020,4219.173869,6439.791695,1302.362347
81.133330,2664.741391,6513.812290,612.876398
81.133639,-666.185348,8512.368333,1225.752797
81.133949,-2516.700203,9548.656652,-1302.362347
81.134258,1036.288319,14508.036463,-9729.412825
81.134568,3627.009116,13841.851115,-13789.718964
81.134877,222.061783,10955.047942,-4903.011187
81.135187,-4441.235652,9400.615463,6818.249932
81.135497,1258.350101,7254.018232,5822.325785
81.135806,2442.679609,6957.935855,1685.410096
81.136116,3034.844362,5995.668130,2757.943793
81.136425,1850.514855,7031.956449,766.095498
81.136735,-4663.297435,10288.862594,-3753.867940
81.137044,-518.144159,14656.077652,-11184.994271
81.137354,2960.823768,13841.851115,-14479.204912
81.137664,222.061783,12583.501014,-9039.926876
81.137973,-2664.741391,9252.574275,4213.525239
81.138283,-2368.659014,5625.565159,9193.145976
81.138592,4811.338623,1924.535449,10265.679673
81.138902,2812.782580,4515.256246,3600.648841
81.139211,3552.988522,5995.668130,0.000000
81.139521,-2368.659014,9474.636058,-3753.867940
81.139830,-4145.153275,13767.830521,-5286.058936
81.140140,1406.391290,17172.777854,-11491.432470
81.140450,3108.864956,12657.521608,-13789.718964
81.140759,-3034.844362,10066.800811,-1915.238745
81.141069,-5477.523971,7402.059420,10725.336972
81.141378,-4441.235652,7105.977043,7124.688131
81.141688,6291.750507,7105.977043,153.219100
81.141997,4959.379811,5847.626942,-1455.581446
81.142307,-4515.256246,7624.121203,1302.362347
81.142617,-5107.421000,13397.727550,-612.876398
81.142926,1628.453072,14508.036463,-13942.938064
81.143236,5477.523971,13397.727550,-18999.168350
81.143545,-1850.514855,9696.697840,-3677.258390
81.143855,-5847.626942,6809.894666,11108.384721
81.144164,-3108.864956,4811.338623,11184.994271
81.144474,5847.626942,6069.688724,4366.744339
81.144784,6661.853478,3849.070898,-919.314598
81.145093,-1628.453072,8290.306550,-383.047749
81.145403,-6291.750507,13101.645173,612.876398
81.145712,2294.638420,15174.221811,-12487.356617
81.146022,6217.729913,15322.262999,-18079.853753
81.146331,-370.102971,12509.480420,-5515.887586
81.146641,-6069.688724,9622.677246,9882.631924
81.146950,-3775.050304,6957.935855,7277.907231
81.147260,4219.173869,5477.523971,995.924147
81.147570,5033.400406,6735.874072,1378.971896
81.147879,-4441.235652,9252.574275,4213.525239
81.148189,-2294.638420,11621.233289,-766.095498
81.148498,1110.308913,13323.706956,-14632.424012
81.148808,2960.823768,13619.789333,-19458.825649
81.149117,-1110.308913,10584.944971,-5286.058936
81.149427,-2738.761985,7105.977043,6894.859482
81.149737,-0.000000,2738.761985,9499.584175
81.150046,1480.411884,2146.597232,10495.508323
81.150356,4145.153275,2886.803174,6818.249932
81.150665,1924.535449,6439.791695,-2834.553343
81.150975,888.247130,10362.883188,-6128.763984
81.151284,-3478.967927,16210.510130,-7737.564530
81.151594,592.164754,17838.963202,-16088.005458
81.151904,2294.638420,13767.830521,-13559.890315
81.152213,-5255.462188,8660.409521,1915.238745
81.152523,-5847.626942,7846.182985,12104.308868
81.152832,-666.185348,7772.162391,7354.516781
81.153142,5995.668130,6365.771101,766.095498
81.153451,1924.535449,7698.141797,459.657299
81.153761,-4367.215058,9400.615463,1225.752797
81.154070,-2886.803174,11991.336260,-6665.030833
81.154380,3997.112087,14434.015869,-15934.786358
81.154690,2516.700203,12879.583391,-14555.814462
81.154999,-3478.967927,8956.491898,1915.238745
81.155309,-2590.720797,5033.400406,11644.651570
81.155618,-296.082377,4885.359217,11874.480219
81.155928,6735.874072,4663.297435,4290.134789
81.156237,4737.318029,4737.318029,0.000000
81.156547,-0.000000,8438.347739,-3677.258390
81.156857,-4663.297435,14211.954086,-4213.525239
81.157166,2294.638420,17987.004391,-7354.516781
81.157476,5107.421000,14508.036463,-15321.909960
81.157785,-2368.659014,9992.780217,-5209.449386
81.158095,-7994.224174,7402.059420,11031.775171
81.158404,-5033.400406,7772.162391,11644.651570
81.158714,8068.244768,5847.626942,0.000000
81.159024,5847.626942,6143.709319,-1991.848295
81.159333,-4515.256246,9252.574275,1991.848295
81.159643,-4219.173869,10436.903782,-1991.848295
81.159952,2960.823768,13545.768739,-10265.679673
81.160262,4293.194464,13545.768739,-16777.491406
81.160571,-3108.864956,11843.295072,-4366.744339
81.160881,-3849.070898,4885.359217,9039.926876
81.161190,-370.102971,4071.132681,11644.651570
81.161500,4885.359217,5033.400406,5898.935335
81.161810,4219.173869,5107.421000,2068.457845
81.162119,2664.741391,7402.059420,-1532.190996
81.162429,-4737.318029,9548.656652,-766.095498
81.162738,-1776.494261,16358.551318,-4596.572988
81.163048,5477.523971,17616.901420,-18156.463303
81.163357,296.082377,13841.851115,-12870.404366
81.163667,-6587.832884,10732.986159,5515.887586
81.163977,-6587.832884,6217.729913,11951.089769
81.164286,4737.318029,4811.338623,5898.935335
81.164596,5255.462188,8142.265362,383.047749
81.164905,2516.700203,7994.224174,1455.581446
81.165215,-4145.153275,9178.553681,1991.848295
81.165524,-666.185348,14211.954086,-6665.030833
81.165834,4441.235652,14878.139434,-16317.834107
81.166144,1258.350101,11917.315666,-12180.918418
81.166453,-2220.617826,9622.677246,1991.848295
81.166763,-3478.967927,6069.688724,8886.707777
81.167072,-1110.308913,2368.659014,12640.575717
81.167382,4663.297435,4737.318029,5745.716235
81.167691,5033.400406,6143.709319,-1455.581446
81.168001,-1776.494261,7920.203579,-2221.676944
81.168310,-4959.379811,11325.150913,-612.876398
81.168620,1184.329507,16136.489536,-6971.469032
81.168930,3997.112087,15840.407159,-14862.252661
81.169239,-2368.659014,12583.501014,-2604.724693
81.169549,-8364.327145,9030.512492,9346.365076
81.169858,-2516.700203,7328.038826,6511.811733
81.170168,5921.647536,6365.771101,689.485948
81.170477,4145.153275,8660.409521,-459.657299
81.170787,-2072.576638,8438.347739,0.000000
81.171097,-4811.338623,11399.171507,-2145.067394
81.171406,3330.926739,13693.809927,-9422.974625
81.171716,3849.070898,10362.883188,-16854.100956
81.172025,-444.123565,9844.739029,-1378.971896
81.172335,-4885.359217,4811.338623,13483.280765
81.172644,-370.102971,2368.659014,11261.603821
81.172954,5847.626942,4663.297435,3140.991542
81.173264,2886.803174,3701.029710,536.266849
81.173573,1554.432478,8438.347739,-2145.067394
81.173883,-2368.659014,12065.356855,-3294.210641
81.174192,-444.123565,15174.221811,-12104.308868
81.174502,2960.823768,16210.510130,-13483.280765
81.174811,-2294.638420,15026.180623,-8427.050478
81.175121,-5181.441594,9474.636058,5975.544884
81.175430,-4219.173869,9844.739029,7277.907231
81.175740,2886.803174,9622.677246,842.705048
81.176050,8438.347739,6883.915261,-612.876398
81.176359,-370.102971,9474.636058,919.314598
81.176669,-4219.173869,8808.450710,229.828649
81.176978,-296.082377,10955.047942,-5898.935335
81.177288,3627.009116,9770.718434,-15321.909960
81.177597,2294.638420,11029.068536,-10035.851024
81.177907,-2812.782580,7179.997637,6128.763984
81.178217,-2294.638420,3330.926739,10342.289223
81.178526,1850.514855,4367.215058,919.314598
81.178836,3627.009116,6809.894666,1532.190996
81.179145,3034.844362,7846.182985,-1455.581446
81.179455,-2368.659014,9770.718434,-3370.820191
81.179764,-2886.803174,11769.274478,-3294.210641
81.180074,2960.823768,16580.613101,-8427.050478
81.180384,1332.370696,16580.613101,-13176.842566
81.180693,-2590.720797,10584.944971,-766.095498
81.181003,-4737.318029,8512.368333,10342.289223
81.181312,-3182.885551,8808.450710,9806.022374
81.181622,7698.141797,7105.977043,-1532.190996
81.181931,5403.503377,9326.594869,-3370.820191
81.182241,-4737.318029,8068.244768,1225.752797
81.182550,-6957.935855,11621.233289,383.047749
81.182860,2072.576638,12361.439231,-10418.898773
81.183170,3627.009116,11325.150913,-15628.348159
81.183479,-888.247130,7772.162391,-2451.505594
81.183789,-4219.173869,7105.977043,10189.070123
81.184098,-74.020594,5403.503377,8733.488677
81.184408,2590.720797,2886.803174,3524.039291
81.184717,3849.070898,5329.482782,1915.238745
81.185027,148.041188,7105.977043,-766.095498
81.185337,-2738.761985,11177.109724,-2757.943793
81.185646,-1628.453072,15692.365970,-5515.887586
81.185956,-0.000000,15026.180623,-11491.432470
81.186265,1628.453072,11991.336260,-9422.974625
81.186575,-3849.070898,8586.388927,4060.306139
81.186884,-4071.132681,10214.842000,8886.707777
81.187194,1480.411884,8290.306550,3370.820191
81.187504,5477.523971,8142.265362,1149.143247
81.187813,592.164754,10732.986159,76.609550
81.188123,-2886.803174,11621.233289,-2298.286494
81.188432,-814.226536,11991.336260,-10878.556072
81.188742,962.267725,12361.439231,-12487.356617
81.189051,2590.720797,12213.398043,-4826.401637
81.189361,-2664.741391,6957.935855,5362.668486
81.189670,-3478.967927,6513.812290,9806.022374
81.189980,1702.473667,2738.761985,5286.058936
81.190290,2886.803174,1184.329507,-2374.896044
81.190599,4515.256246,7402.059420,-2298.286494
81.190909,-2812.782580,8956.491898,0.000000
81.191218,-2072.576638,13471.748144,-3140.991542
81.191528,740.205942,13545.768739,-7737.564530
81.191837,1406.391290,13323.706956,-9116.536426
81.192147,-1554.432478,10807.006753,-1532.190996
81.192457,-4145.153275,9030.512492,4519.963438
81.192766,222.061783,9030.512492,2221.676944
81.193076,3997.112087,9326.594869,919.314598
81.193385,3182.885551,8586.388927,766.095498
81.193695,-4737.318029,7624.121203,1915.238745
81.194004,-2294.638420,11177.109724,-1532.190996
81.194314,3775.050304,14063.912898,-11721.261119
81.194624,2812.782580,13397.727550,-15321.909960
81.194933,-888.247130,9474.636058,0.000000
81.195243,-2664.741391,4441.235652,7967.393179
81.195552,-0.000000,3775.050304,5286.058936
81.195862,2664.741391,2738.761985,6205.373534
81.196171,3775.050304,4367.215058,2374.896044
81.196481,1776.494261,5995.668130,-3064.381992
81.196791,-3034.844362,13323.706956,-1072.533697
81.197100,-518.144159,16580.613101,-4826.401637
81.197410,1850.514855,13397.727550,-14019.547613
81.197719,-0.000000,11843.295072,-6128.763984
81.198029,-4441.235652,6957.935855,5439.278036
81.198338,-1258.350101,9844.739029,6358.592633
81.198648,222.061783,10510.924376,5056.230287
81.198957,2886.803174,7624.121203,2528.115143
81.199267,1184.329507,9178.553681,-1532.190996
81.199577,-4071.132681,9992.780217,-3907.087040
81.199886,-2442.679609,12953.603985,-9729.412825
81.200196,2812.782580,14804.118840,-12410.747068
81.200505,1702.473667,12879.583391,-9269.755526
81.200814,-1258.350101,8734.430116,4290.134789
81.201124,-2812.782580,6513.812290,10342.289223
81.201433,3034.844362,1776.494261,6358.592633
81.201743,4589.276840,1406.391290,2451.505594
81.202052,3478.967927,5181.441594,612.876398
81.202362,-2072.576638,9030.512492,-153.219100
81.202671,-2516.700203,12657.521608,-5362.668486
81.202980,148.041188,15618.345376,-12104.308868
81.203290,2516.700203,13323.706956,-11874.480219
81.203599,-3997.112087,12287.418637,459.657299
81.203909,-5255.462188,11251.130318,9806.022374
81.204218,-148.041188,8364.327145,8733.488677
81.204528,4145.153275,9252.574275,-612.876398
81.204837,1702.473667,9326.594869,-536.266849
81.205146,-2146.597232,9770.718434,-536.266849
81.205456,-3108.864956,12879.583391,-5592.497135
81.205765,1332.370696,10066.800811,-10725.336972
81.206075,2368.659014,12287.418637,-9652.803275
81.206384,-592.164754,9030.512492,-995.924147
81.206694,-2146.597232,3627.009116,7124.688131
81.207003,962.267725,2664.741391,5132.839837
81.207312,3108.864956,2886.803174,4213.525239
81.207622,5255.462188,2368.659014,766.095498
81.207931,-1998.556043,5181.441594,1915.238745
81.208241,-1554.432478,10881.027347,689.485948
81.208550,666.185348,16284.530724,-10878.556072
81.208860,1036.288319,17838.963202,-15321.909960
81.209169,-1110.308913,13323.706956,-5898.935335
81.209478,-5477.523971,9918.759623,3294.210641
81.209788,-814.226536,10955.047942,4826.401637
81.210097,1480.411884,8364.327145,4749.792088
81.210407,4663.297435,5403.503377,3370.820191
81.210716,-296.082377,7402.059420,1838.629195
81.211025,-2960.823768,9622.677246,153.219100
81.211335,-74.020594,12287.418637,-3983.696590
81.211644,1998.556043,14285.974681,-14402.595362
81.211954,592.164754,10807.006753,-10572.117872
81.212263,-1554.432478,9548.656652,1532.190996
81.212573,-2294.638420,6291.750507,6971.469032
81.212882,740.205942,5773.606348,4749.792088
81.213191,2738.761985,2738.761985,5898.935335
81.213501,2960.823768,2368.659014,1838.629195
81.213810,-1776.494261,7179.997637,536.266849
81.214120,-2886.803174,12731.542202,-2068.457845
81.214429,-0.000000,15396.283594,-12180.918418
81.214739,814.226536,15322.262999,-13023.623466
81.215048,-1480.411884,12953.603985,-4366.744339
81.215357,-4589.276840,9918.759623,3217.601092
81.215667,-1110.308913,10288.862594,5286.058936
81.215976,2960.823768,6217.729913,5669.106685
81.216286,3478.967927,7476.080014,2374.896044
81.216595,-1850.514855,7031.956449,2834.553343
81.216905,-4071.132681,11621.233289,-766.095498
81.217214,1036.288319,12953.603985,-14172.766713
81.217523,1850.514855,12805.562797,-15704.957709
81.217833,-296.082377,12953.603985,-4213.525239
81.218142,-0.000000,7328.038826,4826.401637
81.218452,-74.020594,6143.709319,8733.488677
81.218761,296.082377,1998.556043,8733.488677
81.219071,3923.091493,3627.009116,3830.477490
81.219380,1480.411884,4367.215058,383.047749
81.219689,-3256.906145,12509.480420,-842.705048
81.219999,-1332.370696,15840.407159,-7814.174080
81.220308,3627.009116,17172.777854,-18079.853753
81.220618,-222.061783,13767.830521,-8810.098227
81.220927,-5477.523971,11103.089130,3370.820191
81.221237,-2886.803174,8142.265362,5362.668486
81.221546,2516.700203,6513.812290,5592.497135
81.221855,3478.967927,7920.203579,5132.839837
81.222165,666.185348,6291.750507,2221.676944
81.222474,-3256.906145,8808.450710,-229.828649
81.222784,-2590.720797,12879.583391,-8427.050478
81.223093,3849.070898,14285.974681,-18616.120601
81.223403,518.144159,15988.448347,-10112.460574
81.223712,-1998.556043,8512.368333,5745.716235
81.224021,-4367.215058,5181.441594,8120.612279
81.224331,1184.329507,3701.029710,6435.202183
81.224640,1776.494261,2368.659014,6358.592633
81.224950,1924.535449,3701.029710,2681.334243
81.225259,-444.123565,10362.883188,-2604.724693
81.225569,-2960.823768,13323.706956,-5822.325785
81.225878,1258.350101,19393.395680,-14709.033562
81.226187,3478.967927,13915.871710,-15934.786358
81.226497,-4885.359217,10584.944971,-2757.943793
81.226806,-5255.462188,8660.409521,11414.822920
81.227116,1850.514855,3923.091493,13023.623466
81.227425,5477.523971,3849.070898,3294.210641
81.227735,3034.844362,5477.523971,2757.943793
81.228044,-3256.906145,7624.121203,1685.410096
81.228353,-2664.741391,11843.295072,-7277.907231
81.228663,2516.700203,14508.036463,-17696.806004
81.228972,592.164754,15174.221811,-14632.424012
81.229282,-2368.659014,13841.851115,-2145.067394
81.229591,-3997.112087,8808.450710,7507.735880
81.229900,-666.185348,3182.885551,12180.918418
81.230210,3552.988522,2590.720797,6128.763984
81.230519,5255.462188,2220.617826,1225.752797
81.230829,888.247130,7402.059420,536.266849
81.231138,-3701.029710,10510.924376,-1225.752797
81.231448,-592.164754,15174.221811,-13559.890315
81.231757,3256.906145,15174.221811,-17543.586904
81.232066,-1110.308913,12953.603985,-4903.011187
81.232376,-6957.935855,10362.883188,7660.954980
81.232685,-1036.288319,7476.080014,6128.763984
81.232995,2738.761985,5921.647536,3830.477490
81.233304,2812.782580,5625.565159,3064.381992
81.233614,-74.020594,6957.935855,76.609550
81.233923,-3775.050304,9696.697840,-3447.429741
81.234232,1332.370696,18505.148550,-7354.516781
81.234542,3478.967927,15026.180623,-16394.443657
81.234851,-74.020594,13249.686362,-4903.011187
81.235161,-5551.544565,8956.491898,7660.954980
81.235470,-0.000000,3108.864956,8733.488677
81.235780,2146.597232,2590.720797,5439.278036
81.236089,962.267725,3923.091493,3064.381992
81.236398,3627.009116,5403.503377,-766.095498
81.236708,-2220.617826,9030.512492,-3600.648841
81.237017,-1184.329507,15692.365970,-8886.707777
81.237327,2368.659014,18135.045579,-13176.842566
81.237636,444.123565,12731.542202,-12180.918418
81.237946,-4515.256246,10288.862594,1149.143247
81.238255,-3552.988522,9696.697840,9269.755526
81.238564,-1110.308913,7994.224174,5286.058936
81.238874,3552.988522,5255.462188,3600.648841
81.239183,5329.482782,6439.791695,2374.896044
81.239493,-2886.803174,5625.565159,-995.924147
81.239802,-3775.050304,13989.892304,-5132.839837
81.240112,1406.391290,15174.221811,-14785.643111
81.240421,2072.576638,15840.407159,-18309.682402
81.240730,-1776.494261,12139.377449,-2298.286494
81.241040,-7105.977043,6883.915261,10725.336972
81.241349,-148.041188,2886.803174,6052.154434
81.241659,5551.544565,296.082377,3217.601092
81.241968,1628.453072,3849.070898,4519.963438
81.242278,-2146.597232,5699.585753,2374.896044
81.242587,-148.041188,10066.800811,-5286.058936
81.242896,-1406.391290,16432.571912,-11951.089769
81.243206,2146.597232,16654.633695,-13636.499864
81.243515,-1998.556043,11769.274478,-6511.811733
81.243825,-4737.318029,10214.842000,5592.497135
81.244134,-740.205942,7920.203579,11797.870669
81.244444,4441.235652,5033.400406,1991.848295
81.244753,4737.318029,7402.059420,0.000000
81.245062,-1850.514855,7994.224174,2604.724693
81.245372,-4145.153275,9548.656652,919.314598
81.245681,3775.050304,15322.262999,-7737.564530
81.245991,3330.926739,16506.592507,-17083.929605
81.246300,-1036.288319,13693.809927,-5898.935335
81.246610,-4885.359217,9844.739029,5745.716235
81.246919,814.226536,4515.256246,6971.469032
81.247228,3404.947333,1628.453072,5286.058936
81.247538,1702.473667,1628.453072,3753.867940
81.247847,1110.308913,6587.832884,1072.533697
81.248157,-2294.638420,10214.842000,-1762.019645
81.248466,2220.617826,11103.089130,-13406.671215
81.248775,962.267725,17098.757260,-14249.376263
81.249085,-0.000000,14285.974681,-8503.660028
81.249394,-3627.009116,8438.347739,2681.334243
81.249704,-3404.947333,7994.224174,6741.640382
81.250013,1776.494261,7846.182985,3524.039291
81.250323,4515.256246,5477.523971,3217.601092
81.250632,3404.947333,6069.688724,2374.896044
81.250941,-3478.967927,9030.512492,-689.485948
81.251251,-296.082377,12139.377449,-6052.154434
81.251560,740.205942,15322.262999,-11338.213370
81.251870,-0.000000,14211.954086,-12104.308868
81.252179,-1628.453072,11325.150913,-3447.429741
81.252489,-2072.576638,8364.327145,4903.011187
81.252798,3182.885551,4885.359217,4979.620737
81.253107,2294.638420,1480.411884,4443.353888
81.253417,3182.885551,3627.009116,4826.401637
81.253726,-444.123565,6735.874072,1838.629195
81.254036,-962.267725,11547.212695,-1762.019645
81.254345,-0.000000,14952.160028,-9039.926876
81.254655,518.144159,15248.242405,-13253.452115
81.254964,1702.473667,11251.130318,-6588.421283
81.255273,-5699.585753,9030.512492,4903.011187
81.255583,-5477.523971,9622.677246,9269.755526
81.255892,4145.153275,9326.594869,2221.676944
81.256202,4589.276840,5181.441594,536.266849
81.256511,-4071.132681,7772.162391,2681.334243
81.256821,-3182.885551,11695.253884,-1149.143247
81.257130,-1036.288319,15396.283594,-14096.157163
81.257439,2072.576638,14656.077652,-15398.519510
81.257749,-2294.638420,13619.789333,-3294.210641
81.258058,-3923.091493,6365.771101,6511.811733
81.258368,444.123565,5699.585753,8656.879127
81.258677,4145.153275,3182.885551,3524.039291
81.258987,2442.679609,-0.000000,3140.991542
81.259296,-1702.473667,6735.874072,4443.353888
81.259605,-2294.638420,7994.224174,306.438199
81.259915,3404.947333,12139.377449,-11568.042020
81.260224,-0.000000,19911.539840,-14249.376263
81.260534,-370.102971,14952.160028,-7967.393179
81.260843,-3108.864956,10881.027347,1225.752797
81.261153,-3108.864956,11473.192101,4903.011187
81.261462,1258.350101,6883.915261,2068.457845
81.261771,3330.926739,4737.318029,2298.286494
81.262081,1480.411884,6143.709319,1838.629195
81.262390,-3256.906145,7179.997637,919.314598
81.262700,740.205942,15026.180623,-8273.831378
81.263009,1332.370696,14211.954086,-13789.718964
81.263319,3849.070898,9844.739029,-11261.603821
81.263628,-1480.411884,10732.986159,766.095498
81.263937,-3997.112087,6365.771101,7201.297681
81.264247,2220.617826,6291.750507,1455.581446
81.264556,4367.215058,3997.112087,3064.381992
81.264866,2664.741391,4663.297435,2987.772442
81.265175,-148.041188,10510.924376,842.705048
81.265485,-1998.556043,12879.583391,-4136.915689
81.265794,2294.638420,15914.427753,-12334.137518
81.266103,-0.000000,17394.839637,-12334.137518
81.266413,148.041188,13841.851115,-4366.744339
81.266722,-5107.421000,9474.636058,4826.401637
81.267032,-2812.782580,9178.553681,11491.432470
81.267341,4811.338623,4737.318029,3064.381992
81.267650,3182.885551,3256.906145,-383.047749
81.267960,-1628.453072,7179.997637,1991.848295
81.268269,-4071.132681,10436.903782,-459.657299
81.268579,3701.029710,12657.521608,-13636.499864
81.268888,1628.453072,13249.686362,-14785.643111
81.269198,-962.267725,9992.780217,-1838.629195
81.269507,-2294.638420,6143.709319,6741.640382
81.269816,-1924.535449,5625.565159,7431.126331
81.270126,740.205942,4367.215058,7737.564530
81.270435,6587.832884,3997.112087,3294.210641
81.270745,1554.432478,5699.585753,-1149.143247
81.271054,-5255.462188,11325.150913,-383.047749
81.271364,-2960.823768,14285.974681,-3907.087040
81.271673,2294.638420,14434.015869,-16317.834107
81.271982,740.205942,14878.139434,-12027.699319
81.272292,-4589.276840,14285.974681,3524.039291
81.272601,-2442.679609,8586.388927,6052.154434
81.272911,3849.070898,7698.141797,1685.410096
81.273220,5329.482782,3997.112087,4903.011187
81.273530,-814.226536,2886.803174,6741.640382
81.273839,-1998.556043,8216.285956,4060.306139
81.274148,-444.123565,12435.459826,-3753.867940
81.274458,2368.659014,13767.830521,-16394.443657
81.274767,-0.000000,13323.706956,-9729.412825
81.275077,-444.123565,10288.862594,1225.752797
81.275386,-1110.308913,7179.997637,4366.744339
81.275696,-888.247130,9326.594869,5209.449386
81.276005,1406.391290,3256.906145,6128.763984
81.276314,1702.473667,3478.967927,3140.991542
81.276624,-2664.741391,7698.141797,306.438199
81.276933,-3701.029710,11991.336260,-5669.106685
81.277243,1924.535449,15988.448347,-12563.966167
81.277552,2738.761985,15396.283594,-14019.547613
81.277862,-2442.679609,12361.439231,-3983.696590
81.278171,-4885.359217,9178.553681,5822.325785
81.278480,-0.000000,6809.894666,6971.469032
81.278790,4515.256246,3478.967927,4060.306139
81.279099,4515.256246,4441.235652,4749.792088
81.279409,-1406.391290,5625.565159,4826.401637
81.279718,-1924.535449,11621.233289,-1378.971896
81.280028,-1628.453072,15026.180623,-12410.747068
81.280337,1332.370696,14211.954086,-16088.005458
81.280646,3256.906145,12435.459826,-9652.803275
81.280956,-3404.947333,12953.603985,995.924147
81.281265,-1554.432478,8734.430116,2757.943793
81.281575,1850.514855,4515.256246,7507.735880
81.281884,4959.379811,3034.844362,3677.258390
81.282194,1406.391290,4737.318029,2681.334243
81.282503,-3404.947333,9992.780217,2911.162892
81.282812,-1184.329507,14211.954086,-8350.440928
81.283122,2072.576638,15988.448347,-17543.586904
81.283431,-148.041188,15470.304188,-10801.946522
81.283741,-3478.967927,10288.862594,1225.752797
81.284050,-4663.297435,7179.997637,5515.887586
81.284360,1998.556043,5033.400406,7890.783629
81.284669,4589.276840,4071.132681,4903.011187
81.284978,2368.659014,5477.523971,842.705048
81.285288,-3849.070898,9918.759623,995.924147
81.285597,-2664.741391,14582.057057,-9269.755526
81.285907,3849.070898,16136.489536,-19382.216099
81.286216,2516.700203,13175.665768,-12104.308868
81.286525,-1850.514855,9326.594869,2528.115143
81.286835,-5033.400406,7031.956449,9729.412825
81.287144,3330.926739,2072.576638,9882.631924
81.287454,4071.132681,-814.226536,5669.106685
81.287763,-444.123565,1924.535449,4749.792088
81.288073,1036.288319,8660.409521,2145.067394
81.288382,-0.000000,13175.665768,-8350.440928
81.288691,3182.885551,19245.354492,-14709.033562
81.289001,-0.000000,16358.551318,-13559.890315
81.289310,-2886.803174,13175.665768,-2068.457845
81.289620,-3330.926739,13471.748144,5822.325785
81.289929,962.267725,4071.132681,5592.497135
81.290239,3701.029710,3701.029710,5898.935335
81.290548,2368.659014,5255.462188,5898.935335
81.290857,-2072.576638,6513.812290,1608.800546
81.291167,-3256.906145,12657.521608,-5822.325785
81.291476,3997.112087,16358.551318,-16394.443657
81.291786,2072.576638,13619.789333,-18845.949251
81.292095,-1924.535449,11177.109724,-1378.971896
81.292405,-3330.926739,6217.729913,9422.974625
81.292714,1702.473667,2960.823768,5975.544884
81.293023,1554.432478,-0.000000,8810.098227
81.293333,1702.473667,592.164754,9269.755526
81.293642,-74.020594,5033.400406,229.828649
81.293952,370.102971,13323.706956,-5439.278036
81.294261,-1258.350101,16506.592507,-10648.727422
81.294571,2960.823768,16210.510130,-16088.005458
81.294880,-444.123565,18875.251521,-9882.631924
81.295189,-3182.885551,14137.933492,3524.039291
81.295499,-1628.453072,10288.862594,11184.994271
81.295808,3923.091493,5625.565159,5515.887586
81.296118,4071.132681,3923.091493,3370.820191
81.296427,-296.082377,3478.967927,5209.449386
81.296737,-3701.029710,6883.915261,1915.238745
81.297046,-2072.576638,14582.057057,-10342.289223
81.297355,4071.132681,15544.324782,-19382.216099
81.297665,-0.000000,13767.830521,-12487.356617
81.297974,-2516.700203,9474.636058,1762.019645
81.298284,-1036.288319,4663.297435,9346.365076
81.298593,740.205942,1924.535449,10648.727422
81.298903,3849.070898,296.082377,8733.488677
81.299212,1628.453072,2368.659014,3600.648841
81.299521,-370.102971,11103.089130,-842.705048
81.299831,-1554.432478,15026.180623,-5745.716235
81.300140,1184.329507,18357.107362,-15934.786358
81.300450,370.102971,16506.592507,-14938.862211
81.300759,-4737.318029,12657.521608,-2757.943793
81.301069,-2664.741391,11547.212695,7048.078582
81.301378,-2664.741391,8734.430116,7584.345430
81.301687,5403.503377,4145.153275,4673.182538
81.301997,3775.050304,2960.823768,6205.373534
81.302306,-3182.885551,4885.359217,4443.353888
81.302616,-3849.070898,12953.603985,-3140.991542
81.302925,2368.659014,14434.015869,-17083.929605
81.303234,4219.173869,14952.160028,-17237.148705
81.303544,-4071.132681,11991.336260,-1608.800546
81.303853,-0.000000,8438.347739,8044.002729
81.304163,-0.000000,3256.906145,8733.488677
81.304472,740.205942,3552.988522,8733.488677
81.304782,4959.379811,2738.761985,7584.345430
81.305091,444.123565,4959.379811,-459.657299
81.305400,-1554.432478,13027.624579,-5362.668486
81.305710,666.185348,17764.942608,-10725.336972
81.306019,3701.029710,18061.024985,-16854.100956
81.306329,-2590.720797,15692.365970,-8273.831378
81.306638,-5107.421000,9474.636058,6818.249932
81.306948,-1702.473667,8882.471304,9039.926876
81.307257,3923.091493,4737.318029,3294.210641
81.307566,3627.009116,3404.947333,4749.792088
81.307876,-1924.535449,4367.215058,4136.915689
81.308185,-2442.679609,9548.656652,-2757.943793
81.308495,1480.411884,12287.418637,-11338.213370
81.308804,2960.823768,15618.345376,-16547.662757
81.309114,296.082377,14656.077652,-11031.775171
81.309423,-888.247130,8216.285956,3140.991542
81.309732,-0.000000,3478.967927,8886.707777
81.310042,2146.597232,740.205942,8350.440928
81.310351,3330.926739,444.123565,8886.707777
81.310661,-296.082377,2516.700203,6358.592633
81.310970,-0.000000,11325.150913,-1838.629195
81.311280,-1036.288319,15174.221811,-10572.117872
81.311589,-666.185348,18727.210333,-13406.671215
81.311898,-370.102971,18949.272115,-11797.870669
81.312208,-1702.473667,12953.603985,-6052.154434
81.312517,-4589.276840,9474.636058,4136.915689
81.312827,-2738.761985,5625.565159,9729.412825
81.313136,5033.400406,3997.112087,4826.401637
81.313446,1184.329507,5403.503377,2374.896044
81.313755,-3404.947333,8364.327145,3753.867940
81.314064,-1184.329507,9770.718434,-5745.716235
81.314374,3775.050304,13397.727550,-18386.291952
81.314683,1036.288319,15840.407159,-12717.185267
81.314993,-2516.700203,9696.697840,1149.143247
81.315302,-518.144159,5255.462188,7201.297681
81.315612,-1998.556043,2368.659014,9346.365076
81.315921,1554.432478,740.205942,8810.098227
81.316230,3034.844362,2146.597232,5362.668486
81.316540,1110.308913,6883.915261,-229.828649
81.316849,-1184.329507,14508.036463,-3064.381992
81.317159,666.185348,19319.375086,-10035.851024
81.317468,-1036.288319,18505.148550,-15015.471761
81.317778,-2220.617826,15396.283594,-6511.811733
81.318087,-5551.544565,12213.398043,4136.915689
81.318396,-74.020594,10881.027347,1532.190996
81.318706,2960.823768,6217.729913,2911.162892
81.319015,3404.947333,5403.503377,5975.544884
81.319325,-3552.988522,5699.585753,6818.249932
81.319634,-1776.494261,9622.677246,0.000000
81.319943,2812.782580,14359.995275,-12410.747068
81.320253,1110.308913,11917.315666,-16930.710506
81.320562,-518.144159,12213.398043,-7048.078582
81.320872,-2664.741391,5847.626942,5132.839837
81.321181,-2368.659014,2886.803174,6358.592633
81.321491,2072.576638,2368.659014,6128.763984
81.321800,3330.926739,1702.473667,5592.497135
81.322109,-0.000000,3923.091493,2834.553343
81.322419,-0.000000,10881.027347,-1685.410096
81.322728,-444.123565,15322.262999,-10112.460574
81.323038,222.061783,17468.860231,-14555.814462
81.323347,-148.041188,18949.272115,-10495.508323
81.323657,-3330.926739,10584.944971,-383.047749
81.323966,-2664.741391,11399.171507,4903.011187
81.324275,740.205942,9030.512492,4673.182538
81.324585,5477.523971,3775.050304,2298.286494
81.324894,-0.000000,4071.132681,4826.401637
81.325204,-2812.782580,8364.327145,3447.429741
81.325513,370.102971,10807.006753,-5975.544884
81.325823,3478.967927,15396.283594,-17390.367805
81.326132,814.226536,12065.356855,-10418.898773
81.326441,-1702.473667,9400.615463,459.657299
81.326751,-0.000000,5255.462188,5669.106685
81.327060,-518.144159,7105.977043,9346.365076
81.327370,2368.659014,1480.411884,5362.668486
81.327679,3256.906145,1850.514855,2451.505594
81.327989,-1258.350101,7476.080014,1072.533697
81.328298,814.226536,11917.315666,-4903.011187
81.328607,-1406.391290,18283.086767,-12180.918418
81.328917,2294.638420,16284.530724,-13942.938064
81.329226,-1036.288319,13249.686362,-4443.353888
81.329536,-5033.400406,10288.862594,5132.839837
81.329845,-2368.659014,11695.253884,4136.915689
81.330155,3108.864956,5995.668130,5286.058936
81.330464,2294.638420,4885.359217,4213.525239
81.330773,-1554.432478,6661.853478,2451.505594
81.331083,-2442.679609,11991.336260,-4213.525239
81.331392,-444.123565,13619.789333,-14862.252661
81.331702,2516.700203,14063.912898,-14785.643111
81.332011,-0.000000,12731.542202,-5209.449386
81.332321,-3775.050304,7994.224174,4979.620737
81.332630,-740.205942,3552.988522,5056.230287
81.332939,1184.329507,2664.741391,3140.991542
81.333249,2812.782580,1628.453072,1762.019645
81.333558,2738.761985,6365.771101,3524.039291
81.333868,-2812.782580,10881.027347,689.485948
81.334177,962.267725,14878.139434,-7890.783629
81.334486,1998.556043,16802.674883,-14709.033562
81.334796,296.082377,13915.871710,-10878.556072
81.335105,-4293.194464,11251.130318,2451.505594
81.335415,-2664.741391,9474.636058,9116.536426
81.335724,2664.741391,5107.421000,4979.620737
81.336034,3182.885551,5699.585753,2068.457845
81.336343,-592.164754,7698.141797,4903.011187
81.336652,-4145.153275,10881.027347,-612.876398
81.336962,2294.638420,15174.221811,-11414.822920
81.337271,1924.535449,17838.963202,-15628.348159
81.337581,2072.576638,14730.098246,-11031.775171
81.337890,-2516.700203,10658.965565,306.438199
81.338200,-2220.617826,5477.523971,9116.536426
81.338509,814.226536,2146.597232,6741.640382
81.338818,2368.659014,1036.288319,3524.039291
81.339128,2590.720797,1110.308913,5898.935335
81.339437,-740.205942,5699.585753,4826.401637
81.339747,666.185348,9918.759623,-4749.792088
81.340056,-740.205942,16506.592507,-12947.013916
81.340366,518.144159,15544.324782,-12717.185267
81.340675,-1554.432478,12139.377449,-5515.887586
81.340984,-3849.070898,12953.603985,2451.505594
81.341294,-3182.885551,11991.336260,3524.039291
81.341603,2220.617826,6291.750507,3677.258390
81.341913,3552.988522,4885.359217,2987.772442
81.342222,-1628.453072,7476.080014,5132.839837
81.342532,-2812.782580,11695.253884,76.609550
81.342841,296.082377,13323.706956,-11644.651570
81.343150,962.267725,14434.015869,-15934.786358
81.343460,-666.185348,13027.624579,-7660.954980
81.343769,-1258.350101,7179.997637,1302.362347
81.344079,592.164754,6587.832884,4136.915689
81.344388,2294.638420,3849.070898,6358.592633
81.344698,3034.844362,1924.535449,6281.983084
81.345007,-296.082377,1702.473667,6588.421283
81.345316,-1776.494261,7920.203579,3447.429741
81.345626,1184.329507,14063.912898,-7660.954980
81.345935,1332.370696,15618.345376,-14172.766713
81.346245,740.205942,16506.592507,-11184.994271
81.346554,-3775.050304,11843.295072,-2987.772442
81.346864,-3182.885551,11177.109724,-1302.362347
81.347173,1110.308913,11325.150913,2528.115143
81.347482,3330.926739,5699.585753,2221.676944
81.347792,296.082377,7105.977043,4903.011187
81.348101,-3330.926739,8216.285956,4290.134789
81.348411,-1998.556043,12731.542202,-7584.345430
81.348720,666.185348,14137.933492,-15934.786358
81.349029,1554.432478,12361.439231,-12257.527968
81.349339,-1406.391290,9178.553681,-842.705048
81.349648,-1258.350101,7254.018232,3294.210641
81.349958,2368.659014,5551.544565,3217.601092
81.350267,3108.864956,1480.411884,6741.640382
81.350577,1628.453072,1850.514855,7584.345430
81.350886,-2590.720797,5033.400406,4290.134789
81.351195,1036.288319,10140.821405,-4903.011187
81.351505,1332.370696,16950.716072,-13330.061665
81.351814,1036.288319,16802.674883,-16164.615008
81.352124,-518.144159,14285.974681,-6435.202183
81.352433,-3997.112087,12805.562797,612.876398
81.352743,-1776.494261,9696.697840,4443.353888
81.353052,2886.803174,6661.853478,5975.544884
81.353361,-148.041188,3997.112087,7124.688131
81.353671,-3627.009116,6661.853478,6205.373534
81.353980,-1110.308913,12805.562797,-4979.620737
81.354290,3552.988522,13101.645173,-17160.539155
81.354599,2146.597232,12805.562797,-18769.339701
81.354909,-814.226536,12213.398043,-3140.991542
81.355218,-3849.070898,7846.182985,5669.106685
81.355527,-222.061783,4367.215058,7660.954980
81.355837,1628.453072,2220.617826,7737.564530
81.356146,1924.535449,666.185348,8656.879127
81.356456,148.041188,2812.782580,4596.572988
81.356765,-0.000000,9400.615463,-2757.943793
81.357075,-2368.659014,14878.139434,-8656.879127
81.357384,1258.350101,17542.880825,-13789.718964
81.357693,814.226536,16432.571912,-10572.117872
81.358003,-2368.659014,14137.933492,-76.609550
81.358312,-4219.173869,9918.759623,4213.525239
81.358622,1184.329507,6217.729913,6894.859482
81.358931,3256.906145,3997.112087,4443.353888
81.359241,814.226536,5255.462188,5286.058936
81.359550,-4293.194464,8808.450710,2451.505594
81.359859,-1480.411884,14582.057057,-9652.803275
81.360169,4367.215058,17690.922014,-17543.586904
81.360478,962.267725,15248.242405,-13176.842566
81.360788,-2368.659014,10436.903782,306.438199
81.361097,-3034.844362,7031.956449,5592.497135
81.361407,-74.020594,2146.597232,7048.078582
81.361716,4441.235652,518.144159,4673.182538
81.362025,2294.638420,666.185348,4903.011187
81.362335,-1554.432478,6809.894666,3830.477490
81.362644,-888.247130,11769.274478,-5209.449386
81.362954,2960.823768,17098.757260,-14709.033562
81.363263,2960.823768,16136.489536,-15551.738609
81.363572,-4071.132681,13471.748144,-3064.381992
81.363882,-3552.988522,10807.006753,5362.668486
81.364191,-0.000000,7624.121203,2681.334243
81.364501,3552.988522,5255.462188,3294.210641
81.364810,2368.659014,4145.153275,5132.839837
81.365120,-2368.659014,5847.626942,2987.772442
81.365429,-3775.050304,11177.109724,-6511.811733
81.365738,1998.556043,15396.283594,-13942.938064
81.366048,1924.535449,16062.468941,-16317.834107
81.366357,814.226536,14063.912898,-5132.839837
81.366667,-3108.864956,9326.594869,4903.011187
81.366976,-2368.659014,3182.885551,5515.887586
81.367286,5995.668130,2072.576638,4366.744339
81.367595,2294.638420,592.164754,5822.325785
81.367904,-2812.782580,4811.338623,7431.126331
81.368214,-592.164754,10140.821405,229.828649
81.368523,814.226536,13915.871710,-13713.109414
81.368833,2664.741391,19393.395680,-18922.558801
81.369142,-1184.329507,15618.345376,-9882.631924
81.369452,-2664.741391,10658.965565,1532.190996
81.369761,-3923.091493,9696.697840,7814.174080
81.370070,1184.329507,5181.441594,9193.145976
81.370380,2442.679609,2146.597232,7890.783629
81.370689,-444.123565,4737.318029,3524.039291
81.370999,-1480.411884,9474.636058,-2374.896044
81.371308,-1036.288319,14137.933492,-9959.241474
81.371618,3034.844362,16062.468941,-17390.367805
81.371927,-444.123565,14211.954086,-11721.261119
81.372236,-1998.556043,10214.842000,2681.334243
81.372546,-3478.967927,5477.523971,10495.508323
81.372855,-888.247130,3849.070898,8427.050478
81.373165,4219.173869,1036.288319,7124.688131
81.373474,1406.391290,2960.823768,4213.525239
81.373784,-740.205942,6957.935855,1072.533697
81.374093,-740.205942,14211.954086,-7201.297681
81.374402,1406.391290,17394.839637,-17007.320056
81.374712,518.144159,16654.633695,-13483.280765
81.375021,-2072.576638,12879.583391,-766.095498
81.375331,-2960.823768,7772.162391,6665.030833
81.375640,-1850.514855,8216.285956,8580.269578
81.375950,4589.276840,1332.370696,7507.735880
81.376259,2146.597232,3330.926739,3907.087040
81.376568,-2368.659014,8660.409521,2068.457845
81.376878,-962.267725,13249.686362,-6818.249932
81.377187,740.205942,18135.045579,-15628.348159
81.377497,3478.967927,15248.242405,-16700.881856
81.377806,-1184.329507,12361.439231,-3217.601092
81.378116,-4441.235652,8660.409521,8044.002729
81.378425,3034.844362,5181.441594,5209.449386
81.378734,1184.329507,518.144159,4903.011187
81.379044,1702.473667,1258.350101,7737.564530
81.379353,-74.020594,4737.318029,3753.867940
81.379663,-518.144159,12287.418637,-7507.735880
81.379972,444.123565,17172.777854,-11874.480219
81.380281,1110.308913,16358.551318,-14862.252661
81.380591,-518.144159,14137.933492,-7584.345430
81.380900,-3627.009116,9326.594869,4519.963438
81.381210,-1628.453072,6439.791695,5132.839837
81.381519,1406.391290,5181.441594,4596.572988
81.381829,3849.070898,3701.029710,5362.668486
81.382138,-1110.308913,5921.647536,5898.935335
81.382447,-1480.411884,13101.645173,-766.095498
81.382757,-1628.453072,17468.860231,-12793.794817
81.383066,1406.391290,17690.922014,-17773.415554
81.383376,-74.020594,14952.160028,-9959.241474
81.383685,-4367.215058,9992.780217,2987.772442
81.383995,-740.205942,6809.894666,8120.612279
81.384304,2294.638420,740.205942,3830.477490
81.384613,1184.329507,-888.247130,7890.783629
81.384923,666.185348,2960.823768,9346.365076
81.385232,-592.164754,9474.636058,-995.924147
81.385542,3997.112087,16876.695478,-9882.631924
81.385851,-740.205942,18283.086767,-14172.766713
81.386161,-814.226536,14434.015869,-12027.699319
81.386470,-1998.556043,7920.203579,-536.266849
81.386779,-1702.473667,8586.388927,10035.851024
81.387089,-1036.288319,3997.112087,7124.688131
81.387398,3108.864956,2812.782580,7814.174080
81.387708,1628.453072,6069.688724,5822.325785
81.388017,-1702.473667,9400.615463,-919.314598
81.388327,-0.000000,17246.798449,-7431.126331
81.388636,-666.185348,18579.169144,-15168.690860
81.388945,1924.535449,18283.086767,-15092.081311
81.389255,-0.000000,13249.686362,-3524.039291
81.389564,-3552.988522,7476.080014,6665.030833
81.389874,1258.350101,2220.617826,7584.345430
81.390183,4441.235652,296.082377,4749.792088
81.390493,1554.432478,-222.061783,6588.421283
81.390802,-962.267725,5921.647536,4979.620737
81.391111,1184.329507,11917.315666,-7660.954980
81.391421,1554.432478,17320.819043,-14709.033562
81.391730,-0.000000,17616.901420,-13789.718964
81.392040,-740.205942,12953.603985,-4136.915689
81.392349,-2960.823768,7550.100608,3447.429741
81.392659,-3701.029710,4367.215058,8197.221829
81.392968,1702.473667,4811.338623,6588.421283
81.393277,4145.153275,3478.967927,4136.915689
81.393587,1258.350101,7846.182985,1915.238745
81.393896,-3997.112087,14508.036463,-2451.505594
81.394206,962.267725,15840.407159,-10878.556072
81.394515,2664.741391,18801.230927,-17620.196454
81.394824,-1184.329507,14211.954086,-8656.879127
81.395134,-3108.864956,9178.553681,4673.182538
81.395443,-2516.700203,1554.432478,8427.050478
81.395753,2442.679609,1850.514855,4749.792088
81.396062,3256.906145,-444.123565,5132.839837
81.396372,-962.267725,-74.020594,7124.688131
81.396681,-74.020594,9252.574275,2221.676944
81.396990,-0.000000,14508.036463,-9652.803275
81.397300,-0.000000,17468.860231,-14709.033562
81.397609,444.123565,15322.262999,-10495.508323
81.397919,-2220.617826,10807.006753,-1838.629195
81.398228,-4367.215058,8216.285956,4213.525239
81.398538,-1110.308913,7105.977043,6358.592633
81.398847,2886.803174,4811.338623,3294.210641
81.399156,1184.329507,6069.688724,3524.039291
81.399466,148.041188,8956.491898,2145.067394
81.399775,-518.144159,14285.974681,-2757.943793
81.400085,-0.000000,18061.024985,-12410.747068
81.400394,1850.514855,14285.974681,-11338.213370
81.400704,-666.185348,11547.212695,-3524.039291
81.401013,-1998.556043,7402.059420,3830.477490
81.401322,-814.226536,4367.215058,5515.887586
81.401632,3849.070898,1110.308913,5056.230287
81.401941,2072.576638,814.226536,5898.935335
81.402250,-1258.350101,7476.080014,6588.421283
81.402560,-3256.906145,11991.336260,1762.019645
81.402869,3034.844362,16136.489536,-13483.280765
81.403178,2368.659014,17616.901420,-15245.300410
81.403488,-1258.350101,13915.871710,-5286.058936
81.403797,-4441.235652,10288.862594,4596.572988
81.404106,-4515.256246,9548.656652,2834.553343
81.404416,3627.009116,5403.503377,536.266849
81.404725,-0.000000,3775.050304,3370.820191
81.405034,-888.247130,6143.709319,5898.935335
81.405344,-2146.597232,11029.068536,459.657299
81.405653,2294.638420,14137.933492,-11261.603821
81.405963,740.205942,13545.768739,-13330.061665
81.406272,-148.041188,11991.336260,-6894.859482
81.406581,-1184.329507,8290.306550,766.095498
81.406891,-0.000000,5181.441594,3217.601092
81.407200,2220.617826,4367.215058,4903.011187
81.407509,518.144159,1554.432478,7967.393179
81.407819,-296.082377,4737.318029,7354.516781
81.408128,-0.000000,9030.512492,0.000000
81.408437,-518.144159,14804.118840,-8656.879127
81.408747,1036.288319,16728.654289,-14555.814462
81.409056,222.061783,16210.510130,-9806.022374
81.409365,-2960.823768,11917.315666,-1838.629195
81.409675,-4293.194464,9474.636058,5822.325785
81.409984,888.247130,7994.224174,2911.162892
81.410293,2516.700203,4145.153275,2528.115143
81.410603,592.164754,5033.400406,5975.544884
81.410912,-74.020594,8808.450710,4826.401637
81.411221,-3108.864956,10658.965565,-6435.202183
81.411531,-148.041188,13693.809927,-10955.165621
81.411840,2294.638420,13101.645173,-10572.117872
81.412149,-370.102971,9400.615463,-6128.763984
81.412459,-1850.514855,8438.347739,2298.286494
81.412768,-1110.308913,7476.080014,7124.688131
81.413077,1036.288319,3478.967927,5975.544884
81.413387,1480.411884,3775.050304,5209.449386
81.413696,-1850.514855,7994.224174,3600.648841
81.414005,1702.473667,11029.068536,-6052.154434
81.414315,1702.473667,15396.283594,-12947.013916
81.414624,1406.391290,16950.716072,-12104.308868
81.414933,-592.164754,13693.809927,-3983.696590
81.415243,-3627.009116,10140.821405,1608.800546
81.415552,-1406.391290,9918.759623,2911.162892
81.415862,2442.679609,4959.379811,3983.696590
81.416171,3256.906145,3923.091493,4673.182538
81.416480,-2220.617826,5699.585753,7354.516781
81.416790,-1110.308913,11399.171507,1608.800546
81.417099,1036.288319,12879.583391,-12487.356617
81.417408,2368.659014,13545.768739,-15934.786358
81.417718,-666.185348,14285.974681,-5898.935335
81.418027,-3330.926739,10214.842000,2221.676944
81.418336,-1184.329507,6957.935855,2374.896044
81.418646,962.267725,4515.256246,5822.325785
81.418955,1628.453072,1998.556043,5745.716235
81.419264,1258.350101,4145.153275,4366.744339
81.419574,-1480.411884,10362.883188,0.000000
81.419883,-444.123565,16210.510130,-6588.421283
81.420192,962.267725,15544.324782,-14172.766713
81.420502,1110.308913,13545.768739,-9269.755526
81.420811,-3108.864956,11177.109724,612.876398
81.421120,-1184.329507,10658.965565,4213.525239
81.421430,1110.308913,5773.606348,2451.505594
81.421739,3256.906145,3627.009116,3830.477490
81.422048,666.185348,3552.988522,6435.202183
81.422358,-1776.494261,7476.080014,4519.963438
81.422667,-370.102971,13471.748144,-5745.716235
81.422976,1406.391290,16506.592507,-14172.766713
81.423286,1332.370696,15100.201217,-12563.966167
81.423595,-1258.350101,12065.356855,-4443.353888
81.423904,-2516.700203,9104.533087,1915.238745
81.424214,-296.082377,6365.771101,3830.477490
81.424523,3552.988522,4145.153275,4596.572988
81.424833,1554.432478,1776.494261,5669.106685
81.425142,-2368.659014,6143.709319,5975.544884
81.425451,-0.000000,9696.697840,-3677.258390
81.425761,1554.432478,15174.221811,-14938.862211
81.426070,3182.885551,15100.201217,-14709.033562
81.426379,-518.144159,12435.459826,-3524.039291
81.426689,-4219.173869,12139.377449,3600.648841
81.426998,-888.247130,6513.812290,5975.544884
81.427307,3627.009116,3108.864956,3370.820191
81.427617,1850.514855,1924.535449,3677.258390
81.427926,-2368.659014,6365.771101,6894.859482
81.428235,-2442.679609,12361.439231,-229.828649
81.428545,1406.391290,14656.077652,-13483.280765
81.428854,3330.926739,16580.613101,-16394.443657
81.429163,-1480.411884,13915.871710,-6665.030833
81.429473,-3701.029710,11103.089130,1455.581446
81.429782,-1702.473667,6291.750507,1455.581446
81.430091,1998.556043,3330.926739,6818.249932
81.430401,2516.700203,1184.329507,8427.050478
81.430710,-1406.391290,1776.494261,8120.612279
81.431019,-1258.350101,8290.306550,1302.362347
81.431329,1702.473667,13545.768739,-11414.822920
81.431638,1776.494261,17024.736666,-15475.129060
81.431947,-296.082377,17098.757260,-8350.440928
81.432257,-1702.473667,13175.665768,-842.705048
81.432566,-2072.576638,8734.430116,5745.716235
81.432875,-1554.432478,6661.853478,6281.983084
81.433185,1702.473667,4219.173869,5822.325785
81.433494,1850.514855,4589.276840,2987.772442
81.433803,-1850.514855,8808.450710,-536.266849
81.434113,-3701.029710,14359.995275,-9652.803275
81.434422,2368.659014,16136.489536,-15628.348159
81.434732,2220.617826,13767.830521,-11261.603821
81.435041,296.082377,11325.150913,-306.438199
81.435350,-3849.070898,6439.791695,6281.983084
81.435660,518.144159,1702.473667,8810.098227
81.435969,1998.556043,-0.000000,7201.297681
81.436278,1110.308913,1110.308913,3677.258390
81.436588,518.144159,7476.080014,-306.438199
81.436897,740.205942,15100.201217,-7048.078582
81.437206,1480.411884,18949.272115,-14479.204912
81.437516,2368.659014,19023.292709,-14172.766713
81.437825,-2294.638420,14730.098246,-3907.087040
81.438134,-2960.823768,11029.068536,4979.620737
81.438444,-0.000000,6661.853478,5439.278036
81.438753,2738.761985,4219.173869,5592.497135
81.439062,1332.370696,3034.844362,6894.859482
81.439372,-1554.432478,5773.606348,5898.935335
81.439681,-3330.926739,11029.068536,-7584.345430
81.439990,296.082377,17468.860231,-17237.148705
81.440300,3552.988522,14730.098246,-19382.216099
81.440609,-1480.411884,11621.233289,-5898.935335
81.440918,-3330.926739,7846.182985,6281.983084
81.441228,296.082377,2516.700203,9116.536426
81.441537,2072.576638,1110.308913,8273.831378
81.441846,1702.473667,-1998.556043,8733.488677
81.442156,-0.000000,2812.782580,6435.202183
81.442465,962.267725,10658.965565,-3064.381992
81.442774,-0.000000,16580.613101,-11644.651570
81.443084,-296.082377,19985.560434,-15245.300410
81.443393,-1702.473667,15988.448347,-8810.098227
81.443702,-3182.885551,12509.480420,-1225.752797
81.444012,-1406.391290,10066.800811,2451.505594
81.444321,1258.350101,5551.544565,5209.449386
81.444631,3552.988522,2442.679609,7660.954980
81.444940,-444.123565,4515.256246,9039.926876
81.445249,-2590.720797,9918.759623,2145.067394
81.445559,-1110.308913,15100.201217,-10801.946522
81.445868,3775.050304,18135.045579,-18999.168350
81.446177,1406.391290,15396.283594,-12640.575717
81.446487,-2516.700203,10807.006753,0.000000
81.446796,-3552.988522,5921.647536,7277.907231
81.447105,222.061783,2146.597232,8427.050478
81.447415,4293.194464,1702.473667,7584.345430
81.447724,-0.000000,1258.350101,5515.887586
81.448033,-1628.453072,7846.182985,2221.676944
81.448343,-296.082377,14952.160028,-7277.907231
81.448652,2960.823768,18579.169144,-17390.367805
81.448961,370.102971,16580.613101,-13176.842566
81.449271,-3182.885551,13989.892304,-1762.019645
81.449580,-3478.967927,9400.615463,2987.772442
81.449889,-0.000000,7254.018232,4060.306139
81.450199,3330.926739,3478.967927,5515.887586
81.450508,-148.041188,3330.926739,6741.640382
81.450817,-1924.535449,8660.409521,3064.381992
81.451127,-1480.411884,14508.036463,-4673.182538
81.451436,2960.823768,16358.551318,-17773.415554
81.451745,2368.659014,14211.954086,-15934.786358
81.452055,-444.123565,11991.336260,-2604.724693
81.452364,-3552.988522,6735.874072,8044.002729
81.452673,444.123565,888.247130,9576.193725
81.452983,1554.432478,-0.000000,7431.126331
81.453292,1628.453072,-1110.308913,5975.544884
81.453602,444.123565,5773.606348,2834.553343
81.453911,-1850.514855,13249.686362,-3600.648841
81.454220,2072.576638,20429.683999,-15628.348159
81.454530,-0.000000,19615.457463,-15934.786358
81.454839,-1332.370696,17764.942608,-6818.249932
81.455148,-3775.050304,10362.883188,3064.381992
81.455458,-2368.659014,5699.585753,7507.735880
81.455767,1184.329507,2442.679609,4673.182538
81.456076,2072.576638,-296.082377,7431.126331
81.456386,-962.267725,5033.400406,6818.249932
81.456695,-1406.391290,11917.315666,-1608.800546
81.457004,2294.638420,15914.427753,-12870.404366
81.457314,1258.350101,16062.468941,-16624.272307
81.457623,-370.102971,14063.912898,-9576.193725
81.457932,-1406.391290,7476.080014,995.924147
81.458242,-888.247130,2294.638420,7967.393179
81.458551,1184.329507,1184.329507,8656.879127
81.458860,2368.659014,370.102971,7431.126331
81.459170,666.185348,4293.194464,4903.011187
81.459479,888.247130,11103.089130,306.438199
81.459788,1110.308913,17394.839637,-6818.249932
81.460098,592.164754,18875.251521,-14479.204912
81.460407,222.061783,18949.272115,-10725.336972
81.460716,-2442.679609,14211.954086,-4136.915689
81.461026,-3330.926739,9844.739029,3983.696590
81.461335,-592.164754,5773.606348,7124.688131
81.461644,1406.391290,1776.494261,5132.839837
81.461954,1924.535449,2442.679609,4979.620737
81.462263,-1332.370696,7698.141797,3983.696590
81.462572,-1850.514855,14804.118840,-8503.660028
81.462882,2442.679609,15692.365970,-16317.834107
81.463191,2294.638420,14063.912898,-13866.328514
81.463501,-962.267725,10362.883188,-2451.505594
81.463810,-1406.391290,4441.235652,5669.106685
81.464119,-666.185348,2072.576638,8427.050478
81.464429,814.226536,2664.741391,7507.735880
81.464738,4071.132681,2516.700203,3907.087040
81.465047,-148.041188,6069.688724,1302.362347
81.465357,-592.164754,12213.398043,-3983.696590
81.465666,-0.000000,17838.963202,-10572.117872
81.465975,1850.514855,18431.127956,-15321.909960
81.466285,-740.205942,15988.448347,-8810.098227
81.466594,-3849.070898,11399.171507,1378.971896
81.466903,-222.061783,5995.668130,5132.839837
81.467213,2442.679609,4589.276840,4903.011187
81.467522,2516.700203,3256.906145,5592.497135
81.467831,-296.082377,5625.565159,8120.612279
81.468141,-1406.391290,9696.697840,1225.752797
81.468450,-148.041188,11843.295072,-11031.775171
81.468759,1776.494261,15692.365970,-15092.081311
81.469069,-0.000000,13397.727550,-11414.822920
81.469378,-1184.329507,7402.059420,-1608.800546
81.469687,-3552.988522,6809.894666,4826.401637
81.469997,-370.102971,3627.009116,8503.660028
81.470306,2960.823768,3330.926739,5132.839837
81.470615,2516.700203,2886.803174,3677.258390
81.470925,-518.144159,9326.594869,2145.067394
81.471234,-2516.700203,14582.057057,-4826.401637
81.471543,-0.000000,17690.922014,-12947.013916
81.471853,444.123565,15766.386565,-13253.452115
81.472162,-1998.556043,12361.439231,-3524.039291
81.472472,-4293.194464,10732.986159,3677.258390
81.472781,-1332.370696,4219.173869,5439.278036
81.473090,3997.112087,3701.029710,3447.429741
81.473400,-1258.350101,4293.194464,7584.345430
81.473709,-2368.659014,9622.677246,5745.716235
81.474018,-518.144159,10881.027347,-5132.839837
81.474328,2664.741391,15248.242405,-15704.957709
81.474637,1554.432478,14952.160028,-11874.480219
81.474946,-1184.329507,10214.842000,-2374.896044
81.475256,-2442.679609,7179.997637,4060.306139
81.475565,-1480.411884,4737.318029,7354.516781
81.475874,2146.597232,3923.091493,5592.497135
81.476184,3478.967927,1480.411884,2681.334243
81.476493,-0.000000,5699.585753,2604.724693
81.476802,-2072.576638,12509.480420,2221.676944
81.477112,-148.041188,16284.530724,-10801.946522
81.477421,2516.700203,15248.242405,-16011.395908
81.477730,-888.247130,13249.686362,-6128.763984
81.478040,-3330.926739,10066.800811,2987.772442
81.478349,-148.041188,9844.739029,2834.553343
81.478658,1924.535449,6513.812290,3294.210641
81.478968,-518.144159,3997.112087,6588.421283
81.479277,-814.226536,5255.462188,6358.592633
81.479586,-592.164754,11251.130318,-536.266849
81.479896,296.082377,16506.592507,-11568.042020
81.480205,2072.576638,16358.551318,-15321.909960
81.480514,1332.370696,13989.892304,-11108.384721
81.480824,-1924.535449,9844.739029,0.000000
81.481133,-2960.823768,6661.853478,8733.488677
81.481442,1332.370696,3849.070898,5209.449386
81.481752,3923.091493,1406.391290,3064.381992
81.482061,2220.617826,2294.638420,5592.497135
81.482371,-1258.350101,8808.450710,3677.258390
81.482680,-962.267725,10732.986159,-4826.401637
81.482989,814.226536,15470.304188,-11951.089769
81.483299,1628.453072,16136.489536,-11874.480219
81.483608,-1110.308913,12657.521608,-4366.744339
81.483917,-6291.750507,8956.491898,6052.154434
81.484227,-444.123565,7328.038826,4443.353888
81.484536,3552.988522,4663.297435,2451.505594
81.484845,370.102971,5477.523971,4903.011187
81.485155,-2368.659014,9474.636058,6511.811733
81.485464,-4589.276840,14137.933492,-1378.971896
81.485773,1628.453072,16580.613101,-15475.129060
81.486083,1776.494261,13989.892304,-13866.328514
81.486392,-962.267725,11473.192101,-5209.449386
81.486701,-1776.494261,7254.018232,2145.067394
81.487011,-148.041188,4737.318029,6971.469032
81.487320,1110.308913,1258.350101,6818.249932
81.487629,1628.453072,148.041188,7354.516781
81.487939,814.226536,2738.761985,7354.516781
81.488248,1480.411884,7698.141797,-1991.848295
81.488557,814.226536,16580.613101,-10112.460574
81.488867,1406.391290,16654.633695,-14632.424012
81.489176,-592.164754,16506.592507,-9959.241474
81.489485,-3997.112087,14656.077652,-1149.143247
81.489795,-1850.514855,11103.089130,2298.286494
81.490104,2072.576638,7698.141797,2374.896044
81.490413,1036.288319,4959.379811,5362.668486
81.490723,-1184.329507,6291.750507,8810.098227
81.491032,-2442.679609,9474.636058,5515.887586
81.491342,1850.514855,13915.871710,-10342.289223
81.491651,3997.112087,13101.645173,-18079.853753
81.491960,592.164754,12731.542202,-9882.631924
81.492270,-2368.659014,9918.759623,3140.991542
81.492579,-2590.720797,5995.668130,5822.325785
81.492888,1406.391290,2516.700203,5209.449386
81.493198,2220.617826,1332.370696,6052.154434
81.493507,592.164754,888.247130,6588.421283
81.493816,-296.082377,7698.141797,2987.772442
81.494126,-0.000000,14211.954086,-5209.449386
81.494435,370.102971,18431.127956,-13253.452115
81.494744,1924.535449,17098.757260,-12870.404366
81.495054,-2072.576638,15618.345376,-5669.106685
81.495363,-4071.132681,12731.542202,1378.971896
81.495672,-148.041188,7624.121203,5439.278036
81.495982,3330.926739,4885.359217,4443.353888
81.496291,740.205942,3034.844362,6971.469032
81.496600,-3923.091493,6883.915261,8580.269578
81.496910,-1554.432478,11325.150913,-1991.848295
81.497219,4885.359217,14137.933492,-19612.044749
81.497528,2294.638420,13249.686362,-17160.539155
81.497838,-2368.659014,12583.501014,-3294.210641
81.498147,-296.082377,6957.935855,3064.381992
81.498456,666.185348,3997.112087,6205.373534
81.498766,2146.597232,2368.659014,8733.488677
81.499075,2664.741391,-370.102971,8656.879127
81.499384,814.226536,2812.782580,5898.935335
81.499694,-740.205942,10955.047942,-842.705048
81.500003,888.247130,16654.633695,-11797.870669
81.500312,1850.514855,18801.230927,-17696.806004
81.500622,-1554.432478,18357.107362,-9882.631924
81.500931,-3552.988522,13767.830521,919.314598
81.501241,-2072.576638,10658.965565,2987.772442
81.501550,1036.288319,5773.606348,4060.306139
81.501859,2590.720797,2294.638420,8656.879127
81.502169,-2294.638420,3256.906145,9959.241474
81.502478,-2442.679609,9548.656652,-3447.429741
81.502787,1924.535449,13693.809927,-11031.775171
81.503097,2886.803174,15914.427753,-17696.806004
81.503342,148.041188,13471.748144,-10572.117872
81.503651,-1258.350101,10881.027347,1302.362347
81.503960,-2886.803174,5625.565159,5209.449386
81.504270,740.205942,2220.617826,7048.078582
81.504579,2812.782580,-666.185348,6971.469032
81.504888,888.247130,148.041188,6052.154434
81.505198,-1406.391290,6513.812290,4903.011187
81.505507,296.082377,13545.768739,-6665.030833
81.505816,2368.659014,18061.024985,-17466.977354
81.506126,296.082377,17024.736666,-13406.671215
81.506435,-3182.885551,15470.304188,-2374.896044
81.506744,-4663.297435,8734.430116,7967.393179
81.507054,-0.000000,6883.915261,4749.792088
81.507363,3034.844362,4145.153275,5515.887586
81.507672,222.061783,2886.803174,7737.564530
81.507981,-2738.761985,7624.121203,5439.278036
81.508291,-814.226536,14211.954086,-6894.859482
81.508600,3552.988522,18505.148550,-18692.730151
81.508909,888.247130,15914.427753,-15245.300410
81.509219,-1924.535449,12435.459826,-3983.696590
81.509528,-1702.473667,10584.944971,4903.011187
81.509837,148.041188,3330.926739,5286.058936
81.510147,1850.514855,1110.308913,8503.660028
81.510456,2738.761985,-1110.308913,9499.584175
81.510765,-1036.288319,3552.988522,7277.907231
81.511075,-0.000000,10066.800811,1072.533697
81.511384,2146.597232,17764.942608,-13406.671215
81.511693,2072.576638,18505.148550,-20454.749797
81.512003,-2146.597232,16580.613101,-10725.336972
81.512312,-5181.441594,11769.274478,919.314598
81.512621,-1332.370696,6661.853478,4136.915689
81.512931,2368.659014,5107.421000,5132.839837
81.513240,1998.556043,1332.370696,8273.831378
81.513549,-1702.473667,3256.906145,10189.070123
81.513859,-3627.009116,11177.109724,1072.533697
81.514168,2072.576638,15322.262999,-11874.480219
81.514477,3034.844362,16950.716072,-19458.825649
81.514787,-1776.494261,16358.551318,-11721.261119
81.515096,-1850.514855,10436.903782,-459.657299
81.515405,-1850.514855,6735.874072,4060.306139
81.515715,592.164754,3997.112087,6665.030833
81.516024,2516.700203,-222.061783,9499.584175
81.516333,1036.288319,1332.370696,9576.193725
81.516643,-1332.370696,4811.338623,7354.516781
81.516952,444.123565,14508.036463,-7431.126331
81.517261,1850.514855,19467.416275,-16624.272307
81.517571,1480.411884,19245.354492,-14709.033562
81.517880,-3182.885551,13471.748144,-3370.820191
81.518189,-4071.132681,10436.903782,3983.696590
81.518499,444.123565,6587.832884,4366.744339
81.518808,2368.659014,3923.091493,4903.011187
81.519117,-814.226536,2294.638420,9499.584175
81.519427,-3404.947333,7105.977043,6052.154434
81.519736,444.123565,11917.315666,-8120.612279
81.520045,4293.194464,16580.613101,-17160.539155
81.520354,2072.576638,13619.789333,-14555.814462
81.520664,-2590.720797,11251.130318,-2298.286494
81.520973,-1702.473667,9400.615463,10418.898773
81.521282,-666.185348,3256.906145,5822.325785
81.521592,2220.617826,2146.597232,6052.154434
81.521901,1036.288319,-592.164754,7814.174080
81.522210,-518.144159,5329.482782,3753.867940
81.522520,962.267725,13471.748144,-3064.381992
81.522829,1406.391290,17172.777854,-12870.404366
81.523138,962.267725,18949.272115,-15092.081311
81.523448,-1110.308913,15026.180623,-6665.030833
81.523757,-2886.803174,11843.295072,1532.190996
81.524066,-74.020594,7328.038826,5132.839837
81.524376,2960.823768,3256.906145,4749.792088
81.524685,1628.453072,2072.576638,5822.325785
81.524994,-3404.947333,5107.421000,8580.269578
81.525304,-592.164754,14137.933492,-612.876398
81.525613,3034.844362,15396.283594,-15168.690860
81.525922,2294.638420,17987.004391,-16700.881856
81.526232,-2516.700203,13915.871710,-5592.497135
81.526541,-2886.803174,10140.821405,1762.019645
81.526850,-1406.391290,4737.318029,5132.839837
81.527160,370.102971,2368.659014,6511.811733
81.527469,2664.741391,-370.102971,5745.716235
81.527778,962.267725,1998.556043,4366.744339
81.528088,222.061783,8364.327145,2987.772442
81.528397,-888.247130,14285.974681,-5822.325785
81.528706,2220.617826,18949.272115,-14709.033562
81.529016,666.185348,15322.262999,-12104.308868
81.529325,-3701.029710,11917.315666,-919.314598
81.529634,-2812.782580,8660.409521,4136.915689
81.529944,-444.123565,6143.709319,2528.115143
81.530253,2812.782580,2812.782580,3217.601092
81.530562,-1258.350101,3552.988522,8197.221829
81.530872,-1850.514855,10066.800811,1838.629195
81.531181,-222.061783,13767.830521,-7660.954980
81.531490,2886.803174,17098.757260,-15015.471761
81.531800,1702.473667,14359.995275,-11338.213370
81.532109,-888.247130,11473.192101,-3064.381992
81.532418,-5921.647536,8956.491898,2987.772442
81.532727,-666.185348,4885.359217,4903.011187
81.533037,4441.235652,2294.638420,2145.067394
81.533346,1998.556043,1332.370696,4290.134789
81.533655,-1036.288319,7179.997637,6052.154434
81.533965,-666.185348,11473.192101,-2451.505594
81.534274,2220.617826,15988.448347,-12870.404366
81.534583,2590.720797,16062.468941,-12947.013916
81.534893,-592.164754,12287.418637,-5132.839837
81.535202,-740.205942,9252.574275,1149.143247
81.535511,-814.226536,6957.935855,4213.525239
81.535821,2812.782580,6069.688724,2221.676944
81.536130,962.267725,5033.400406,4060.306139
81.536439,-1184.329507,7846.182985,5669.106685
81.536749,-2072.576638,12361.439231,-3830.477490
81.537058,3330.926739,15322.262999,-14096.157163
81.537367,2664.741391,15248.242405,-13636.499864
81.537677,-1480.411884,10955.047942,-4366.744339
81.537986,-2072.576638,8882.471304,995.924147
81.538295,-1406.391290,4811.338623,5209.449386
81.538605,2072.576638,3404.947333,4903.011187
81.538914,2146.597232,1332.370696,4979.620737
81.539223,518.144159,4663.297435,4749.792088
81.539533,-888.247130,9696.697840,-842.705048
81.539842,-444.123565,15174.221811,-8656.879127
81.540151,1998.556043,17320.819043,-14709.033562
81.540461,2146.597232,16062.468941,-11184.994271
81.540770,-3330.926739,11325.150913,76.609550
81.541079,-3330.926739,9030.512492,8580.269578
81.541389,1480.411884,6365.771101,2834.553343
81.541698,3108.864956,2368.659014,689.485948
81.542007,370.102971,5847.626942,7201.297681
81.542317,-3034.844362,9622.677246,4443.353888
81.542626,-74.020594,13471.748144,-7890.783629
81.542935,3627.009116,17246.798449,-14709.033562
81.543245,1406.391290,14211.954086,-10342.289223
81.543554,-2146.597232,9326.594869,-2681.334243
81.543863,-2812.782580,5625.565159,5286.058936
81.544173,-222.061783,3849.070898,5898.935335
81.544482,1480.411884,3627.009116,6052.154434
81.544791,2960.823768,3034.844362,5898.935335
81.545100,-1184.329507,6735.874072,4749.792088
81.545410,-0.000000,10436.903782,-2987.772442
81.545719,592.164754,15766.386565,-10112.460574
81.546028,1406.391290,18653.189738,-13023.623466
81.546338,-2368.659014,12287.418637,-5745.716235
81.546647,-3478.967927,13693.809927,1915.238745
81.546956,-814.226536,8364.327145,1762.019645
81.547266,3330.926739,5921.647536,-1532.190996
81.547575,1776.494261,4737.318029,4826.401637
81.547884,-2664.741391,7031.956449,9039.926876
81.548194,-2516.700203,12731.542202,2221.676944
81.548503,2664.741391,13545.768739,-11951.089769
81.548812,3108.864956,13101.645173,-14632.424012
81.549122,740.205942,10436.903782,-6358.592633
81.549431,-4737.318029,8808.450710,689.485948
81.549740,-0.000000,7994.224174,4290.134789
81.550050,1702.473667,5033.400406,4136.915689
81.550359,3404.947333,3182.885551,4903.011187
81.550668,-0.000000,3997.112087,4903.011187
81.550978,-2738.761985,11325.150913,2987.772442
81.551287,222.061783,14359.995275,-8120.612279
81.551596,1480.411884,16728.654289,-14555.814462
81.551906,1480.411884,15914.427753,-11184.994271
81.552215,-3849.070898,11399.171507,0.000000
81.552524,-2664.741391,9252.574275,3524.039291
81.552834,2442.679609,5699.585753,1838.629195
81.553143,2812.782580,4737.318029,1149.143247
81.553452,-2368.659014,4811.338623,8273.831378
81.553762,-2960.823768,7328.038826,5822.325785
81.554071,1554.432478,11621.233289,-9039.926876
81.554380,2294.638420,13323.706956,-17160.539155
81.554690,1776.494261,13471.748144,-9806.022374
81.554999,-2368.659014,9104.533087,76.609550
81.555308,-4737.318029,7105.977043,4136.915689
81.555618,1110.308913,4811.338623,5669.106685
81.555927,2146.597232,2146.597232,3217.601092
81.556236,2516.700203,2146.597232,3907.087040
81.556546,-1406.391290,6513.812290,2451.505594
81.556855,-1184.329507,13027.624579,-2911.162892
81.557164,1628.453072,17542.880825,-12717.185267
81.557473,1702.473667,17690.922014,-12793.794817
81.557783,-2886.803174,14063.912898,-3983.696590
81.558092,-4293.194464,11843.295072,2221.676944
81.558401,740.205942,6809.894666,2298.286494
81.558711,3034.844362,4219.173869,1532.190996
81.559020,814.226536,3701.029710,5745.716235
81.559329,-3478.967927,4589.276840,9576.193725
81.559639,-1258.350101,11251.130318,536.266849
81.559948,4145.153275,14656.077652,-14402.595362
81.560257,2886.803174,14359.995275,-13866.328514
81.560567,-2368.659014,12879.583391,-3370.820191
81.560876,-2738.761985,11325.150913,-383.047749
81.561185,-0.000000,5995.668130,2221.676944
81.561495,1332.370696,5995.668130,3140.991542
81.561804,3182.885551,3923.091493,4903.011187
81.562113,-148.041188,2368.659014,5439.278036
81.562423,-1184.329507,9326.594869,153.219100
81.562732,666.185348,13915.871710,-6818.249932
81.563041,3701.029710,15544.324782,-14709.033562
81.563351,296.082377,15396.283594,-10035.851024
81.563660,-3701.029710,12361.439231,-1685.410096
81.563969,-962.267725,9696.697840,2911.162892
81.564279,2220.617826,5847.626942,536.266849
81.564588,2738.761985,3478.967927,3907.087040
81.564897,-1850.514855,4219.173869,9193.145976
81.565207,-4885.359217,10362.883188,4749.792088
81.565516,222.061783,14285.974681,-8273.831378
81.565825,3478.967927,16210.510130,-16471.053207
81.566135,1406.391290,14359.995275,-12410.747068
81.566444,-1850.514855,10658.965565,-306.438199
81.566753,-2220.617826,9622.677246,6052.154434
81.567063,370.102971,5699.585753,5056.230287
81.567372,3923.091493,3330.926739,4903.011187
81.567681,518.144159,2442.679609,7124.688131
81.567991,-1628.453072,6291.750507,4596.572988
81.568300,-1184.329507,11251.130318,-4903.011187
81.568609,1702.473667,16432.571912,-14402.595362
81.568919,1702.473667,17098.757260,-13789.718964
81.569228,-2960.823768,14434.015869,-4136.915689
81.569537,-4589.276840,11473.192101,2298.286494
81.569846,-222.061783,6957.935855,3677.258390
81.570156,4737.318029,4589.276840,2451.505594
81.570465,222.061783,1924.535449,6971.469032
81.570774,-3923.091493,5255.462188,8810.098227
81.571084,-1776.494261,10584.944971,-1378.971896
81.571393,3478.967927,14656.077652,-15551.738609
81.571702,3034.844362,14508.036463,-16854.100956
81.572012,-1924.535449,12731.542202,-6052.154434
81.572321,-5403.503377,9992.780217,5209.449386
81.572630,-222.061783,6069.688724,6205.373534
81.572940,2442.679609,3552.988522,4596.572988
81.573249,1998.556043,1406.391290,6894.859482
81.573558,-814.226536,3923.091493,8120.612279
81.573868,444.123565,8882.471304,-2604.724693
81.574177,962.267725,15914.427753,-11031.775171
81.574486,2368.659014,18135.045579,-14172.766713
81.574796,-2072.576638,17172.777854,-8810.098227
81.575105,-3478.967927,14508.036463,-4826.401637
81.575414,-2812.782580,9918.759623,1072.533697
81.575724,1702.473667,5551.544565,2757.943793
81.576033,2960.823768,3775.050304,5669.106685
81.576342,-2146.597232,3108.864956,8044.002729
81.576652,-296.082377,6957.935855,4290.134789
81.576961,2072.576638,13767.830521,-8810.098227
81.577270,2664.741391,14804.118840,-17007.320056
81.577580,1776.494261,12657.521608,-12487.356617
81.577889,-1924.535449,9918.759623,-1991.848295
81.578198,-740.205942,8364.327145,4443.353888
81.578508,444.123565,2960.823768,7431.126331
81.578817,3108.864956,1406.391290,7660.954980
81.579126,-222.061783,740.205942,7277.907231
81.579436,222.061783,4811.338623,2451.505594
81.579745,-740.205942,14434.015869,-5362.668486
81.580054,1554.432478,18727.210333,-16394.443657
81.580364,1924.535449,19541.436869,-16088.005458
81.580673,-2220.617826,14656.077652,-5056.230287
81.580982,-3701.029710,10140.821405,2604.724693
81.581292,148.041188,6957.935855,5132.839837
81.581601,2516.700203,3330.926739,4903.011187
81.581910,2220.617826,3256.906145,8044.002729
81.582219,-2442.679609,4219.173869,9346.365076
81.582529,-2220.617826,11695.253884,-2681.334243
81.582838,2590.720797,16654.633695,-15475.129060
81.583147,3182.885551,13693.809927,-17313.758255
81.583457,-1332.370696,13249.686362,-7507.735880
81.583766,-2294.638420,9474.636058,2298.286494
81.584075,-1184.329507,3775.050304,7584.345430
81.584385,2072.576638,888.247130,7431.126331
81.584694,2146.597232,-148.041188,7354.516781
81.585003,-814.226536,3108.864956,7048.078582
81.585313,-444.123565,11695.253884,2528.115143
81.585622,1480.411884,18357.107362,-11491.432470
81.585931,2738.761985,17690.922014,-15858.176809
81.586241,-1554.432478,18357.107362,-9039.926876
81.586550,-4737.318029,11325.150913,0.000000
81.586859,-1258.350101,9252.574275,3600.648841
81.587169,2220.617826,5181.441594,4443.353888
81.587478,1924.535449,3552.988522,6281.983084
81.587787,-2738.761985,3478.967927,10265.679673
81.588097,-888.247130,9474.636058,3217.601092
81.588406,2812.782580,14878.139434,-11721.261119
81.588715,5699.585753,15322.262999,-20301.530697
81.589025,-296.082377,15914.427753,-11874.480219
81.589334,-4515.256246,9770.718434,2604.724693
81.589643,-3404.947333,7105.977043,6205.373534
81.589953,1924.535449,2516.700203,6435.202183
81.590262,3034.844362,740.205942,7354.516781
81.590571,1036.288319,-0.000000,6588.421283
81.590881,-814.226536,5773.606348,3064.381992
81.591190,444.123565,14952.160028,-5669.106685
81.591499,888.247130,18875.251521,-15628.348159
81.591809,2368.659014,18653.189738,-14709.033562
81.592118,-3849.070898,14063.912898,-3447.429741
81.592427,-3701.029710,10362.883188,1608.800546
81.592737,296.082377,6365.771101,2834.553343
81.593046,2960.823768,5033.400406,3830.477490
81.593355,-814.226536,4219.173869,8503.660028
81.593665,-2738.761985,7328.038826,2987.772442
81.593974,1036.288319,11251.130318,-7048.078582
81.594283,3997.112087,14730.098246,-15398.519510
81.594592,2368.659014,13619.789333,-12257.527968
81.594902,-1998.556043,10807.006753,-1072.533697
81.595211,-1702.473667,5995.668130,6894.859482
81.595520,-1258.350101,2294.638420,6741.640382
81.595830,3404.947333,2146.597232,6052.154434
81.596139,2886.803174,-370.102971,4749.792088
81.596448,-962.267725,5255.462188,3140.991542
81.596758,-814.226536,14063.912898,-383.047749
81.597067,296.082377,18875.251521,-11951.089769
81.597376,2368.659014,20799.786970,-17773.415554
81.597686,-962.267725,17246.798449,-8656.879127
81.597995,-5033.400406,13915.871710,995.924147
81.598304,-1110.308913,7772.162391,5745.716235
81.598614,3256.906145,4219.173869,3907.087040
81.598923,1554.432478,3478.967927,5822.325785
81.599232,-1702.473667,3256.906145,8427.050478
81.599542,-1998.556043,8734.430116,76.609550
81.599851,888.247130,13989.892304,-11261.603821
81.600160,3552.988522,15322.262999,-14862.252661
81.600470,-296.082377,11029.068536,-9806.022374
81.600779,-2294.638420,7846.182985,-2757.943793
81.601088,-2442.679609,4737.318029,5286.058936
81.601398,1924.535449,4885.359217,6205.373534
81.601707,3997.112087,2072.576638,6205.373534
81.602016,-370.102971,4589.276840,6435.202183
81.602326,-370.102971,11103.089130,2145.067394
81.602635,1554.432478,15766.386565,-6511.811733
81.602944,2590.720797,19319.375086,-15168.690860
81.603254,2072.576638,17912.983796,-12563.966167
81.603563,-5921.647536,13915.871710,-1762.019645
81.603872,-4663.297435,10362.883188,3983.696590
81.604182,1332.370696,6217.729913,1685.410096
81.604491,3034.844362,4071.132681,766.095498
81.604800,-370.102971,4071.132681,6511.811733
81.605110,-2146.597232,6883.915261,9499.584175
81.605419,1332.370696,12361.439231,-6052.154434
81.605728,4885.359217,12879.583391,-14249.376263
81.606038,2368.659014,11843.295072,-10878.556072
81.606347,-888.247130,7698.141797,612.876398
81.606656,-4737.318029,5107.421000,4213.525239
81.606965,-1850.514855,2886.803174,6435.202183
81.607275,3552.988522,4293.194464,2451.505594
81.607584,3108.864956,4219.173869,1378.971896
81.607893,-444.123565,7846.182985,1608.800546
81.608203,-2516.700203,12361.439231,-2681.334243
81.608512,-666.185348,17838.963202,-10725.336972
81.608821,2072.576638,18653.189738,-13100.233016
81.609131,-148.041188,14656.077652,-7201.297681
81.609440,-4959.379811,10807.006753,4366.744339
81.609749,-518.144159,7105.977043,5592.497135
81.610059,3627.009116,5477.523971,3140.991542
81.610368,2294.638420,2960.823768,4903.011187
81.610677,-1110.308913,6883.915261,7737.564530
81.610987,-888.247130,9104.533087,-459.657299
81.611296,2664.741391,12583.501014,-10495.508323
81.611605,2368.659014,15692.365970,-14325.985813
81.611915,-1036.288319,10658.965565,-8963.317327
81.612224,-4737.318029,8660.409521,-4443.353888
81.612533,-2960.823768,6069.688724,3983.696590
81.612843,2072.576638,5033.400406,2528.115143
81.613152,4441.235652,2664.741391,3524.039291
81.613461,296.082377,5699.585753,6741.640382
81.613771,1258.350101,7328.038826,3064.381992
81.614080,-0.000000,14211.954086,-4136.915689
81.614389,3256.906145,17764.942608,-13253.452115
81.614699,2220.617826,15026.180623,-11874.480219
81.615008,-3034.844362,11547.212695,-2528.115143
81.615317,-3775.050304,10436.903782,4673.182538
81.615627,1480.411884,6661.853478,2451.505594
81.615936,2146.597232,5403.503377,2911.162892
81.616245,-0.000000,7402.059420,7048.078582
81.616555,-1554.432478,7254.018232,4903.011187
81.616864,518.144159,12213.398043,-6205.373534
81.617173,740.205942,14878.139434,-12563.966167
81.617483,2664.741391,14434.015869,-12487.356617
81.617792,-814.226536,10214.842000,-4366.744339
81.618101,-3701.029710,6291.750507,4213.525239
81.618411,-592.164754,4885.359217,4749.792088
81.618720,4885.359217,1998.556043,2298.286494
81.619029,3034.844362,2738.761985,4290.134789
81.619338,-2072.576638,4071.132681,7967.393179
81.619648,-1850.514855,9696.697840,-1072.533697
81.619957,2368.659014,14582.057057,-10418.898773
81.620266,3034.844362,15322.262999,-13330.061665
81.620576,-1332.370696,13841.851115,-6741.640382
81.620885,-5699.585753,10140.821405,3600.648841
81.621194,-1184.329507,9400.615463,2451.505594
81.621504,2664.741391,7772.162391,229.828649
81.621813,2072.576638,7328.038826,3447.429741
81.622122,-3775.050304,7624.121203,7431.126331
81.622432,-1554.432478,13175.665768,1072.533697
81.622741,2960.823768,13323.706956,-12257.527968
81.623050,3330.926739,14211.954086,-13100.233016
81.623360,370.102971,11399.171507,-4673.182538
81.623669,-3997.112087,7402.059420,1762.019645
81.623978,-962.267725,4959.379811,4136.915689
81.624288,2442.679609,3330.926739,3830.477490
81.624597,3552.988522,1924.535449,3830.477490
81.624906,740.205942,2886.803174,4903.011187
81.625216,-4737.318029,9252.574275,5669.106685
81.625525,-0.000000,14582.057057,-6128.763984
81.625834,3775.050304,17542.880825,-15245.300410
81.626144,1998.556043,16136.489536,-10878.556072
81.626453,-4811.338623,11473.192101,3217.601092
81.626762,-3849.070898,10066.800811,5975.544884
81.627072,1702.473667,9178.553681,2911.162892
81.627381,3478.967927,6143.709319,1378.971896
81.627690,-962.267725,5477.523971,5592.497135
81.628000,-3552.988522,7031.956449,229.828649
81.628309,1184.329507,12805.562797,-8503.660028
81.628618,1924.535449,14730.098246,-14555.814462
81.628928,2072.576638,14730.098246,-9959.241474
81.629237,-888.247130,9918.759623,-229.828649
81.629546,-4737.318029,4811.338623,5362.668486
81.629856,962.267725,2664.741391,5822.325785
81.630165,4293.194464,1998.556043,4290.134789
81.630474,3923.091493,1406.391290,4903.011187
81.630784,-888.247130,4811.338623,7354.516781
81.631093,-1776.494261,12361.439231,-766.095498
81.631402,2738.761985,16284.530724,-10342.289223
81.631711,1924.535449,19467.416275,-13559.890315
81.632021,-3182.885551,16062.468941,-6588.421283
81.632330,-4293.194464,10214.842000,-459.657299
81.632639,-666.185348,9474.636058,919.314598
81.632949,3034.844362,7772.162391,689.485948
81.633258,370.102971,4959.379811,4366.744339
81.633567,-3923.091493,6587.832884,7967.393179
81.633877,-1332.370696,11103.089130,2911.162892
81.634186,4145.153275,14804.118840,-11261.603821
81.634495,4367.215058,12509.480420,-14632.424012
81.634805,-1036.288319,9030.512492,-6511.811733
81.635114,-2220.617826,5329.482782,3064.381992
81.635423,-296.082377,4219.173869,4903.011187
81.635733,4515.256246,4219.173869,1838.629195
81.636042,3997.112087,2590.720797,4136.915689
81.636351,-370.102971,4515.256246,7431.126331
81.636661,-2516.700203,9770.718434,1762.019645
81.636970,296.082377,15322.262999,-8580.269578
81.637279,2738.761985,17987.004391,-15858.176809
81.637589,1184.329507,17320.819043,-12487.356617
81.637898,-3404.947333,13767.830521,-4136.915689
81.638207,-2368.659014,10955.047942,3370.820191
81.638517,2442.679609,9030.512492,3677.258390
81.638826,2516.700203,4959.379811,4366.744339
81.639135,-1998.556043,3404.947333,7967.393179
81.639445,-3775.050304,8364.327145,4979.620737
81.639754,1628.453072,11325.150913,-8503.660028
81.640063,4515.256246,14137.933492,-16624.272307
81.640373,-666.185348,11769.274478,-10878.556072
81.640682,-3552.988522,9474.636058,0.000000
81.640991,-1628.453072,5477.523971,4213.525239
81.641301,814.226536,3923.091493,4290.134789
81.641610,3330.926739,3182.885551,5286.058936
81.641919,1258.350101,-148.041188,5898.935335
81.642229,-4885.359217,5551.544565,7584.345430
81.642538,-1628.453072,12435.459826,-1455.581446
81.642847,2294.638420,16876.695478,-14402.595362
81.643157,3404.947333,18061.024985,-16930.710506
81.643466,-3330.926739,14730.098246,-4673.182538
81.643775,-5551.544565,11177.109724,2987.772442
81.644084,-74.020594,7624.121203,3447.429741
81.644394,3404.947333,7105.977043,3907.087040
81.644703,148.041188,3330.926739,7431.126331
81.645012,-3182.885551,5625.565159,8503.660028
81.645322,-370.102971,10658.965565,-2528.115143
81.645631,4589.276840,15322.262999,-14709.033562
81.645940,3552.988522,15322.262999,-15321.909960
81.646250,-1998.556043,14211.954086,-4519.963438
81.646559,-3701.029710,9844.739029,2374.896044
81.646868,-444.123565,4663.297435,4749.792088
81.647178,4219.173869,1776.494261,5056.230287
81.647487,2368.659014,888.247130,6205.373534
81.647796,-1036.288319,3849.070898,6588.421283
81.648106,-4145.153275,10955.047942,0.000000
81.648415,2738.761985,15544.324782,-10801.946522
81.648724,2294.638420,16802.674883,-16011.395908
81.649034,-370.102971,16210.510130,-10648.727422
81.649343,-5255.462188,12065.356855,-383.047749
81.649652,-1998.556043,9400.615463,5132.839837
81.649962,1332.370696,5847.626942,6665.030833
81.650271,1850.514855,4145.153275,5132.839837
81.650580,-2590.720797,4737.318029,4290.134789
81.650890,814.226536,9474.636058,-766.095498
81.651199,2812.782580,14508.036463,-12104.308868
81.651508,3182.885551,16580.613101,-16700.881856
81.651818,148.041188,14804.118840,-7354.516781
81.652127,-3701.029710,9252.574275,3600.648841
81.652436,-2294.638420,5255.462188,5132.839837
81.652746,2886.803174,666.185348,5669.106685
81.653055,1850.514855,1406.391290,5822.325785
81.653364,518.144159,1110.308913,4519.963438
81.653674,-2590.720797,6513.812290,1762.019645
81.653983,-666.185348,16432.571912,-6665.030833
81.654292,1110.308913,20651.745782,-15934.786358
81.654602,2664.741391,19615.457463,-15321.909960
81.654911,-1924.535449,13767.830521,-4366.744339
81.655220,-3701.029710,8068.244768,4443.353888
81.655530,-222.061783,3923.091493,7967.393179
81.655839,2960.823768,2664.741391,6894.859482
81.656148,2368.659014,1924.535449,6741.640382
81.656457,-740.205942,4811.338623,5822.325785
81.656767,296.082377,13101.645173,-3447.429741
81.657076,222.061783,16728.654289,-15934.786358
81.657385,1258.350101,16950.716072,-16624.272307
81.657695,-1776.494261,14063.912898,-6052.154434
81.658004,-1924.535449,7994.224174,3830.477490
81.658313,-666.185348,2072.576638,5362.668486
81.658623,2072.576638,2516.700203,9346.365076
81.658932,2886.803174,1110.308913,9422.974625
81.659241,-1480.411884,5329.482782,5745.716235
81.659551,296.082377,11547.212695,0.000000
81.659860,1702.473667,15914.427753,-12410.747068
81.660169,4071.132681,18653.189738,-17160.539155
81.660479,-814.226536,16210.510130,-8656.879127
81.660788,-4293.194464,12731.542202,-1378.971896
81.661097,-2886.803174,8068.244768,4749.792088
81.661407,3034.844362,3404.947333,4443.353888
81.661716,1332.370696,2368.659014,7124.688131
81.662025,-2220.617826,4515.256246,6588.421283
81.662335,-518.144159,9918.759623,-153.219100
81.662644,1480.411884,16580.613101,-10418.898773
81.662953,4071.132681,16950.716072,-16088.005458
81.663263,-0.000000,14582.057057,-11721.261119
81.663572,-2886.803174,10881.027347,2528.115143
81.663881,-2812.782580,5625.565159,6588.421283
81.664191,1628.453072,2812.782580,6971.469032
81.664500,3330.926739,1258.350101,6511.811733
81.664809,1184.329507,2516.700203,6894.859482
81.665119,-3849.070898,6291.750507,-76.609550
81.665428,-444.123565,14063.912898,-8273.831378
81.665737,2886.803174,17394.839637,-17696.806004
81.666047,1998.556043,17024.736666,-13483.280765
81.666356,-2146.597232,12213.398043,-2374.896044
81.666665,-4737.318029,6439.791695,6741.640382
81.666975,888.247130,5033.400406,8120.612279
81.667284,3330.926739,4885.359217,6128.763984
81.667593,1628.453072,3627.009116,5209.449386
81.667903,-2220.617826,7994.224174,2298.286494
81.668212,-1184.329507,15322.262999,-4903.011187
81.668521,2294.638420,18727.210333,-18079.853753
81.668830,2590.720797,16580.613101,-15475.129060
81.669140,-2442.679609,12213.398043,-3830.477490
81.669449,-4219.173869,8290.306550,2604.724693
81.669758,1184.329507,3997.112087,6052.154434
81.670068,1480.411884,2590.720797,6665.030833
81.670377,2812.782580,-296.082377,7354.516781
81.670686,-1184.329507,3034.844362,8810.098227
81.670996,-1258.350101,11991.336260,-2604.724693
81.671305,1554.432478,16802.674883,-11951.089769
81.671614,1480.411884,18653.189738,-14862.252661
81.671924,518.144159,12953.603985,-6971.469032
81.672233,-5847.626942,9770.718434,1378.971896
81.672542,-1258.350101,5255.462188,4673.182538
81.672852,518.144159,5477.523971,5592.497135
81.673161,2960.823768,5625.565159,5209.449386
81.673470,-740.205942,6439.791695,5439.278036
81.673780,-1628.453072,11843.295072,-383.047749
81.674089,888.247130,15396.283594,-9729.412825
81.674398,1332.370696,18579.169144,-14632.424012
81.674708,740.205942,13841.851115,-9576.193725
81.675017,-3701.029710,8438.347739,-3370.820191
81.675326,-2368.659014,5625.565159,3830.477490
81.675636,2220.617826,3256.906145,4290.134789
81.675945,4219.173869,1850.514855,5286.058936
81.676254,-444.123565,4145.153275,6435.202183
81.676564,-1332.370696,8364.327145,612.876398
81.676873,3108.864956,13175.665768,-7660.954980
81.677182,1628.453072,15988.448347,-12870.404366
81.677492,2516.700203,15618.345376,-9116.536426
81.677801,-3034.844362,11547.212695,-1915.238745
81.678110,-3923.091493,8142.265362,2987.772442
81.678420,-0.000000,7179.997637,6358.592633
81.678729,1628.453072,6735.874072,3217.601092
81.679038,1850.514855,6439.791695,995.924147
81.679348,-3478.967927,11325.150913,4060.306139
81.679657,-2146.597232,15766.386565,-5132.839837
81.679966,2738.761985,16284.530724,-13866.328514
81.680276,1628.453072,16580.613101,-12410.747068
81.680585,-1850.514855,10362.883188,-1838.629195
81.680894,-2294.638420,6217.729913,4826.401637
81.681203,-74.020594,2442.679609,6128.763984
81.681513,2146.597232,1184.329507,6894.859482
81.681822,3701.029710,1776.494261,5975.544884
81.682131,74.020594,3997.112087,5515.887586
81.682441,-1924.535449,12139.377449,-2451.505594
81.682750,518.144159,15692.365970,-10572.117872
81.683059,1776.494261,16136.489536,-14019.547613
81.683369,-888.247130,14508.036463,-7814.174080
81.683678,-7031.956449,11547.212695,5056.230287
81.683987,-1480.411884,7920.203579,3753.867940
81.684297,1480.411884,6513.812290,3907.087040
81.684606,2072.576638,4441.235652,4596.572988
81.684915,-888.247130,7179.997637,6588.421283
81.685225,-1628.453072,12435.459826,1302.362347
81.685534,3256.906145,14804.118840,-10725.336972
81.685843,1480.411884,13545.768739,-12717.185267
81.686153,-1480.411884,11843.295072,-5898.935335
81.686462,-3108.864956,7698.141797,6358.592633
81.686771,-444.123565,4737.318029,3677.258390
81.687081,-0.000000,4737.318029,6205.373534
81.687390,1554.432478,2886.803174,6052.154434
81.687699,1480.411884,4737.318029,2911.162892
81.688009,-592.164754,9030.512492,383.047749
81.688318,444.123565,14952.160028,-4749.792088
81.688627,1924.535449,18135.045579,-11184.994271
81.688937,962.267725,16358.551318,-10572.117872
81.689246,-3182.885551,12879.583391,0.000000
81.689555,-3849.070898,9474.636058,3753.867940
81.689865,370.102971,6513.812290,2528.115143
81.690174,4071.132681,4367.215058,1149.143247
81.690483,-370.102971,3775.050304,5056.230287
81.690793,-5625.565159,9178.553681,1685.410096
81.691102,148.041188,12583.501014,-5286.058936
81.691411,2072.576638,13471.748144,-13023.623466
81.691721,1184.329507,12435.459826,-10265.679673
81.692030,-518.144159,10584.944971,-3447.429741
81.692339,-1776.494261,5625.565159,1762.019645
81.692649,222.061783,4737.318029,4826.401637
81.692958,2516.700203,5181.441594,5822.325785
81.693267,2220.617826,4071.132681,4826.401637
81.693576,-1480.411884,8068.244768,1378.971896
81.693886,-3256.906145,12879.583391,-2298.286494
81.694195,1998.556043,15840.407159,-10495.508323
81.694504,2220.617826,15988.448347,-12870.404366
81.694814,-2738.761985,14359.995275,-7124.688131
81.695123,-3552.988522,11251.130318,-1685.410096
81.695432,518.144159,7254.018232,689.485948
81.695742,2072.576638,4515.256246,2298.286494
81.696051,2738.761985,4071.132681,7354.516781
81.696360,-518.144159,5847.626942,6971.469032
81.696670,-2516.700203,7698.141797,3064.381992
81.696979,1776.494261,13841.851115,-5286.058936
81.697288,3108.864956,14804.118840,-12870.404366
81.697598,296.082377,11843.295072,-11261.603821
81.697907,-740.205942,10214.842000,-3524.039291
81.698216,-3552.988522,6809.894666,3524.039291
81.698526,1702.473667,6883.915261,2911.162892
81.698835,3108.864956,6143.709319,4213.525239
81.699144,-0.000000,3923.091493,5286.058936
81.699454,-2960.823768,8290.306550,1302.362347
81.699763,-148.041188,12435.459826,-4673.182538
81.700072,2442.679609,15544.324782,-9806.022374
81.700382,1554.432478,14063.912898,-9806.022374
81.700691,-2368.659014,13175.665768,-4903.011187
81.701000,-1924.535449,9474.636058,2145.067394
81.701310,1332.370696,6069.688724,2145.067394
81.701619,2886.803174,3849.070898,3600.648841
81.701928,814.226536,5033.400406,7431.126331
81.702238,-2738.761985,7994.224174,4903.011187
81.702547,-0.000000,11917.315666,-3600.648841
81.702856,814.226536,15174.221811,-11031.775171
81.703166,740.205942,15766.386565,-12027.699319
81.703475,222.061783,12509.480420,-7584.345430
81.703784,-2960.823768,9326.594869,-153.219100
81.704094,-592.164754,6217.729913,4979.620737
81.704403,2516.700203,5255.462188,5439.278036
81.704712,1850.514855,4811.338623,6052.154434
81.705022,-3108.864956,3923.091493,9039.926876
81.705331,-74.020594,9844.739029,-1762.019645
81.705640,1554.432478,11917.315666,-10418.898773
81.705950,1628.453072,15100.201217,-11108.384721
81.706259,-3182.885551,13027.624579,-6281.983084
81.706568,-3849.070898,10658.965565,-4366.744339
81.706878,444.123565,7179.997637,995.924147
81.707187,1258.350101,6291.750507,3524.039291
81.707496,1480.411884,4663.297435,5822.325785
81.707806,-222.061783,5181.441594,4596.572988
81.708115,-2886.803174,9030.512492,306.438199
81.708424,2442.679609,14508.036463,-7967.393179
81.708734,2442.679609,16506.592507,-12334.137518
81.709043,1628.453072,14804.118840,-10189.070123
81.709352,-1110.308913,12435.459826,-2145.067394
81.709662,-2664.741391,7328.038826,4903.011187
81.709971,1406.391290,4737.318029,6281.983084
81.710281,2590.720797,4293.194464,4213.525239
81.710590,-0.000000,3256.906145,3677.258390
81.710899,-1924.535449,8142.265362,1302.362347
81.711209,444.123565,13397.727550,-6128.763984
81.711518,1036.288319,15914.427753,-13023.623466
81.711827,666.185348,16358.551318,-10572.117872
81.712137,592.164754,11621.233289,-4826.401637
81.712446,-2072.576638,8512.368333,2757.943793
81.712755,-1258.350101,5329.482782,7124.688131
81.713065,2960.823768,5107.421000,6511.811733
81.713374,444.123565,4293.194464,3907.087040
81.713683,-4293.194464,6069.688724,2834.553343
81.713993,-222.061783,13323.706956,-6588.421283
81.714302,3997.112087,13915.871710,-16854.100956
81.714611,2072.576638,14878.139434,-11951.089769
81.714921,-2886.803174,13249.686362,2451.505594
81.715230,-3404.947333,7476.080014,5286.058936
81.715539,1924.535449,3552.988522,5669.106685
81.715849,3775.050304,962.267725,7584.345430
81.716158,-666.185348,1628.453072,6205.373534
81.716468,-2516.700203,4885.359217,2374.896044
81.716777,-0.000000,12435.459826,-5592.497135
81.717086,2368.659014,18579.169144,-11568.042020
81.717396,296.082377,21243.910535,-11031.775171
81.717705,296.082377,16136.489536,-6741.640382
81.718014,-2590.720797,10732.986159,-1455.581446
81.718324,-3182.885551,6217.729913,5745.716235
81.718633,592.164754,2664.741391,8580.269578
81.718942,2294.638420,3775.050304,4596.572988
81.719252,-222.061783,3627.009116,1225.752797
81.719561,-814.226536,11769.274478,-3217.601092
81.719870,2368.659014,14952.160028,-12947.013916
81.720180,1998.556043,14211.954086,-13023.623466
81.720489,-74.020594,14211.954086,-3677.258390
81.720798,-0.000000,8364.327145,2451.505594
81.721108,-0.000000,1554.432478,4903.011187
81.721417,222.061783,1850.514855,10418.898773
81.721727,3330.926739,1036.288319,7584.345430
81.722036,-0.000000,4589.276840,689.485948
81.722345,-1850.514855,12435.459826,-1991.848295
81.722655,-1406.391290,17987.004391,-8963.317327
81.722964,1628.453072,19985.560434,-15168.690860
81.723273,1702.473667,19615.457463,-12180.918418
81.723583,-444.123565,13767.830521,-4443.353888
81.723892,-962.267725,6883.915261,3753.867940
81.724201,1036.288319,1924.535449,7737.564530
81.724511,3256.906145,1776.494261,9422.974625
81.724820,-444.123565,2368.659014,8580.269578
81.725129,-2294.638420,7698.141797,3524.039291
81.725439,-370.102971,15544.324782,-7737.564530
81.725748,962.267725,16358.551318,-16624.272307
81.726057,2886.803174,12879.583391,-15781.567259
81.726367,-1628.453072,9844.739029,-3524.039291
81.726676,-4663.297435,7476.080014,4290.134789
81.726985,-1554.432478,2664.741391,11261.603821
81.727295,2664.741391,2072.576638,10572.117872
81.727604,3775.050304,3404.947333,5822.325785
81.727914,-1332.370696,7328.038826,-2374.896044
81.728223,-1628.453072,12731.542202,-4136.915689
81.728532,740.205942,17468.860231,-13713.109414
81.728842,2442.679609,19541.436869,-15475.129060
