#time,accel_x,accel_y,accel_z
84.794061,-148.041188,8882.471304,-1455.581446
84.794371,-444.123565,8882.471304,-1915.238745
84.794681,-222.061783,12139.377449,-4903.011187
84.794990,370.102971,10955.047942,-1455.581446
84.795300,740.205942,9918.759623,-919.314598
84.795610,-222.061783,9400.615463,-766.095498
84.795919,-518.144159,8808.450710,-1225.752797
84.796229,-148.041188,8290.306550,-1455.581446
84.796539,-0.000000,8808.450710,-1762.019645
84.796848,370.102971,9770.718434,-1455.581446
84.797158,-0.000000,10362.883188,-1149.143247
84.797468,-0.000000,9844.739029,1149.143247
84.797777,518.144159,8882.471304,-612.876398
84.798087,-0.000000,8512.368333,-1608.800546
84.798397,-0.000000,9030.512492,-1455.581446
84.798706,-0.000000,9770.718434,-1378.971896
84.799016,1184.329507,9474.636058,-1225.752797
84.799326,-370.102971,9770.718434,-995.924147
84.799635,666.185348,8512.368333,-2068.457845
84.799945,666.185348,9548.656652,-2451.505594
84.800255,-518.144159,9474.636058,-995.924147
84.800564,-0.000000,10066.800811,-689.485948
84.800874,-0.000000,10214.842000,-766.095498
84.801184,962.267725,9178.553681,-995.924147
84.801493,-222.061783,8142.265362,-1991.848295
84.801803,-1850.514855,9622.677246,-6435.202183
84.802113,222.061783,9696.697840,-153.219100
84.802422,370.102971,8660.409521,-306.438199
84.802732,1258.350101,8290.306550,612.876398
84.803042,2072.576638,7254.018232,842.705048
84.803351,5033.400406,5995.668130,0.000000
84.803661,1776.494261,6217.729913,7201.297681
84.803971,2072.576638,6661.853478,12793.794817
84.804280,-1628.453072,5477.523971,11414.822920
84.804590,9030.512492,8882.471304,7354.516781
84.804900,4737.318029,6365.771101,2451.505594
84.805209,-0.000000,8512.368333,7584.345430
84.805519,-1850.514855,9770.718434,15092.081311
84.805829,1258.350101,11695.253884,9806.022374
84.806138,888.247130,10658.965565,5822.325785
84.806448,-814.226536,12731.542202,9652.803275
84.806758,-740.205942,12139.377449,8503.660028
84.807067,-17616.901420,11473.192101,9499.584175
84.807377,19393.395680,20651.745782,-2068.457845
84.807687,-8660.409521,4071.132681,4596.572988
84.807996,-10881.027347,14804.118840,22216.769442
84.808306,-4959.379811,13915.871710,18922.558801
84.808616,-2146.597232,8734.430116,-2987.772442
84.808925,6883.915261,15100.201217,-5669.106685
84.809235,-13545.768739,5033.400406,12180.918418
84.809545,-222.061783,14211.954086,7584.345430
84.809854,592.164754,3478.967927,3370.820191
84.810164,-3478.967927,7105.977043,9806.022374
84.810474,1036.288319,5181.441594,19612.044749
84.810783,-1332.370696,-0.000000,12870.404366
84.811093,2368.659014,2886.803174,10801.946522
84.811403,-2960.823768,5625.565159,12410.747068
84.811712,1480.411884,7179.997637,3983.696590
84.812022,-3997.112087,6661.853478,3753.867940
84.812332,3627.009116,16210.510130,3064.381992
84.812641,3330.926739,9474.636058,0.000000
84.812951,2590.720797,12657.521608,8733.488677
84.813261,-1110.308913,9548.656652,21220.845295
84.813570,-962.267725,5551.544565,22293.378992
84.813880,3923.091493,6513.812290,11031.775171
84.814190,1184.329507,7254.018232,3830.477490
84.814499,592.164754,13545.768739,1072.533697
84.814809,3034.844362,15248.242405,-229.828649
84.815119,1554.432478,17246.798449,3217.601092
84.815428,-2812.782580,15914.427753,10878.556072
84.815738,-6587.832884,14211.954086,11644.651570
84.816048,-888.247130,10658.965565,4749.792088
84.816357,2886.803174,10584.944971,-6588.421283
84.816667,3108.864956,9474.636058,-4903.011187
84.816977,-222.061783,11325.150913,8886.707777
84.817286,-3034.844362,9474.636058,15551.738609
84.817596,1258.350101,9474.636058,9039.926876
84.817906,3552.988522,5625.565159,536.266849
84.818215,-962.267725,962.267725,-3753.867940
84.818525,-5181.441594,3701.029710,-1225.752797
84.818835,-2960.823768,8364.327145,-4596.572988
84.819144,1480.411884,9030.512492,-8273.831378
84.819454,4589.276840,9844.739029,-7201.297681
84.819764,4737.318029,7031.956449,-612.876398
84.820073,-4811.338623,4145.153275,9116.536426
84.820383,-3330.926739,8216.285956,17390.367805
84.820693,-2146.597232,11547.212695,4903.011187
84.821002,14730.098246,10436.903782,-16547.662757
84.821312,-2146.597232,3849.070898,-12104.308868
84.821622,-10584.944971,12583.501014,4136.915689
84.821931,-7179.997637,13619.789333,459.657299
84.822241,10881.027347,17987.004391,-16930.710506
84.822551,8438.347739,12287.418637,-9346.365076
84.822860,-3701.029710,2590.720797,11338.213370
84.823170,2368.659014,2072.576638,12487.356617
84.823480,2812.782580,518.144159,5515.887586
84.823789,-2590.720797,592.164754,4290.134789
84.824099,10732.986159,5329.482782,-1455.581446
84.824409,4885.359217,4737.318029,-10955.165621
84.824718,-4071.132681,13989.892304,995.924147
84.825028,-1924.535449,13989.892304,10035.851024
84.825338,9474.636058,10436.903782,-5898.935335
84.825647,6291.750507,8438.347739,-3370.820191
84.825957,-7698.141797,7550.100608,20837.797546
84.826267,-7994.224174,7846.182985,15781.567259
84.826576,6957.935855,13841.851115,-9729.412825
84.826886,4737.318029,17616.901420,-12870.404366
84.827196,-7254.018232,17320.819043,-1455.581446
84.827505,-8142.265362,20503.704593,-5209.449386
84.827815,962.267725,22132.157666,-14632.424012
84.828125,2590.720797,17394.839637,-8886.707777
84.828434,-2812.782580,12361.439231,10189.070123
84.828744,-3775.050304,8142.265362,14172.766713
84.829054,-0.000000,6069.688724,5362.668486
84.829363,5033.400406,6439.791695,-383.047749
84.829673,1406.391290,7105.977043,-383.047749
84.829983,-2812.782580,10140.821405,-1072.533697
84.830292,-2368.659014,8808.450710,-919.314598
84.830602,148.041188,7031.956449,-8963.317327
84.830912,4737.318029,6217.729913,-5975.544884
84.831221,-4441.235652,296.082377,11261.603821
84.831531,-6957.935855,-1480.411884,20148.311597
84.831841,1702.473667,2442.679609,7507.735880
84.832150,10510.924376,9474.636058,-8580.269578
84.832460,-2886.803174,8438.347739,-1378.971896
84.832770,-7772.162391,14878.139434,5898.935335
84.833079,3478.967927,17542.880825,-11261.603821
84.833389,7179.997637,13175.665768,-22293.378992
84.833699,-4293.194464,9844.739029,5975.544884
84.834008,-12065.356855,6587.832884,25740.808733
84.834318,518.144159,8068.244768,6971.469032
84.834628,7254.018232,7105.977043,-11414.822920
84.834937,3775.050304,11029.068536,-2068.457845
84.835247,-2146.597232,11769.274478,1838.629195
84.835557,-222.061783,17912.983796,-7890.783629
84.835866,4441.235652,15766.386565,-11797.870669
84.836176,1258.350101,13323.706956,-4903.011187
84.836486,-1924.535449,10140.821405,7431.126331
84.836795,-7179.997637,7476.080014,14096.157163
84.837105,-2664.741391,4441.235652,4826.401637
84.837415,7476.080014,3923.091493,-12947.013916
84.837724,2220.617826,9844.739029,-8580.269578
84.838034,-7105.977043,14508.036463,-1225.752797
84.838344,1184.329507,16802.674883,-12257.527968
84.838653,6291.750507,14211.954086,-21757.112143
84.838963,-74.020594,9844.739029,-2068.457845
84.839273,-8364.327145,5551.544565,15092.081311
84.839582,-4145.153275,-962.267725,5515.887586
84.839892,3256.906145,222.061783,-6281.983084
84.840202,6217.729913,3108.864956,-6281.983084
84.840511,814.226536,6513.812290,-2757.943793
84.840821,1036.288319,11695.253884,-2834.553343
84.841131,6291.750507,12287.418637,-9806.022374
84.841440,7254.018232,9178.553681,-10878.556072
84.841750,-3923.091493,2442.679609,4213.525239
84.842060,-3627.009116,5477.523971,15781.567259
84.842369,2886.803174,5773.606348,1532.190996
84.842679,8882.471304,8882.471304,-7277.907231
84.842989,3256.906145,8956.491898,-2528.115143
84.843298,-4219.173869,10807.006753,-4290.134789
84.843608,-296.082377,15544.324782,-9116.536426
84.843918,6217.729913,17987.004391,-16317.834107
84.844227,4737.318029,16802.674883,-10495.508323
84.844537,-4737.318029,10881.027347,10112.460574
84.844847,-6439.791695,9770.718434,18922.558801
84.845156,2590.720797,5921.647536,2451.505594
84.845466,6513.812290,5477.523971,-10725.336972
84.845776,-2368.659014,5847.626942,-3217.601092
84.846085,-4737.318029,10362.883188,2451.505594
84.846395,4885.359217,16580.613101,-12257.527968
84.846705,6883.915261,14137.933492,-17773.415554
84.847014,-4885.359217,8734.430116,4826.401637
84.847324,-10140.821405,3627.009116,21144.235745
84.847634,296.082377,2960.823768,6358.592633
84.847943,1776.494261,2516.700203,-4290.134789
84.848253,-370.102971,8068.244768,2604.724693
84.848563,-1924.535449,12065.356855,383.047749
84.848872,-2368.659014,12731.542202,-9729.412825
84.849182,2960.823768,15396.283594,-10955.165621
84.849491,1776.494261,10436.903782,-8427.050478
84.849801,-3108.864956,7402.059420,5362.668486
84.850110,-7254.018232,5107.421000,20684.578446
84.850420,-74.020594,5329.482782,12487.356617
84.850729,5403.503377,5995.668130,-4673.182538
84.851038,2368.659014,5773.606348,-3294.210641
84.851348,-4293.194464,9178.553681,3830.477490
84.851657,-0.000000,12287.418637,-3830.477490
84.851967,8734.430116,15470.304188,-17773.415554
84.852276,592.164754,10881.027347,-3524.039291
84.852586,-10881.027347,8068.244768,20531.359346
84.852895,-4293.194464,8290.306550,17313.758255
84.853205,2960.823768,4589.276840,-5745.716235
84.853514,4219.173869,9622.677246,-6818.249932
84.853823,-3997.112087,11547.212695,-306.438199
84.854133,-3849.070898,15322.262999,-6358.592633
84.854442,5551.544565,18801.230927,-19152.387450
84.854752,3182.885551,17172.777854,-15168.690860
84.855061,-5625.565159,13249.686362,6741.640382
84.855371,-7031.956449,5107.421000,16777.491406
84.855680,-3256.906145,370.102971,7737.564530
84.855989,1924.535449,3923.091493,-1915.238745
84.856299,2664.741391,4737.318029,-6511.811733
84.856608,-1702.473667,9622.677246,-4826.401637
84.856918,296.082377,15322.262999,-5822.325785
84.857227,4737.318029,14878.139434,-13942.938064
84.857537,3108.864956,11251.130318,-10342.289223
84.857846,-6513.812290,5255.462188,12793.794817
84.858156,-6513.812290,3627.009116,18845.949251
84.858465,1628.453072,4219.173869,1149.143247
84.858774,7402.059420,6365.771101,-9806.022374
84.859084,-296.082377,9770.718434,-3524.039291
84.859393,-5773.606348,14137.933492,-2068.457845
84.859703,7402.059420,17987.004391,-15934.786358
84.860012,9030.512492,12361.439231,-22063.550342
84.860322,-2072.576638,9252.574275,306.438199
84.860631,-7550.100608,5921.647536,25281.151434
84.860940,-1406.391290,3330.926739,15781.567259
84.861250,10066.800811,4293.194464,-4826.401637
84.861559,7476.080014,2886.803174,-7124.688131
84.861869,-1036.288319,4737.318029,536.266849
84.862178,-2664.741391,13175.665768,-2681.334243
84.862488,8660.409521,18801.230927,-14402.595362
84.862797,5477.523971,15618.345376,-14019.547613
84.863107,-5329.482782,9844.739029,8963.317327
84.863416,-10658.965565,4959.379811,22523.207641
84.863725,-1480.411884,7624.121203,6741.640382
84.864035,7179.997637,9104.533087,-9882.631924
84.864344,-1110.308913,10658.965565,-7507.735880
84.864654,-6365.771101,12953.603985,-4673.182538
84.864963,-148.041188,18061.024985,-11414.822920
84.865273,4811.338623,17690.922014,-21986.940793
84.865582,-4737.318029,11325.150913,-2987.772442
84.865891,-8142.265362,8438.347739,21374.064394
84.866201,-5033.400406,-222.061783,14402.595362
84.866510,3034.844362,-1924.535449,-306.438199
84.866820,2886.803174,3849.070898,-2834.553343
84.867129,-3404.947333,6069.688724,-2374.896044
84.867439,-1332.370696,12583.501014,-6665.030833
84.867748,2072.576638,14656.077652,-12180.918418
84.868057,4367.215058,13175.665768,-10035.851024
84.868367,-2516.700203,6143.709319,5056.230287
84.868676,-10510.924376,5329.482782,20607.968896
84.868986,-1480.411884,5625.565159,11644.651570
84.869295,5625.565159,7624.121203,-5209.449386
84.869605,4589.276840,11547.212695,-10495.508323
84.869914,-6143.709319,13471.748144,-3064.381992
84.870224,-1628.453072,18727.210333,-7354.516781
84.870533,9326.594869,17542.880825,-21833.721693
84.870842,1184.329507,15026.180623,-11184.994271
84.871152,-4737.318029,9918.759623,17390.367805
84.871461,-6365.771101,3849.070898,22140.159892
84.871771,3404.947333,814.226536,5592.497135
84.872080,8364.327145,2072.576638,-4290.134789
84.872390,-0.000000,6365.771101,-4826.401637
84.872699,-2664.741391,10658.965565,-4519.963438
84.873008,6291.750507,17616.901420,-11721.261119
84.873318,6217.729913,15988.448347,-15015.471761
84.873627,-592.164754,11991.336260,689.485948
84.873937,-8882.471304,5773.606348,17313.758255
84.874246,-6587.832884,-148.041188,12104.308868
84.874556,1554.432478,-296.082377,-1225.752797
84.874865,6439.791695,9770.718434,-9269.755526
84.875175,-2886.803174,12213.398043,-9729.412825
84.875484,-4293.194464,18949.272115,-3600.648841
84.875793,6217.729913,17912.983796,-13176.842566
84.876103,6143.709319,13027.624579,-20224.921147
84.876412,-3256.906145,8808.450710,7967.393179
84.876722,-10732.986159,740.205942,25127.932334
84.877031,-2146.597232,-2886.803174,9422.974625
84.877341,11769.274478,1998.556043,-5209.449386
84.877650,5329.482782,4737.318029,-7737.564530
84.877959,-3478.967927,12509.480420,-2757.943793
84.878269,-1998.556043,18949.272115,-4290.134789
84.878578,8660.409521,15174.221811,-13713.109414
84.878888,4293.194464,8216.285956,-3983.696590
84.879197,-8734.430116,6291.750507,13789.718964
84.879507,-8586.388927,6883.915261,17543.586904
84.879816,1110.308913,7476.080014,306.438199
84.880126,8586.388927,10732.986159,-10342.289223
84.880435,1258.350101,12953.603985,-8580.269578
84.880744,-3404.947333,15470.304188,-6358.592633
84.881054,3330.926739,19393.395680,-14785.643111
84.881363,3701.029710,11917.315666,-15321.909960
84.881673,740.205942,10955.047942,1685.410096
84.881982,-8364.327145,3330.926739,18922.558801
84.882292,-4441.235652,-3997.112087,10342.289223
84.882601,3182.885551,518.144159,-2834.553343
84.882910,4589.276840,3701.029710,-7814.174080
84.883220,2072.576638,8808.450710,-7814.174080
84.883529,-1702.473667,13915.871710,-5975.544884
84.883839,1480.411884,17616.901420,-9652.803275
84.884148,3182.885551,11695.253884,-9729.412825
84.884458,-6143.709319,4367.215058,8503.660028
84.884767,-6587.832884,5995.668130,16854.100956
84.885077,-3478.967927,4663.297435,2911.162892
84.885386,7476.080014,11769.274478,-10648.727422
84.885695,1850.514855,10140.821405,-8044.002729
84.886005,-2960.823768,16284.530724,-5592.497135
84.886314,2294.638420,17246.798449,-11031.775171
84.886624,2960.823768,11177.109724,-16854.100956
84.886933,444.123565,11547.212695,-153.219100
84.887243,-6143.709319,6661.853478,18999.168350
84.887552,-6365.771101,4293.194464,11874.480219
84.887861,3923.091493,3478.967927,-2757.943793
84.888171,7772.162391,7179.997637,-10418.898773
84.888480,2220.617826,7179.997637,-5745.716235
84.888790,-4515.256246,13989.892304,-4290.134789
84.889099,2294.638420,16876.695478,-8580.269578
84.889409,2886.803174,12435.459826,-10418.898773
84.889718,-444.123565,8512.368333,4596.572988
84.890028,-9104.533087,4959.379811,16088.005458
84.890337,-4737.318029,6809.894666,12487.356617
84.890646,5921.647536,8586.388927,-5822.325785
84.890956,4145.153275,8216.285956,-11491.432470
84.891265,-5403.503377,12879.583391,-4673.182538
84.891575,-2146.597232,15840.407159,-4443.353888
84.891884,3923.091493,16654.633695,-14938.862211
84.892194,-0.000000,12139.377449,-5975.544884
84.892503,-4441.235652,7550.100608,14785.643111
84.892812,-9548.656652,1924.535449,15245.300410
84.893122,148.041188,5699.585753,-919.314598
84.893431,8438.347739,4441.235652,-8656.879127
84.893741,3330.926739,9696.697840,-4136.915689
84.894050,-2516.700203,13545.768739,1302.362347
84.894360,296.082377,13989.892304,-3524.039291
84.894669,6587.832884,13027.624579,-8810.098227
84.894979,-74.020594,6735.874072,-306.438199
84.895288,-7402.059420,4663.297435,13713.109414
84.895597,-7402.059420,6513.812290,11721.261119
84.895907,8956.491898,9844.739029,-3217.601092
84.896216,5921.647536,11029.068536,-10878.556072
84.896526,-1924.535449,13471.748144,1915.238745
84.896835,-3997.112087,16358.551318,2681.334243
84.897145,4441.235652,14804.118840,-15781.567259
84.897454,5625.565159,11695.253884,-11491.432470
84.897763,-4737.318029,10584.944971,10342.289223
84.898073,-7624.121203,7179.997637,15628.348159
84.898382,2590.720797,6513.812290,-1532.190996
84.898692,7846.182985,4515.256246,-10801.946522
84.899001,1628.453072,6883.915261,-2068.457845
84.899311,-1332.370696,9178.553681,5592.497135
84.899620,1554.432478,12435.459826,-3677.258390
84.899930,5181.441594,10584.944971,-9346.365076
84.900239,3256.906145,5995.668130,-2374.896044
84.900548,-5255.462188,4589.276840,9039.926876
84.900858,-5773.606348,7254.018232,10955.165621
84.901167,2368.659014,10362.883188,-1225.752797
84.901477,6439.791695,10510.924376,-11261.603821
84.901786,-3849.070898,14804.118840,383.047749
84.902096,-8142.265362,14359.995275,2757.943793
84.902405,1480.411884,17838.963202,-14862.252661
84.902714,3034.844362,13175.665768,-19535.435199
84.903024,-2812.782580,12287.418637,5286.058936
84.903333,-8734.430116,5921.647536,17083.929605
84.903643,-2146.597232,3552.988522,5592.497135
84.903952,5403.503377,2516.700203,-5515.887586
84.904262,1184.329507,3182.885551,-2451.505594
84.904571,-444.123565,6809.894666,4290.134789
84.904880,-370.102971,9992.780217,-1991.848295
84.905190,4071.132681,11325.150913,-10801.946522
84.905499,2368.659014,10288.862594,-5209.449386
84.905809,-5403.503377,8586.388927,6971.469032
84.906118,-6069.688724,7846.182985,12180.918418
84.906428,1332.370696,11991.336260,1302.362347
84.906737,4885.359217,12805.562797,-6205.373534
84.907047,-2220.617826,10362.883188,-3983.696590
84.907356,-4367.215058,13545.768739,-2528.115143
84.907665,444.123565,13693.809927,-11644.651570
84.907975,2442.679609,14285.974681,-16547.662757
84.908284,-1628.453072,14063.912898,-1072.533697
84.908594,-6217.729913,9252.574275,13100.233016
84.908903,-1110.308913,3701.029710,3370.820191
84.909213,4293.194464,2812.782580,-4136.915689
84.909522,1924.535449,1554.432478,-3140.991542
84.909831,-2368.659014,3849.070898,4060.306139
84.910141,1850.514855,7105.977043,-1762.019645
84.910450,5107.421000,9400.615463,-11874.480219
84.910760,3182.885551,11251.130318,-9576.193725
84.911069,-2664.741391,9030.512492,5592.497135
84.911379,-4441.235652,9326.594869,10418.898773
84.911688,1036.288319,10066.800811,4903.011187
84.911998,6365.771101,8660.409521,-3677.258390
84.912307,-0.000000,6217.729913,-3600.648841
84.912616,-4145.153275,13175.665768,842.705048
84.912926,740.205942,16062.468941,-9576.193725
84.913235,4811.338623,15322.262999,-20071.702048
84.913545,740.205942,15692.365970,-8350.440928
84.913854,-5107.421000,11251.130318,11644.651570
84.914164,-2294.638420,5773.606348,11108.384721
84.914473,2664.741391,3478.967927,-2451.505594
84.914782,6291.750507,1850.514855,-2757.943793
84.915092,-444.123565,3256.906145,3370.820191
84.915401,592.164754,8216.285956,2374.896044
84.915711,3997.112087,11769.274478,-9422.974625
84.916020,3923.091493,16802.674883,-11414.822920
84.916330,-518.144159,9918.759623,2068.457845
84.916639,-5773.606348,9770.718434,11721.261119
84.916949,-666.185348,9400.615463,7890.783629
84.917258,3849.070898,7328.038826,-1915.238745
84.917567,1924.535449,6883.915261,-6741.640382
84.917877,-6291.750507,10584.944971,-766.095498
84.918186,-3108.864956,15100.201217,-4290.134789
84.918496,5477.523971,18875.251521,-19152.387450
84.918805,74.020594,17690.922014,-15321.909960
84.919115,-3478.967927,14804.118840,9652.803275
84.919424,-8142.265362,5699.585753,14479.204912
84.919733,666.185348,814.226536,1991.848295
84.920043,4441.235652,1628.453072,-2757.943793
84.920352,-814.226536,2072.576638,-689.485948
84.920662,-518.144159,7846.182985,-536.266849
84.920971,148.041188,12435.459826,-7201.297681
84.921281,4589.276840,14285.974681,-13942.938064
84.921590,1850.514855,11251.130318,-4290.134789
84.921900,-4737.318029,5699.585753,9346.365076
84.922209,-7550.100608,7179.997637,12717.185267
84.922518,-740.205942,5329.482782,3370.820191
84.922828,9030.512492,8216.285956,-9346.365076
84.923137,-5773.606348,8586.388927,-4443.353888
84.923447,-4589.276840,15988.448347,153.219100
84.923756,5033.400406,17987.004391,-15475.129060
84.924066,1924.535449,14804.118840,-18539.511052
84.924375,-1702.473667,17024.736666,4903.011187
84.924684,-8290.306550,8882.471304,16547.662757
84.924994,-0.000000,5477.523971,2757.943793
84.925303,7105.977043,2960.823768,-4979.620737
84.925613,2368.659014,2590.720797,-1991.848295
84.925922,-370.102971,6883.915261,6511.811733
84.926232,1702.473667,12213.398043,-3983.696590
84.926541,5995.668130,13545.768739,-15628.348159
84.926851,1110.308913,12879.583391,-7277.907231
84.927160,-2960.823768,8512.368333,9806.022374
84.927469,-8956.491898,6661.853478,13789.718964
84.927779,1332.370696,5921.647536,4443.353888
84.928088,9104.533087,7550.100608,-4213.525239
84.928398,-3552.988522,6365.771101,-4903.011187
84.928707,-4737.318029,10807.006753,383.047749
84.929017,592.164754,15026.180623,-9959.241474
84.929326,4885.359217,17468.860231,-21450.673944
84.929635,1332.370696,14285.974681,-3217.601092
84.929945,-10288.862594,10955.047942,16011.395908
84.930254,-5625.565159,1702.473667,12257.527968
84.930564,7031.956449,2812.782580,-3830.477490
84.930873,4515.256246,3256.906145,-4519.963438
84.931183,-4219.173869,5477.523971,5362.668486
84.931492,1110.308913,11103.089130,-995.924147
84.931802,7476.080014,11621.233289,-14632.424012
84.932111,3997.112087,12805.562797,-10189.070123
84.932420,-2886.803174,8660.409521,10035.851024
84.932730,-8142.265362,4589.276840,14096.157163
84.933039,2368.659014,5403.503377,7201.297681
84.933349,8216.285956,9696.697840,-3907.087040
84.933658,-148.041188,5847.626942,-6435.202183
84.933968,-4589.276840,11769.274478,383.047749
84.934277,-592.164754,16358.551318,-5209.449386
84.934586,2960.823768,15396.283594,-18692.730151
84.934896,2590.720797,16950.716072,-7354.516781
84.935205,-7624.121203,9844.739029,15628.348159
84.935515,-7105.977043,4293.194464,13406.671215
84.935824,5329.482782,3701.029710,-3217.601092
84.936134,6587.832884,3330.926739,-6971.469032
84.936443,-2516.700203,4219.173869,3830.477490
84.936752,-444.123565,11029.068536,1838.629195
84.937062,4663.297435,14285.974681,-15092.081311
84.937371,962.267725,13027.624579,-12947.013916
84.937681,-444.123565,11029.068536,6128.763984
84.937990,-6513.812290,5329.482782,11414.822920
84.938300,-2146.597232,5181.441594,8810.098227
84.938609,6291.750507,6587.832884,-383.047749
84.938919,2738.761985,3478.967927,-7660.954980
84.939228,-3997.112087,10288.862594,459.657299
84.939537,-3701.029710,16580.613101,-383.047749
84.939847,4737.318029,17987.004391,-19688.654299
84.940156,1628.453072,18949.272115,-12257.527968
84.940466,-4885.359217,10955.047942,11491.432470
84.940775,-8216.285956,6143.709319,13713.109414
84.941085,2294.638420,6513.812290,0.000000
84.941394,6365.771101,2516.700203,-7201.297681
84.941703,518.144159,3034.844362,-383.047749
84.942013,444.123565,10288.862594,4903.011187
84.942322,3849.070898,12065.356855,-10112.460574
84.942632,2886.803174,13175.665768,-12563.966167
84.942941,-1184.329507,13249.686362,2987.772442
84.943251,-7402.059420,3775.050304,10418.898773
84.943560,-3478.967927,6957.935855,9806.022374
84.943870,5477.523971,7105.977043,536.266849
84.944179,3034.844362,4515.256246,-8656.879127
84.944488,-1998.556043,10732.986159,4596.572988
84.944798,-4885.359217,13767.830521,5209.449386
84.945107,3997.112087,17394.839637,-16471.053207
84.945417,2738.761985,15988.448347,-15551.738609
84.945726,-5033.400406,14285.974681,7277.907231
84.946036,-8438.347739,7179.997637,17160.539155
84.946345,1258.350101,5625.565159,459.657299
84.946654,8068.244768,6883.915261,-8656.879127
84.946964,-1776.494261,4071.132681,76.609550
84.947273,-962.267725,9992.780217,7124.688131
84.947583,1850.514855,9770.718434,-5592.497135
84.947892,4737.318029,12805.562797,-14709.033562
84.948202,1702.473667,12509.480420,-919.314598
84.948511,-4663.297435,4441.235652,11338.213370
84.948821,-1258.350101,5329.482782,12104.308868
84.949130,3330.926739,5477.523971,1149.143247
84.949439,5625.565159,5773.606348,-7354.516781
84.949749,-2072.576638,7772.162391,0.000000
84.950058,-2294.638420,15840.407159,3140.991542
84.950368,2146.597232,17098.757260,-13636.499864
84.950677,3256.906145,15840.407159,-15245.300410
84.950987,-962.267725,14508.036463,1532.190996
84.951296,-7920.203579,8216.285956,9193.145976
84.951606,3256.906145,7698.141797,-919.314598
84.951915,7179.997637,5773.606348,-5209.449386
84.952225,814.226536,4367.215058,-1685.410096
84.952534,-0.000000,6735.874072,7201.297681
84.952844,370.102971,9326.594869,-2834.553343
84.953154,3256.906145,12139.377449,-12640.575717
84.953463,5033.400406,12879.583391,-5898.935335
84.953773,-4071.132681,4589.276840,6052.154434
84.954082,-3478.967927,4885.359217,9806.022374
84.954392,2294.638420,6957.935855,4519.963438
84.954701,6513.812290,6587.832884,-6435.202183
84.955011,-1776.494261,6513.812290,-3600.648841
84.955320,-4071.132681,12879.583391,4136.915689
84.955630,148.041188,17172.777854,-8503.660028
84.955940,2220.617826,13175.665768,-17160.539155
84.956249,1258.350101,16432.571912,-4443.353888
84.956559,-8956.491898,8512.368333,11261.603821
84.956868,-1998.556043,5477.523971,7201.297681
84.957178,4811.338623,5181.441594,-3983.696590
84.957487,962.267725,444.123565,-1915.238745
84.957797,-74.020594,7031.956449,5669.106685
84.958106,-2294.638420,8882.471304,-766.095498
84.958416,3404.947333,11769.274478,-11414.822920
84.958726,3849.070898,15322.262999,-7048.078582
84.959035,-5329.482782,9326.594869,2911.162892
84.959345,-6587.832884,7994.224174,9269.755526
84.959654,1776.494261,7402.059420,1455.581446
84.959964,6143.709319,7179.997637,-11491.432470
84.960273,-1924.535449,8660.409521,-3677.258390
84.960583,-7328.038826,13545.768739,9882.631924
84.960893,-1702.473667,13101.645173,-3370.820191
84.961202,6513.812290,14730.098246,-16854.100956
84.961512,444.123565,13767.830521,-6894.859482
84.961821,-7698.141797,5773.606348,6052.154434
84.962131,-3108.864956,5921.647536,5898.935335
84.962440,5995.668130,5773.606348,-4826.401637
84.962750,2738.761985,3478.967927,-4136.915689
84.963059,-2146.597232,7402.059420,9346.365076
84.963369,-3627.009116,9178.553681,5439.278036
84.963679,3775.050304,13471.748144,-10801.946522
84.963988,4367.215058,15396.283594,-12563.966167
84.964298,-1406.391290,10807.006753,-919.314598
84.964607,-3997.112087,8808.450710,6435.202183
84.964917,1924.535449,10066.800811,1378.971896
84.965226,5699.585753,6883.915261,-5362.668486
84.965536,962.267725,6143.709319,766.095498
84.965846,-3997.112087,9252.574275,12793.794817
84.966155,-4145.153275,13323.706956,1302.362347
84.966465,5107.421000,14285.974681,-15168.690860
84.966774,4811.338623,12583.501014,-14402.595362
84.967084,-2516.700203,8660.409521,153.219100
84.967393,-5181.441594,9252.574275,7890.783629
84.967703,2368.659014,6957.935855,1762.019645
84.968012,5033.400406,4441.235652,-1762.019645
84.968322,-1036.288319,5625.565159,5592.497135
84.968632,-4811.338623,7698.141797,8656.879127
84.968941,2072.576638,9844.739029,-7354.516781
84.969251,6587.832884,14211.954086,-17543.586904
84.969560,148.041188,13323.706956,-7660.954980
84.969870,-3108.864956,9770.718434,6588.421283
84.970179,-1628.453072,9400.615463,4136.915689
84.970489,4145.153275,8068.244768,-2757.943793
84.970798,222.061783,6143.709319,1838.629195
84.971108,-5625.565159,7179.997637,9806.022374
84.971418,-3330.926739,8290.306550,2145.067394
84.971727,4071.132681,10658.965565,-14096.157163
84.972037,6217.729913,12805.562797,-15704.957709
84.972346,-1110.308913,12213.398043,-2604.724693
84.972656,-4589.276840,9918.759623,9346.365076
84.972965,-962.267725,8438.347739,7277.907231
84.973275,4737.318029,5181.441594,-995.924147
84.973585,-444.123565,4145.153275,2528.115143
84.973894,-6365.771101,9548.656652,7507.735880
84.974204,-1480.411884,11769.274478,-4443.353888
84.974513,6957.935855,12435.459826,-18616.120601
84.974823,4515.256246,14211.954086,-13023.623466
84.975132,-6069.688724,9252.574275,6281.983084
84.975442,-4367.215058,7179.997637,10801.946522
84.975751,2368.659014,6883.915261,919.314598
84.976061,4811.338623,5477.523971,459.657299
84.976371,-4145.153275,5477.523971,5592.497135
84.976680,-7105.977043,10436.903782,3524.039291
84.976990,3552.988522,13101.645173,-12487.356617
84.977299,9474.636058,15692.365970,-18769.339701
84.977609,-888.247130,13249.686362,-7048.078582
84.977918,-7624.121203,9696.697840,12563.966167
84.978228,-2960.823768,6291.750507,11951.089769
84.978538,6143.709319,4441.235652,-995.924147
84.978847,1554.432478,3182.885551,-459.657299
84.979157,-5847.626942,6957.935855,5822.325785
84.979466,-4293.194464,11399.171507,-1838.629195
84.979776,8142.265362,16580.613101,-19458.825649
84.980085,7105.977043,15840.407159,-17926.634653
84.980395,-3552.988522,13841.851115,3677.258390
84.980704,-7328.038826,8290.306550,14096.157163
84.981014,814.226536,6439.791695,4596.572988
84.981324,5995.668130,5107.421000,-2451.505594
84.981633,-1184.329507,3849.070898,2221.676944
84.981943,-6513.812290,7624.121203,5669.106685
84.982252,1998.556043,13693.809927,-9576.193725
84.982562,7698.141797,15544.324782,-22063.550342
84.982871,3849.070898,13841.851115,-11721.261119
84.983181,-8364.327145,8586.388927,9652.803275
84.983490,-7846.182985,5995.668130,14632.424012
84.983800,3775.050304,4367.215058,4290.134789
84.984110,4737.318029,3330.926739,-2451.505594
84.984419,-2664.741391,4145.153275,4903.011187
84.984729,-6809.894666,11473.192101,3524.039291
84.985038,3330.926739,15988.448347,-13559.890315
84.985348,8364.327145,15322.262999,-20224.921147
84.985657,-2294.638420,14582.057057,-1302.362347
84.985967,-8956.491898,10658.965565,15628.348159
84.986277,888.247130,7105.977043,5286.058936
84.986586,6217.729913,5033.400406,-3370.820191
84.986896,-222.061783,4737.318029,5362.668486
84.987205,-6957.935855,8216.285956,7890.783629
84.987515,296.082377,11695.253884,-7354.516781
84.987824,7328.038826,14952.160028,-20914.407095
84.988134,3108.864956,15544.324782,-14479.204912
84.988443,-3775.050304,10658.965565,3830.477490
84.988753,-6809.894666,7846.182985,12410.747068
84.989063,1258.350101,3552.988522,7354.516781
84.989372,5477.523971,1628.453072,-306.438199
84.989682,-2220.617826,4071.132681,2757.943793
84.989991,-6291.750507,10436.903782,4979.620737
84.990301,4145.153275,14508.036463,-14019.547613
84.990610,7698.141797,16062.468941,-22446.598091
84.990920,-0.000000,15174.221811,-6894.859482
84.991229,-8068.244768,9844.739029,11568.042020
84.991539,-3182.885551,5847.626942,9269.755526
84.991849,7328.038826,3627.009116,-459.657299
84.992158,814.226536,5329.482782,2681.334243
84.992468,-7179.997637,6883.915261,8273.831378
84.992777,-1628.453072,11843.295072,-3524.039291
84.993087,7179.997637,17172.777854,-19382.216099
84.993396,6217.729913,16136.489536,-19382.216099
84.993706,-1258.350101,11695.253884,-229.828649
84.994016,-6957.935855,8068.244768,11491.432470
84.994325,-2664.741391,3552.988522,11414.822920
84.994635,4589.276840,3478.967927,3524.039291
84.994944,962.267725,2146.597232,766.095498
84.995254,-4959.379811,5995.668130,3600.648841
84.995563,222.061783,13693.809927,-7124.688131
84.995873,9918.759623,16284.530724,-25664.199183
84.996182,3997.112087,15248.242405,-12793.794817
84.996492,-7698.141797,12361.439231,9806.022374
84.996802,-8364.327145,7772.162391,13176.842566
84.997111,4293.194464,4663.297435,4060.306139
84.997421,1332.370696,5773.606348,1302.362347
84.997730,-3256.906145,8290.306550,2834.553343
84.998040,-5847.626942,14211.954086,-2681.334243
84.998349,2960.823768,15914.427753,-19152.387450
84.998659,6883.915261,15396.283594,-21527.283494
84.998969,370.102971,14063.912898,-4366.744339
84.999278,-6217.729913,7328.038826,12717.185267
84.999588,-5181.441594,2516.700203,13253.452115
84.999897,2960.823768,-370.102971,6128.763984
85.000207,1924.535449,1850.514855,-2298.286494
85.000516,-3034.844362,4589.276840,995.924147
85.000826,-1850.514855,12213.398043,-4749.792088
85.001135,7402.059420,16876.695478,-19918.482948
85.001445,6439.791695,16506.592507,-16241.224558
85.001755,-3108.864956,12435.459826,8197.221829
85.002064,-9104.533087,7846.182985,15015.471761
85.002374,-1332.370696,5403.503377,3907.087040
85.002683,4367.215058,5033.400406,-2298.286494
85.002993,-2738.761985,8068.244768,2987.772442
85.003302,-2960.823768,12805.562797,-2221.676944
85.003612,3552.988522,15618.345376,-15245.300410
85.003921,6587.832884,16432.571912,-19918.482948
85.004231,2664.741391,12879.583391,-7048.078582
85.004541,-3701.029710,5773.606348,12410.747068
85.004850,-7105.977043,2146.597232,16164.615008
85.005160,1554.432478,962.267725,7967.393179
85.005469,7772.162391,1998.556043,-2221.676944
85.005779,-1184.329507,5329.482782,-3217.601092
85.006088,-2590.720797,11251.130318,-1762.019645
85.006398,3478.967927,18431.127956,-14325.985813
85.006708,7846.182985,17394.839637,-17696.806004
85.007017,518.144159,13175.665768,-229.828649
85.007327,-10510.924376,11103.089130,14249.376263
85.007636,-3627.009116,3923.091493,9116.536426
85.007946,5699.585753,6809.894666,-2681.334243
85.008255,-740.205942,8586.388927,-1762.019645
85.008565,-3182.885551,11843.295072,1685.410096
85.008874,518.144159,14137.933492,-9346.365076
85.009184,6217.729913,14285.974681,-21067.626195
85.009494,4293.194464,13915.871710,-11568.042020
85.009803,-3849.070898,6883.915261,10112.460574
85.010113,-8438.347739,2516.700203,15015.471761
85.010422,-740.205942,-962.267725,10342.289223
85.010732,6365.771101,1554.432478,-1762.019645
85.011041,296.082377,6661.853478,-3753.867940
85.011351,-2072.576638,13175.665768,153.219100
85.011661,1998.556043,16432.571912,-9959.241474
85.011970,7105.977043,15840.407159,-18616.120601
85.012280,222.061783,14730.098246,-4519.963438
85.012589,-11473.192101,10658.965565,14785.643111
85.012899,-4219.173869,5477.523971,10342.289223
85.013208,4959.379811,5477.523971,-4903.011187
85.013518,296.082377,10214.842000,-2298.286494
85.013827,-5033.400406,11547.212695,4519.963438
85.014137,-814.226536,13249.686362,-6358.592633
85.014447,5847.626942,16728.654289,-17696.806004
85.014756,6069.688724,11769.274478,-15321.909960
85.015066,-4663.297435,6291.750507,6741.640382
85.015375,-7105.977043,3108.864956,18079.853753
85.015685,-1554.432478,1924.535449,10265.679673
85.015994,4663.297435,3849.070898,-4213.525239
85.016304,444.123565,4589.276840,-1991.848295
85.016613,-2072.576638,10362.883188,1225.752797
85.016923,3849.070898,15618.345376,-8427.050478
85.017233,3330.926739,17172.777854,-19612.044749
85.017542,1332.370696,12953.603985,-7737.564530
85.017852,-7994.224174,7920.203579,10189.070123
85.018161,-4737.318029,6439.791695,11721.261119
85.018471,4515.256246,7031.956449,1302.362347
85.018780,2960.823768,8512.368333,153.219100
85.019090,-4959.379811,10436.903782,2987.772442
85.019400,-1850.514855,13545.768739,-4749.792088
85.019709,4441.235652,14804.118840,-17466.977354
85.020019,6587.832884,13471.748144,-17926.634653
85.020328,-518.144159,10140.821405,-1915.238745
85.020638,-7328.038826,5181.441594,15858.176809
85.020947,-3034.844362,1776.494261,16624.272307
85.021257,5625.565159,1184.329507,1685.410096
85.021566,3552.988522,2442.679609,-3907.087040
85.021876,-2960.823768,6365.771101,2374.896044
85.022186,-296.082377,13989.892304,-2451.505594
85.022495,8956.491898,17838.963202,-19765.263848
85.022805,5329.482782,15174.221811,-14709.033562
85.023114,-7105.977043,11325.150913,8886.707777
85.023424,-9992.780217,6365.771101,15934.786358
85.023733,2590.720797,7179.997637,3524.039291
85.024043,2442.679609,8956.491898,-1915.238745
85.024352,-2960.823768,11917.315666,2145.067394
85.024662,-1406.391290,13619.789333,-3294.210641
85.024972,4737.318029,12953.603985,-17466.977354
85.025281,5921.647536,12879.583391,-17620.196454
85.025591,-1184.329507,10288.862594,-1608.800546
85.025900,-8290.306550,5699.585753,14325.985813
85.026210,-6217.729913,3330.926739,16777.491406
85.026519,5477.523971,3701.029710,2374.896044
85.026829,5329.482782,3330.926739,-8886.707777
85.027139,-1924.535449,6735.874072,-306.438199
85.027448,666.185348,12879.583391,1225.752797
85.027758,6217.729913,12287.418637,-16088.005458
85.028067,5921.647536,13915.871710,-15398.519510
85.028377,-5773.606348,10288.862594,7201.297681
85.028686,-8068.244768,6587.832884,18079.853753
85.028996,2368.659014,6957.935855,2068.457845
85.029305,3404.947333,9104.533087,-2528.115143
85.029615,-2146.597232,10288.862594,1455.581446
85.029925,-3478.967927,10214.842000,-2145.067394
85.030234,-2294.638420,11399.171507,-10648.727422
85.030544,7254.018232,16136.489536,-17543.586904
85.030853,1924.535449,12583.501014,-9269.755526
85.031163,-5033.400406,8660.409521,9806.022374
85.031472,-9178.553681,5329.482782,19765.263848
85.031782,4145.153275,3923.091493,3524.039291
85.032092,7105.977043,3478.967927,-10572.117872
85.032401,-1702.473667,5329.482782,459.657299
85.032711,-2220.617826,12435.459826,4903.011187
85.033020,5255.462188,13323.706956,-9269.755526
85.033330,8290.306550,12583.501014,-16471.053207
85.033639,-2220.617826,6809.894666,2681.334243
85.033949,-11103.089130,7254.018232,14785.643111
85.034258,-740.205942,9770.718434,5822.325785
85.034568,2886.803174,9474.636058,-3217.601092
85.034878,3182.885551,12361.439231,-2068.457845
85.035187,-6587.832884,12213.398043,-459.657299
85.035497,-296.082377,15100.201217,-7814.174080
85.035806,3034.844362,15692.365970,-14325.985813
85.036116,4737.318029,10732.986159,-13866.328514
85.036425,-4441.235652,9548.656652,5745.716235
85.036735,-9474.636058,5921.647536,18845.949251
85.037044,2590.720797,4145.153275,8580.269578
85.037354,6143.709319,5107.421000,-3064.381992
85.037664,592.164754,4293.194464,383.047749
85.037973,-2516.700203,8512.368333,5822.325785
85.038283,2442.679609,10881.027347,-9346.365076
85.038592,9474.636058,15248.242405,-19612.044749
85.038902,-1110.308913,13027.624579,-3983.696590
85.039211,-7920.203579,7624.121203,13330.061665
85.039521,-2886.803174,7994.224174,9346.365076
85.039831,2886.803174,11325.150913,-919.314598
85.040140,296.082377,10955.047942,-2145.067394
85.040450,-2590.720797,9696.697840,766.095498
85.040759,-1924.535449,13175.665768,-7354.516781
85.041069,5403.503377,15766.386565,-16854.100956
85.041378,4071.132681,12879.583391,-14709.033562
85.041688,-2294.638420,5477.523971,-229.828649
85.041997,-8660.409521,5181.441594,18233.072852
85.042307,-1554.432478,2738.761985,14172.766713
85.042617,6439.791695,3478.967927,-2528.115143
85.042926,2960.823768,2294.638420,-2834.553343
85.043236,-3478.967927,9252.574275,3600.648841
85.043545,1850.514855,11769.274478,-6971.469032
85.043855,8364.327145,16062.468941,-20378.140247
85.044164,3108.864956,13545.768739,-9422.974625
85.044474,-11547.212695,10732.986159,8963.317327
85.044784,-3256.906145,9252.574275,11491.432470
85.045093,1258.350101,10288.862594,4213.525239
85.045403,3034.844362,10214.842000,766.095498
85.045712,-2590.720797,7179.997637,1685.410096
85.046022,-1110.308913,13249.686362,-4826.401637
85.046331,2220.617826,13323.706956,-15398.519510
85.046641,5921.647536,13693.809927,-18769.339701
85.046950,-1776.494261,11695.253884,-4366.744339
85.047260,-6809.894666,7402.059420,15015.471761
85.047570,-296.082377,4737.318029,14632.424012
85.047879,3552.988522,4293.194464,689.485948
85.048189,4737.318029,2960.823768,-2451.505594
85.048498,-2220.617826,5329.482782,3983.696590
85.048808,-444.123565,11103.089130,0.000000
85.049117,7105.977043,14211.954086,-15781.567259
85.049427,2368.659014,14285.974681,-11951.089769
85.049736,-4367.215058,7772.162391,4366.744339
85.050046,-6143.709319,10214.842000,11951.089769
85.050355,-444.123565,8734.430116,5439.278036
85.050665,3034.844362,8438.347739,842.705048
85.050974,-1702.473667,9918.759623,1302.362347
85.051284,-1776.494261,12879.583391,-3217.601092
85.051593,-0.000000,12139.377449,-16471.053207
85.051902,5255.462188,15248.242405,-17390.367805
85.052212,666.185348,13767.830521,-8044.002729
85.052521,-6883.915261,9992.780217,8886.707777
85.052831,-4663.297435,4441.235652,16777.491406
85.053140,4367.215058,4145.153275,4979.620737
85.053449,4811.338623,2516.700203,-2451.505594
85.053759,-1628.453072,5625.565159,3217.601092
85.054068,-1628.453072,8216.285956,1072.533697
85.054377,2220.617826,12213.398043,-15015.471761
85.054687,6587.832884,12213.398043,-18616.120601
85.054996,-2664.741391,9992.780217,-536.266849
85.055306,-7179.997637,11695.253884,12410.747068
85.055615,-0.000000,9030.512492,7890.783629
85.055924,2664.741391,8956.491898,2068.457845
85.056234,-1924.535449,9548.656652,2298.286494
85.056543,-1480.411884,9622.677246,-2451.505594
85.056853,-222.061783,12213.398043,-11031.775171
85.057162,5033.400406,17246.798449,-18156.463303
85.057471,4145.153275,15544.324782,-15168.690860
85.057781,-1406.391290,9030.512492,3677.258390
85.058090,-6513.812290,6735.874072,18079.853753
85.058400,-2220.617826,2220.617826,12487.356617
85.058709,4367.215058,1924.535449,-1915.238745
85.059018,1110.308913,1924.535449,0.000000
85.059328,-370.102971,7179.997637,-766.095498
85.059637,1184.329507,13175.665768,-12027.699319
85.059946,6291.750507,17764.942608,-19841.873398
85.060256,1258.350101,12879.583391,-8656.879127
85.060565,-4959.379811,7994.224174,12104.308868
85.060875,-1628.453072,7476.080014,14172.766713
85.061184,-1036.288319,7698.141797,6971.469032
85.061493,1036.288319,8512.368333,536.266849
85.061803,-1406.391290,5773.606348,-4060.306139
85.062112,-1332.370696,12435.459826,-9576.193725
85.062422,3627.009116,16580.613101,-16164.615008
85.062731,5255.462188,13101.645173,-15628.348159
85.063040,-2516.700203,11473.192101,-76.609550
85.063350,-10807.006753,6291.750507,18616.120601
85.063659,-2590.720797,2442.679609,16930.710506
85.063969,5403.503377,2960.823768,-995.924147
85.064278,1776.494261,4219.173869,-4136.915689
85.064587,-2886.803174,11103.089130,2911.162892
85.064897,2886.803174,11177.109724,-9729.412825
85.065206,9326.594869,15914.427753,-22063.550342
85.065515,1406.391290,14285.974681,-7431.126331
85.065825,-7994.224174,8216.285956,14402.595362
85.066134,-4589.276840,9548.656652,13713.109414
85.066444,1036.288319,7920.203579,4826.401637
85.066753,2516.700203,8438.347739,1378.971896
85.067062,-3997.112087,8512.368333,-383.047749
85.067372,2812.782580,14211.954086,-9652.803275
85.067681,1480.411884,15692.365970,-16777.491406
85.067991,5921.647536,15174.221811,-16547.662757
85.068300,-0.000000,12361.439231,-3677.258390
85.068609,-10140.821405,8586.388927,16164.615008
85.068919,-4367.215058,3701.029710,18233.072852
85.069228,4367.215058,2294.638420,1685.410096
85.069538,4145.153275,3034.844362,-5439.278036
85.069847,-2294.638420,7105.977043,1532.190996
85.070156,-666.185348,13841.851115,-2911.162892
85.070466,7254.018232,15840.407159,-19995.092498
85.070775,6587.832884,13323.706956,-13559.890315
85.071084,-5477.523971,9992.780217,8197.221829
85.071394,-8068.244768,5107.421000,17850.025103
85.071703,-1628.453072,7031.956449,7890.783629
85.072013,2516.700203,7105.977043,-689.485948
85.072322,1776.494261,11917.315666,-3140.991542
85.072631,-2368.659014,13175.665768,-6971.469032
85.072941,4589.276840,14952.160028,-15858.176809
85.073250,5255.462188,15026.180623,-16088.005458
85.073560,1332.370696,11991.336260,-6588.421283
85.073869,-5329.482782,8586.388927,11108.384721
85.074178,-7476.080014,5033.400406,19765.263848
85.074488,5403.503377,962.267725,3677.258390
85.074797,4959.379811,2294.638420,-5975.544884
85.075107,-444.123565,7179.997637,-1915.238745
85.075416,-1258.350101,12287.418637,-3753.867940
85.075725,6735.874072,12731.542202,-17543.586904
85.076035,7179.997637,12657.521608,-18386.291952
85.076344,-5033.400406,10436.903782,4673.182538
85.076653,-11251.130318,10140.821405,20991.016645
85.076963,296.082377,6365.771101,11644.651570
85.077272,7994.224174,4885.359217,-2451.505594
85.077582,1406.391290,10510.924376,-3370.820191
85.077891,-6809.894666,10807.006753,-1532.190996
85.078200,1554.432478,13767.830521,-12027.699319
85.078510,6957.935855,14952.160028,-20454.749797
85.078819,1554.432478,12435.459826,-10801.946522
85.079129,-8364.327145,9400.615463,11951.089769
85.079438,-8290.306550,6143.709319,20301.530697
85.079747,2368.659014,2664.741391,6971.469032
85.080057,6143.709319,4737.318029,-8197.221829
85.080366,-592.164754,5329.482782,-3983.696590
85.080676,-2738.761985,8068.244768,-1532.190996
85.080985,5699.585753,12361.439231,-14172.766713
85.081294,7254.018232,12583.501014,-18692.730151
85.081604,-2072.576638,10066.800811,1838.629195
85.081913,-13323.706956,9992.780217,21757.112143
85.082222,-444.123565,5181.441594,13483.280765
85.082532,4885.359217,5847.626942,-3677.258390
85.082841,2960.823768,10436.903782,-5592.497135
85.083151,-5921.647536,10288.862594,-3907.087040
85.083460,-888.247130,14730.098246,-11721.261119
85.083769,7476.080014,15692.365970,-18769.339701
85.084079,3627.009116,13989.892304,-13789.718964
85.084388,-9178.553681,8734.430116,9039.926876
85.084698,-8438.347739,6365.771101,20761.187996
85.085007,1406.391290,3775.050304,8044.002729
85.085316,8290.306550,3849.070898,-7814.174080
85.085626,1480.411884,5625.565159,-3600.648841
85.085935,-3552.988522,7994.224174,3217.601092
85.086245,4293.194464,11399.171507,-7584.345430
85.086554,7105.977043,14137.933492,-18079.853753
85.086863,2812.782580,11621.233289,-6281.983084
85.087173,-10732.986159,9104.533087,14019.547613
85.087482,-5329.482782,7254.018232,16471.053207
85.087791,4367.215058,8586.388927,-3447.429741
85.088101,4367.215058,10510.924376,-9499.584175
85.088410,-3849.070898,12731.542202,-1302.362347
85.088720,-2738.761985,13027.624579,-919.314598
85.089029,6587.832884,14211.954086,-14938.862211
85.089338,5551.544565,11399.171507,-14785.643111
85.089648,-4589.276840,9844.739029,4979.620737
85.089957,-10881.027347,5847.626942,20071.702048
85.090267,-1554.432478,3627.009116,10035.851024
85.090576,7624.121203,5107.421000,-5822.325785
85.090885,3997.112087,5033.400406,-6741.640382
85.091195,-4293.194464,6069.688724,1608.800546
85.091504,74.020594,9918.759623,-5362.668486
85.091814,6661.853478,13989.892304,-17926.634653
85.092123,1332.370696,11473.192101,-9422.974625
85.092432,-10510.924376,9918.759623,14325.985813
85.092742,-4145.153275,7624.121203,16624.272307
85.093051,6069.688724,7846.182985,-4596.572988
85.093361,4145.153275,10436.903782,-8963.317327
85.093670,-4219.173869,11843.295072,-1149.143247
85.093979,-2960.823768,10362.883188,-3140.991542
85.094289,3701.029710,11917.315666,-13176.842566
85.094598,7624.121203,11473.192101,-17773.415554
85.094907,-4737.318029,9844.739029,383.047749
85.095217,-8882.471304,7179.997637,17466.977354
85.095526,-2220.617826,4811.338623,13636.499864
85.095836,3256.906145,5773.606348,-4060.306139
85.096145,5403.503377,5773.606348,-9729.412825
85.096454,-4737.318029,6513.812290,459.657299
85.096764,-1036.288319,12805.562797,-383.047749
85.097073,7994.224174,12879.583391,-14709.033562
85.097383,4145.153275,9992.780217,-11031.775171
85.097692,-8512.368333,9992.780217,9959.241474
85.098001,-7772.162391,8364.327145,16624.272307
85.098311,2368.659014,10807.006753,153.219100
85.098620,7179.997637,11399.171507,-12257.527968
85.098930,1184.329507,11325.150913,-3677.258390
85.099239,-4811.338623,9400.615463,919.314598
85.099548,1702.473667,12583.501014,-7814.174080
85.099858,4515.256246,11177.109724,-14096.157163
85.100167,518.144159,9696.697840,-7507.735880
85.100476,-7772.162391,7179.997637,10878.556072
85.100786,-4589.276840,7476.080014,14709.033562
85.101095,4811.338623,6217.729913,153.219100
85.101405,7846.182985,5255.462188,-8580.269578
85.101714,-1332.370696,5329.482782,0.000000
85.102023,-4737.318029,7550.100608,3753.867940
85.102333,3627.009116,12953.603985,-9806.022374
85.102642,6365.771101,12805.562797,-15781.567259
85.102952,-1258.350101,9178.553681,-306.438199
85.103261,-8734.430116,10436.903782,14555.814462
85.103570,-222.061783,8882.471304,4749.792088
85.103880,6365.771101,10362.883188,-7967.393179
85.104189,-444.123565,11325.150913,-3370.820191
85.104499,-2368.659014,8216.285956,3140.991542
85.104808,-0.000000,9992.780217,-3677.258390
85.105117,5699.585753,11843.295072,-13483.280765
85.105427,-592.164754,9844.739029,-7584.345430
85.105736,-5329.482782,7254.018232,7660.954980
85.106045,-3256.906145,8808.450710,11951.089769
85.106355,1628.453072,7550.100608,2528.115143
85.106664,2960.823768,5995.668130,-4826.401637
85.106974,-2220.617826,6143.709319,-1608.800546
85.107283,-2590.720797,7476.080014,1991.848295
85.107592,2516.700203,10584.944971,-6818.249932
85.107902,6217.729913,12213.398043,-13942.938064
85.108211,-222.061783,11473.192101,-3677.258390
85.108521,-5995.668130,8882.471304,11184.994271
85.108830,-2812.782580,10066.800811,9652.803275
85.109139,1850.514855,8364.327145,-3753.867940
85.109449,2590.720797,10140.821405,-4443.353888
85.109758,-2072.576638,9622.677246,1991.848295
85.110068,-0.000000,10955.047942,-5286.058936
85.110377,3330.926739,11843.295072,-13942.938064
85.110686,1184.329507,9770.718434,-13406.671215
85.110996,-3552.988522,10288.862594,766.095498
85.111305,-3997.112087,10881.027347,14172.766713
85.111614,1332.370696,7846.182985,8044.002729
85.111924,6143.709319,6365.771101,-4443.353888
85.112233,2368.659014,6365.771101,-1532.190996
85.112543,-6291.750507,5699.585753,3907.087040
85.112852,740.205942,8216.285956,-2681.334243
85.113161,6809.894666,12213.398043,-15015.471761
85.113471,1554.432478,15544.324782,-11338.213370
85.113780,-6143.709319,11991.336260,5669.106685
85.114090,-4811.338623,9844.739029,11951.089769
85.114399,2368.659014,10658.965565,995.924147
85.114708,3849.070898,7994.224174,-4903.011187
85.115018,-3552.988522,9104.533087,2911.162892
85.115327,-3330.926739,9326.594869,1225.752797
85.115637,2072.576638,11177.109724,-12180.918418
85.115946,5921.647536,13545.768739,-17773.415554
85.116255,-1406.391290,12139.377449,-5975.544884
85.116565,-5995.668130,8882.471304,10572.117872
85.116874,-1850.514855,5033.400406,13023.623466
85.117183,3404.947333,4219.173869,2528.115143
85.117493,3330.926739,4367.215058,-1762.019645
85.117802,-3108.864956,3849.070898,3370.820191
85.118112,-1776.494261,9252.574275,0.000000
85.118421,7698.141797,14359.995275,-13483.280765
85.118730,5329.482782,11177.109724,-15628.348159
85.119040,-5773.606348,11991.336260,2604.724693
85.119349,-7254.018232,12731.542202,11644.651570
85.119659,3478.967927,12805.562797,0.000000
85.119968,2664.741391,10140.821405,-4060.306139
85.120277,-1184.329507,8808.450710,3677.258390
85.120587,-4515.256246,7772.162391,2604.724693
85.120896,3256.906145,9918.759623,-10878.556072
85.121206,6735.874072,12139.377449,-17466.977354
85.121515,-2294.638420,11103.089130,-5515.887586
85.121824,-3478.967927,8438.347739,9499.584175
85.122134,-3997.112087,7698.141797,13713.109414
85.122443,2368.659014,5477.523971,2987.772442
85.122752,3182.885551,3849.070898,-3830.477490
85.123062,-1332.370696,2960.823768,2068.457845
85.123371,-3701.029710,10436.903782,-306.438199
85.123681,6143.709319,13989.892304,-13866.328514
85.123990,6069.688724,14582.057057,-17466.977354
85.124299,-4219.173869,10658.965565,383.047749
85.124609,-7254.018232,12287.418637,14709.033562
85.124918,-2220.617826,11177.109724,8810.098227
85.125228,3701.029710,8882.471304,-2451.505594
85.125537,1776.494261,9326.594869,-2451.505594
85.125846,-4663.297435,10658.965565,-306.438199
85.126156,-962.267725,10584.944971,-6588.421283
85.126465,4737.318029,12509.480420,-16777.491406
85.126775,2516.700203,10214.842000,-12947.013916
85.127084,-3034.844362,10288.862594,6052.154434
85.127393,-7105.977043,5329.482782,16624.272307
85.127703,962.267725,4885.359217,8810.098227
85.128012,4737.318029,3256.906145,-2451.505594
85.128321,1924.535449,4219.173869,-2298.286494
85.128631,-6661.853478,9178.553681,2451.505594
85.128940,2960.823768,14063.912898,-8044.002729
85.129250,8216.285956,13175.665768,-17083.929605
85.129559,148.041188,13693.809927,-6588.421283
85.129868,-7550.100608,11029.068536,12563.966167
85.130178,-3849.070898,11103.089130,11338.213370
85.130487,4071.132681,8512.368333,-229.828649
85.130797,1850.514855,10732.986159,-2911.162892
85.131106,-4071.132681,9474.636058,2298.286494
85.131415,-1258.350101,11621.233289,-4596.572988
85.131725,3034.844362,11917.315666,-18845.949251
85.132034,4515.256246,12361.439231,-16011.395908
85.132344,-3849.070898,10955.047942,2681.334243
85.132653,-5773.606348,8734.430116,16624.272307
85.132962,-222.061783,2590.720797,12870.404366
85.133272,5625.565159,2960.823768,-1072.533697
85.133581,-0.000000,1776.494261,-2528.115143
85.133890,-3256.906145,7105.977043,3294.210641
85.134200,-0.000000,10510.924376,-6511.811733
85.134509,11177.109724,16654.633695,-20071.702048
85.134819,1258.350101,15322.262999,-10495.508323
85.135128,-9474.636058,8586.388927,11261.603821
85.135437,-5329.482782,11473.192101,15168.690860
85.135747,3330.926739,11991.336260,-1532.190996
85.136056,2368.659014,11473.192101,-5822.325785
85.136366,-4219.173869,10732.986159,0.000000
85.136675,-370.102971,11325.150913,-4903.011187
85.136984,4663.297435,10214.842000,-17160.539155
85.137294,4071.132681,13101.645173,-15245.300410
85.137603,-888.247130,11843.295072,1455.581446
85.137913,-6291.750507,7105.977043,18003.244203
85.138222,888.247130,2516.700203,16088.005458
85.138531,4219.173869,3182.885551,1302.362347
85.138841,1702.473667,2146.597232,-5056.230287
85.139150,-1628.453072,5033.400406,1455.581446
85.139459,814.226536,11251.130318,-5745.716235
85.139769,8808.450710,15026.180623,-19382.216099
85.140078,5847.626942,15248.242405,-9882.631924
85.140388,-8956.491898,11547.212695,10112.460574
85.140697,-4885.359217,11769.274478,14938.862211
85.141006,2590.720797,9326.594869,3217.601092
85.141316,1480.411884,12361.439231,-3064.381992
85.141625,-1110.308913,8882.471304,-766.095498
85.141935,814.226536,11473.192101,-5975.544884
85.142244,370.102971,11843.295072,-15015.471761
85.142553,3849.070898,12065.356855,-14632.424012
85.142863,444.123565,11029.068536,-4366.744339
85.143172,-4811.338623,6957.935855,12180.918418
85.143482,-5847.626942,5033.400406,18616.120601
85.143791,4737.318029,1184.329507,7124.688131
85.144100,4885.359217,1110.308913,-7967.393179
85.144410,888.247130,6069.688724,-6281.983084
85.144719,-3627.009116,11917.315666,766.095498
85.145028,6587.832884,15396.283594,-12104.308868
85.145338,5995.668130,13619.789333,-13713.109414
85.145647,-4959.379811,13027.624579,4979.620737
85.145957,-7179.997637,11843.295072,15704.957709
85.146266,-1702.473667,10436.903782,6741.640382
85.146575,1184.329507,11621.233289,-2834.553343
85.146885,740.205942,10584.944971,-5515.887586
85.147194,-888.247130,9992.780217,-6894.859482
85.147504,-1776.494261,11399.171507,-9269.755526
85.147813,3034.844362,14434.015869,-12027.699319
85.148122,3034.844362,11103.089130,-6588.421283
85.148432,-4367.215058,6439.791695,10035.851024
85.148741,-6587.832884,2664.741391,17926.634653
85.149051,1258.350101,1554.432478,6741.640382
85.149360,6809.894666,1480.411884,-8963.317327
85.149669,222.061783,5773.606348,-3677.258390
85.149979,-2294.638420,8586.388927,459.657299
85.150288,3404.947333,11991.336260,-9269.755526
85.150597,5181.441594,13915.871710,-15551.738609
85.150907,-3330.926739,11103.089130,-766.095498
85.151216,-9326.594869,10807.006753,13713.109414
85.151526,962.267725,11547.212695,4903.011187
85.151835,4145.153275,14063.912898,-5362.668486
85.152144,1776.494261,10436.903782,-7048.078582
85.152454,814.226536,8068.244768,-3370.820191
85.152763,-2812.782580,9252.574275,-4060.306139
85.153073,6513.812290,12879.583391,-11797.870669
85.153382,3182.885551,11547.212695,-10112.460574
85.153691,-3627.009116,11177.109724,4136.915689
85.154001,-6587.832884,6069.688724,17313.758255
85.154310,4441.235652,2590.720797,9576.193725
85.154620,5477.523971,2886.803174,-8044.002729
85.154929,2886.803174,2886.803174,-7890.783629
85.155239,-3552.988522,8512.368333,3370.820191
85.155548,1036.288319,10881.027347,-1225.752797
85.155857,8512.368333,15544.324782,-14785.643111
85.156167,592.164754,14285.974681,-7201.297681
85.156476,-7994.224174,8512.368333,13330.061665
85.156786,-3627.009116,10510.924376,13176.842566
85.157095,3034.844362,11029.068536,-4136.915689
85.157404,3034.844362,11325.150913,-9269.755526
85.157714,-2220.617826,8956.491898,-536.266849
85.158023,-3404.947333,12361.439231,-2068.457845
85.158333,2146.597232,11695.253884,-11797.870669
85.158642,1702.473667,11621.233289,-17083.929605
85.158951,-2886.803174,11399.171507,2145.067394
85.159261,-5921.647536,7402.059420,14096.157163
85.159570,-444.123565,6809.894666,8580.269578
85.159880,6365.771101,3552.988522,-6281.983084
85.160189,3552.988522,2738.761985,-9652.803275
85.160498,-3108.864956,5773.606348,3447.429741
85.160808,-3330.926739,7105.977043,2068.457845
85.161117,6735.874072,12879.583391,-10801.946522
85.161427,4663.297435,11473.192101,-12257.527968
85.161736,-4293.194464,10658.965565,6128.763984
85.162046,-5329.482782,10732.986159,14402.595362
85.162355,2960.823768,12287.418637,-383.047749
85.162664,4515.256246,11473.192101,-10725.336972
85.162974,-2664.741391,7476.080014,-2145.067394
85.163283,-6513.812290,11103.089130,2145.067394
85.163593,2664.741391,10881.027347,-7737.564530
85.163902,5847.626942,13545.768739,-14709.033562
85.164211,-296.082377,12583.501014,-2221.676944
85.164521,-8438.347739,9030.512492,13789.718964
85.164830,-1332.370696,6587.832884,11338.213370
85.165140,5551.544565,5921.647536,-3677.258390
85.165449,5181.441594,2738.761985,-8197.221829
85.165758,-740.205942,3849.070898,-689.485948
85.166068,-3404.947333,7328.038826,3677.258390
85.166377,3849.070898,11325.150913,-6358.592633
85.166687,6069.688724,12065.356855,-11797.870669
85.166996,-2738.761985,8438.347739,919.314598
85.167306,-5403.503377,12065.356855,15398.519510
85.167615,-1480.411884,10214.842000,6435.202183
85.167924,3775.050304,11843.295072,-6665.030833
85.168234,1184.329507,10955.047942,-5898.935335
85.168543,-5181.441594,10881.027347,-1225.752797
85.168853,-1110.308913,11547.212695,-4903.011187
85.169162,5255.462188,12139.377449,-13866.328514
85.169471,2516.700203,12287.418637,-8733.488677
85.169781,-7179.997637,9030.512492,10801.946522
85.170090,-2886.803174,8290.306550,15168.690860
85.170400,4959.379811,4885.359217,-766.095498
85.170709,5773.606348,3775.050304,-8427.050478
85.171018,370.102971,2516.700203,1302.362347
85.171328,-7328.038826,5181.441594,6665.030833
85.171637,4515.256246,11177.109724,-4903.011187
85.171947,5625.565159,12139.377449,-13942.938064
85.172256,592.164754,11843.295072,-3140.991542
85.172565,-9030.512492,11103.089130,13023.623466
85.172875,-1480.411884,12361.439231,7277.907231
85.173184,2516.700203,11399.171507,-7354.516781
85.173494,518.144159,9400.615463,-5439.278036
85.173803,-6587.832884,10066.800811,2987.772442
85.174113,-1480.411884,11843.295072,-5286.058936
85.174422,5773.606348,16284.530724,-18386.291952
85.174731,2368.659014,11991.336260,-10725.336972
85.175041,-5773.606348,9992.780217,7277.907231
85.175350,-3256.906145,7031.956449,13406.671215
85.175660,222.061783,4293.194464,2221.676944
85.175969,6439.791695,4515.256246,-4366.744339
85.176278,296.082377,2294.638420,0.000000
85.176588,-4219.173869,5329.482782,5209.449386
85.176897,2590.720797,8586.388927,-3447.429741
85.177207,5403.503377,17098.757260,-12257.527968
85.177516,962.267725,11769.274478,-7660.954980
85.177825,-6217.729913,13841.851115,9422.974625
85.178135,-3034.844362,10881.027347,9116.536426
85.178444,3849.070898,13619.789333,-4366.744339
85.178754,2442.679609,8808.450710,-4519.963438
85.179063,-3330.926739,9030.512492,1685.410096
85.179372,-3034.844362,10658.965565,-2068.457845
85.179682,4293.194464,13397.727550,-12410.747068
85.179991,2442.679609,14582.057057,-15245.300410
85.180301,-1184.329507,11917.315666,-2145.067394
85.180610,-6513.812290,9030.512492,10725.336972
85.180920,1702.473667,3182.885551,8810.098227
85.181229,5699.585753,4293.194464,-2451.505594
85.181538,1036.288319,5255.462188,-689.485948
85.181848,-3775.050304,1998.556043,7431.126331
85.182157,-1554.432478,7179.997637,76.609550
85.182467,7624.121203,12139.377449,-15551.738609
85.182776,3627.009116,12805.562797,-13789.718964
85.183085,-6883.915261,13175.665768,5209.449386
85.183395,-5255.462188,12139.377449,13100.233016
85.183704,2072.576638,11547.212695,1838.629195
85.184014,2738.761985,9622.677246,-4673.182538
85.184323,-2368.659014,8586.388927,-842.705048
85.184632,-5403.503377,10658.965565,383.047749
85.184942,1628.453072,10955.047942,-10725.336972
85.185251,6069.688724,13249.686362,-17773.415554
85.185561,-1258.350101,13693.809927,-5132.839837
85.185870,-9474.636058,7254.018232,14709.033562
85.186180,-2072.576638,6143.709319,12180.918418
85.186489,7179.997637,4589.276840,-2451.505594
85.186798,2664.741391,1628.453072,-2757.943793
85.187108,-6513.812290,3182.885551,7354.516781
85.187417,-3478.967927,5995.668130,842.705048
85.187727,8586.388927,10732.986159,-15551.738609
85.188036,6217.729913,12287.418637,-15015.471761
85.188345,-5551.544565,14582.057057,2145.067394
85.188655,-3256.906145,9104.533087,13330.061665
85.188964,740.205942,11029.068536,5132.839837
85.189274,2072.576638,10140.821405,-4366.744339
85.189583,-444.123565,9104.533087,-2911.162892
85.189892,-5477.523971,10881.027347,-842.705048
85.190202,1628.453072,11621.233289,-8886.707777
85.190511,6883.915261,16062.468941,-18539.511052
85.190821,1554.432478,12953.603985,-9116.536426
85.191130,-6735.874072,10066.800811,11261.603821
85.191439,-4515.256246,9474.636058,12870.404366
85.191749,6069.688724,3034.844362,76.609550
85.192058,4515.256246,148.041188,-3064.381992
85.192368,-1628.453072,2146.597232,4136.915689
85.192677,-3108.864956,5255.462188,459.657299
85.192987,5403.503377,11251.130318,-11951.089769
85.193296,8882.471304,15914.427753,-16471.053207
85.193605,-1332.370696,14656.077652,-4060.306139
85.193915,-6735.874072,10658.965565,14402.595362
85.194224,-74.020594,9178.553681,8733.488677
85.194534,3108.864956,7476.080014,-5286.058936
85.194843,-1628.453072,9030.512492,-3140.991542
85.195152,-5181.441594,9030.512492,4673.182538
85.195462,1998.556043,11547.212695,-9499.584175
85.195771,7402.059420,12731.542202,-22676.426741
85.196081,-1702.473667,13619.789333,-9193.145976
85.196390,-5033.400406,10955.047942,8350.440928
85.196699,-4071.132681,7994.224174,12870.404366
85.197009,962.267725,5995.668130,6588.421283
85.197318,6143.709319,1406.391290,-1915.238745
85.197628,296.082377,1480.411884,-1838.629195
85.197937,-3404.947333,6439.791695,689.485948
85.198247,1776.494261,11103.089130,-8197.221829
85.198556,8438.347739,12139.377449,-16547.662757
85.198865,-0.000000,14508.036463,-6588.421283
85.199175,-9030.512492,10288.862594,15245.300410
85.199484,-1776.494261,13397.727550,14938.862211
85.199794,4515.256246,7031.956449,-2987.772442
85.200103,1628.453072,6217.729913,-9882.631924
85.200412,-5625.565159,7402.059420,2987.772442
85.200722,-888.247130,11103.089130,-6588.421283
85.201031,4367.215058,14730.098246,-18079.853753
85.201341,3330.926739,14063.912898,-12027.699319
85.201650,-4811.338623,13693.809927,2221.676944
85.201959,-6439.791695,8142.265362,14249.376263
85.202269,962.267725,4589.276840,9346.365076
85.202578,2220.617826,2738.761985,-2604.724693
85.202888,1998.556043,2738.761985,-842.705048
85.203197,-4663.297435,4367.215058,1915.238745
85.203506,962.267725,7254.018232,-5745.716235
85.203816,7550.100608,14952.160028,-15858.176809
85.204125,4737.318029,13101.645173,-10495.508323
85.204435,-6513.812290,12583.501014,12180.918418
85.204744,-4959.379811,9030.512492,17696.806004
85.205054,1924.535449,8512.368333,1685.410096
85.205363,4885.359217,6439.791695,-9269.755526
85.205672,-2590.720797,8956.491898,1532.190996
85.205982,-4071.132681,9400.615463,-306.438199
85.206291,3997.112087,12879.583391,-12947.013916
85.206601,5921.647536,16210.510130,-16317.834107
85.206910,-3478.967927,14878.139434,-1455.581446
85.207219,-8068.244768,11325.150913,17543.586904
85.207529,444.123565,6587.832884,9652.803275
85.207838,4441.235652,4071.132681,-2834.553343
85.208148,1998.556043,2812.782580,-3294.210641
85.208457,-1998.556043,3034.844362,3524.039291
85.208766,-1184.329507,6883.915261,-3370.820191
85.209076,7031.956449,13767.830521,-11874.480219
85.209385,4441.235652,12361.439231,-11414.822920
85.209695,-5181.441594,9918.759623,4979.620737
85.210004,-9474.636058,11177.109724,12563.966167
85.210313,3034.844362,9178.553681,5592.497135
85.210623,3404.947333,7179.997637,-10342.289223
85.210932,-518.144159,8216.285956,-5209.449386
85.211242,-7105.977043,9474.636058,2298.286494
85.211551,3256.906145,10362.883188,-9039.926876
85.211861,5847.626942,14359.995275,-16854.100956
85.212170,-2738.761985,14952.160028,-4519.963438
85.212479,-8512.368333,9474.636058,13713.109414
85.212789,-3627.009116,8586.388927,14402.595362
85.213098,4737.318029,5255.462188,-1378.971896
85.213408,2960.823768,3849.070898,-6281.983084
85.213717,-3330.926739,2886.803174,-1302.362347
85.214026,-3478.967927,4515.256246,-1072.533697
85.214336,5255.462188,14508.036463,-13713.109414
85.214645,7624.121203,12879.583391,-12793.794817
85.214955,-5181.441594,12139.377449,3217.601092
85.215264,-5773.606348,9548.656652,18845.949251
85.215573,2960.823768,7476.080014,6205.373534
85.215883,1776.494261,6809.894666,-6588.421283
85.216192,-0.000000,10288.862594,-3830.477490
85.216502,-3330.926739,9326.594869,-919.314598
85.216811,-0.000000,12361.439231,-9116.536426
85.217121,7698.141797,16358.551318,-12257.527968
85.217430,-74.020594,14952.160028,-8273.831378
85.217739,-4811.338623,10658.965565,7354.516781
85.218049,-4367.215058,9474.636058,15628.348159
85.218358,1332.370696,6069.688724,1762.019645
85.218668,6587.832884,3404.947333,-8886.707777
85.218977,-1184.329507,1702.473667,-2068.457845
85.219286,-3627.009116,6957.935855,3447.429741
85.219596,5033.400406,10214.842000,-5898.935335
85.219905,5847.626942,12361.439231,-13330.061665
85.220215,-2072.576638,10807.006753,-919.314598
85.220524,-8956.491898,10807.006753,14249.376263
85.220833,1480.411884,9696.697840,8197.221829
85.221143,2664.741391,7994.224174,-6894.859482
85.221452,4737.318029,8660.409521,-6894.859482
85.221762,-5995.668130,7328.038826,229.828649
85.222071,-3330.926739,10214.842000,-1762.019645
85.222380,3256.906145,12731.542202,-10035.851024
85.222690,3775.050304,15248.242405,-13023.623466
85.222999,-4293.194464,13841.851115,2911.162892
85.223309,-6143.709319,10066.800811,14709.033562
85.223618,2146.597232,7328.038826,4443.353888
85.223928,6439.791695,2960.823768,-6665.030833
85.224237,370.102971,1924.535449,995.924147
85.224546,-5551.544565,4293.194464,4060.306139
85.224856,1184.329507,7994.224174,-2604.724693
85.225165,7476.080014,12953.603985,-11491.432470
85.225475,-148.041188,10658.965565,-6128.763984
85.225784,-9178.553681,7994.224174,12257.527968
85.226093,-3330.926739,12213.398043,10112.460574
85.226403,5329.482782,9622.677246,-7277.907231
85.226712,4145.153275,11399.171507,-12257.527968
85.227022,-6143.709319,8956.491898,383.047749
85.227331,-6143.709319,10066.800811,3447.429741
85.227640,5477.523971,10362.883188,-9806.022374
85.227950,6439.791695,13323.706956,-13636.499864
85.228259,-4515.256246,11917.315666,3753.867940
85.228569,-7550.100608,8660.409521,14249.376263
85.228878,2664.741391,8364.327145,2604.724693
85.229187,5477.523971,5255.462188,-8427.050478
85.229497,1036.288319,4071.132681,-2911.162892
85.229806,-4811.338623,5181.441594,4213.525239
85.230116,-370.102971,9696.697840,-689.485948
85.230425,6883.915261,12953.603985,-9806.022374
85.230735,2220.617826,12731.542202,-8350.440928
85.231044,-5329.482782,12213.398043,4826.401637
85.231353,-1036.288319,11843.295072,11568.042020
85.231663,3182.885551,10214.842000,-2374.896044
85.231972,4589.276840,9622.677246,-9116.536426
85.232282,-2368.659014,7772.162391,612.876398
85.232591,-4293.194464,7624.121203,4443.353888
85.232900,1998.556043,11103.089130,-7354.516781
85.233210,5921.647536,12213.398043,-12640.575717
85.233519,-222.061783,12065.356855,-5132.839837
85.233829,-7031.956449,9252.574275,8886.707777
85.234138,-222.061783,9252.574275,9499.584175
85.234447,2812.782580,5403.503377,-3447.429741
85.234757,3552.988522,5847.626942,-4673.182538
85.235066,-2516.700203,4885.359217,2757.943793
85.235376,-1850.514855,8068.244768,1302.362347
85.235685,6217.729913,9252.574275,-6818.249932
85.235995,3182.885551,13693.809927,-8656.879127
85.236304,-1554.432478,12657.521608,2298.286494
85.236613,-4145.153275,12361.439231,8733.488677
85.236923,-0.000000,12657.521608,689.485948
85.237232,3404.947333,9696.697840,-4749.792088
85.237542,740.205942,8216.285956,-3600.648841
85.237851,-5625.565159,7254.018232,3064.381992
85.238160,-666.185348,9178.553681,-842.705048
85.238470,5181.441594,12509.480420,-9576.193725
85.238779,2812.782580,10510.924376,-8656.879127
85.239089,-4737.318029,9474.636058,7048.078582
85.239398,-4663.297435,11177.109724,11874.480219
85.239707,1110.308913,6883.915261,306.438199
85.240017,4219.173869,6217.729913,-1991.848295
85.240326,-518.144159,5551.544565,-1915.238745
85.240636,-3256.906145,6143.709319,919.314598
85.240945,1406.391290,11547.212695,-4673.182538
85.241254,2664.741391,11917.315666,-9499.584175
85.241564,-296.082377,13767.830521,-3830.477490
85.241873,-4885.359217,11029.068536,7814.174080
85.242183,-2368.659014,11251.130318,6971.469032
85.242492,3849.070898,7698.141797,-3983.696590
85.242802,2738.761985,8290.306550,-6205.373534
85.243111,-3775.050304,6883.915261,2757.943793
85.243420,-3478.967927,9178.553681,1991.848295
85.243730,4293.194464,11991.336260,-10648.727422
85.244039,3775.050304,11177.109724,-12640.575717
85.244349,-1258.350101,15322.262999,2528.115143
85.244658,-4737.318029,10066.800811,10725.336972
85.244967,518.144159,6809.894666,5209.449386
85.245277,4737.318029,7920.203579,-3600.648841
85.245586,74.020594,5403.503377,-5286.058936
85.245896,-3034.844362,5107.421000,2451.505594
85.246205,-1554.432478,10288.862594,-2068.457845
85.246514,6217.729913,13767.830521,-13253.452115
85.246824,3627.009116,13841.851115,-11414.822920
85.247133,-2368.659014,13619.789333,5439.278036
85.247443,-4959.379811,8956.491898,11874.480219
85.247752,3182.885551,8068.244768,1225.752797
85.248061,5033.400406,4959.379811,-5286.058936
85.248371,-2590.720797,6883.915261,2221.676944
85.248680,-4441.235652,8068.244768,3447.429741
85.248990,814.226536,11325.150913,-8580.269578
85.249299,8512.368333,13323.706956,-16547.662757
85.249609,-1776.494261,12213.398043,-4673.182538
85.249918,-7031.956449,10510.924376,11031.775171
85.250227,-814.226536,7179.997637,10189.070123
85.250537,4663.297435,7846.182985,-2145.067394
85.250846,888.247130,5107.421000,-4060.306139
85.251156,-3182.885551,4663.297435,4290.134789
85.251465,-2516.700203,9178.553681,0.000000
85.251774,4737.318029,12879.583391,-11338.213370
85.252084,4811.338623,16062.468941,-11644.651570
85.252393,-4737.318029,13397.727550,1378.971896
85.252702,-5995.668130,11991.336260,13866.328514
85.253012,-148.041188,10066.800811,3907.087040
85.253321,4145.153275,6291.750507,-4826.401637
85.253631,-666.185348,5033.400406,-383.047749
85.253940,-5625.565159,6143.709319,4903.011187
85.254249,740.205942,10584.944971,-6281.983084
85.254559,8068.244768,12657.521608,-17620.196454
85.254868,2220.617826,13619.789333,-9499.584175
85.255177,-8586.388927,11325.150913,9269.755526
85.255487,-1850.514855,9104.533087,13253.452115
85.255796,1924.535449,6143.709319,1915.238745
85.256106,3849.070898,3997.112087,-4366.744339
85.256415,-2294.638420,4145.153275,2451.505594
85.256724,-3182.885551,7105.977043,-919.314598
85.257034,3997.112087,10732.986159,-13866.328514
85.257343,7328.038826,14508.036463,-13176.842566
85.257652,-3478.967927,16654.633695,-2298.286494
85.257962,-4663.297435,12287.418637,10725.336972
85.258271,962.267725,10732.986159,7354.516781
85.258581,4219.173869,5773.606348,-5515.887586
85.258890,888.247130,6661.853478,-1685.410096
85.259199,-5477.523971,6439.791695,3907.087040
85.259509,370.102971,8438.347739,-6052.154434
85.259818,7476.080014,12139.377449,-16700.881856
85.260127,2664.741391,15470.304188,-11874.480219
85.260437,-3775.050304,11177.109724,4903.011187
85.260746,-4071.132681,9844.739029,14479.204912
85.261056,-74.020594,5255.462188,7737.564530
85.261365,666.185348,2590.720797,-4290.134789
85.261674,2738.761985,3034.844362,-1685.410096
85.261984,-3701.029710,5329.482782,-1072.533697
85.262293,1924.535449,10955.047942,-9116.536426
85.262602,6143.709319,14434.015869,-13559.890315
85.262912,-3182.885551,16284.530724,-5439.278036
85.263221,-5773.606348,14434.015869,11338.213370
85.263531,-370.102971,9252.574275,10342.289223
85.263840,1332.370696,6809.894666,-995.924147
85.264149,-962.267725,7846.182985,383.047749
85.264459,-1776.494261,5921.647536,459.657299
85.264768,-888.247130,9326.594869,-8810.098227
85.265077,4663.297435,13397.727550,-17313.758255
85.265387,370.102971,13471.748144,-9959.241474
85.265696,-3182.885551,11695.253884,76.609550
85.266006,-3849.070898,10584.944971,12870.404366
85.266315,-0.000000,4959.379811,9269.755526
85.266624,2294.638420,2886.803174,1072.533697
85.266934,666.185348,3182.885551,-1685.410096
85.267243,148.041188,2960.823768,-1838.629195
85.267552,296.082377,8882.471304,-8350.440928
85.267862,6957.935855,15988.448347,-13100.233016
85.268171,-888.247130,17690.922014,-5439.278036
85.268480,-2146.597232,11103.089130,11644.651570
85.268790,-1406.391290,12435.459826,10418.898773
85.269099,962.267725,9104.533087,-1302.362347
85.269409,-666.185348,7994.224174,-3294.210641
85.269718,-1776.494261,7105.977043,153.219100
85.270027,2664.741391,8882.471304,-10035.851024
85.270337,4071.132681,11917.315666,-15015.471761
85.270646,4145.153275,14063.912898,-8886.707777
85.270955,-4145.153275,12953.603985,2911.162892
85.271265,-1554.432478,8216.285956,11031.775171
85.271574,-370.102971,5181.441594,10495.508323
85.271884,2368.659014,1406.391290,766.095498
85.272193,2294.638420,1110.308913,-3140.991542
85.272502,-4367.215058,4515.256246,-2681.334243
85.272812,3404.947333,9548.656652,-8503.660028
85.273121,4737.318029,16210.510130,-14325.985813
85.273430,1184.329507,16358.551318,-7201.297681
85.273740,-9326.594869,15248.242405,8810.098227
85.274049,148.041188,13619.789333,9806.022374
85.274359,2960.823768,8586.388927,-1608.800546
85.274668,-1702.473667,5403.503377,-2681.334243
85.274977,-3775.050304,5107.421000,612.876398
85.275287,592.164754,7624.121203,-5898.935335
85.275596,6217.729913,10510.924376,-14172.766713
85.275905,4959.379811,14804.118840,-11568.042020
85.276215,-1924.535449,11843.295072,153.219100
85.276524,-4441.235652,9030.512492,12870.404366
85.276834,666.185348,5033.400406,10648.727422
85.277143,3478.967927,3330.926739,-3524.039291
85.277452,-444.123565,2516.700203,-4060.306139
85.277762,-1480.411884,5477.523971,306.438199
85.278071,444.123565,8660.409521,-3753.867940
85.278380,4219.173869,15470.304188,-11184.994271
85.278690,1850.514855,15396.283594,-8733.488677
85.278999,-5995.668130,17172.777854,3753.867940
85.279309,-1702.473667,13619.789333,8656.879127
85.279618,-222.061783,9992.780217,1302.362347
85.279927,-1184.329507,8882.471304,-766.095498
85.280237,-1702.473667,6883.915261,-1762.019645
85.280546,-3478.967927,7105.977043,-3064.381992
85.280855,2960.823768,8808.450710,-6818.249932
85.281165,4589.276840,12731.542202,-11951.089769
85.281474,-1184.329507,12953.603985,-5592.497135
85.281784,-3552.988522,9104.533087,9269.755526
85.282093,-2072.576638,7772.162391,12257.527968
85.282402,1110.308913,3701.029710,2451.505594
85.282712,4663.297435,1554.432478,-2528.115143
85.283021,-0.000000,5329.482782,-2298.286494
85.283330,-592.164754,7772.162391,-2987.772442
85.283640,2294.638420,13323.706956,-7431.126331
85.283949,2220.617826,16580.613101,-9652.803275
85.284259,-3478.967927,13693.809927,-1532.190996
85.284568,-3627.009116,12657.521608,7507.735880
85.284877,-740.205942,10214.842000,3983.696590
85.285187,2220.617826,8438.347739,-3677.258390
85.285496,-2072.576638,7105.977043,-2068.457845
85.285805,-2220.617826,5921.647536,-536.266849
85.286115,-0.000000,10066.800811,-4979.620737
85.286424,6217.729913,12435.459826,-9269.755526
85.286734,1924.535449,13249.686362,-7507.735880
85.287043,-666.185348,9400.615463,2528.115143
85.287352,-4885.359217,7698.141797,12257.527968
85.287662,444.123565,3775.050304,5362.668486
85.287971,3330.926739,4589.276840,-4979.620737
85.288280,1110.308913,5921.647536,-4290.134789
85.288590,-3701.029710,4293.194464,-229.828649
85.288899,962.267725,10288.862594,-3753.867940
85.289208,5255.462188,15840.407159,-9729.412825
85.289518,666.185348,18431.127956,-3830.477490
85.289827,-5699.585753,11991.336260,10878.556072
85.290137,-3849.070898,10584.944971,6052.154434
85.290446,2294.638420,6809.894666,-1762.019645
85.290755,-370.102971,8142.265362,-3294.210641
85.291065,-3034.844362,8882.471304,-459.657299
85.291374,-2294.638420,8734.430116,-995.924147
85.291683,2072.576638,12879.583391,-8503.660028
85.291993,3034.844362,14656.077652,-8350.440928
85.292302,-2368.659014,11695.253884,-612.876398
85.292612,-4737.318029,9326.594869,8810.098227
85.292921,-2220.617826,5255.462188,5975.544884
85.293230,2960.823768,2886.803174,-2068.457845
85.293540,2220.617826,4959.379811,-5439.278036
85.293849,-1924.535449,5033.400406,-1378.971896
85.294158,740.205942,4959.379811,842.705048
85.294468,4441.235652,12731.542202,-6205.373534
85.294777,1702.473667,13397.727550,-6741.640382
85.295087,-3108.864956,13175.665768,1838.629195
85.295396,-4589.276840,11029.068536,7124.688131
85.295705,1036.288319,11473.192101,1149.143247
85.296015,1036.288319,7772.162391,-7277.907231
85.296324,-0.000000,8882.471304,-4596.572988
85.296633,-3108.864956,8808.450710,-689.485948
85.296943,962.267725,10881.027347,-5592.497135
85.297252,4441.235652,13841.851115,-10648.727422
85.297562,1110.308913,11769.274478,-2987.772442
85.297871,-4441.235652,11917.315666,8044.002729
85.298180,-666.185348,6809.894666,7660.954980
85.298490,1776.494261,3775.050304,536.266849
85.298799,3256.906145,3997.112087,-5439.278036
85.299108,-296.082377,3478.967927,-1991.848295
85.299418,-2294.638420,8142.265362,153.219100
85.299727,1998.556043,12509.480420,-4443.353888
85.300037,4367.215058,13249.686362,-8427.050478
85.300346,-0.000000,12065.356855,-2298.286494
85.300655,-2664.741391,10140.821405,6511.811733
85.300965,-2960.823768,8956.491898,5439.278036
85.301274,444.123565,7254.018232,-2068.457845
85.301583,2368.659014,7550.100608,-5132.839837
85.301893,-5403.503377,9252.574275,0.000000
85.302202,-1998.556043,11177.109724,-2757.943793
85.302512,4589.276840,13841.851115,-12410.747068
85.302821,1480.411884,13989.892304,-10418.898773
85.303130,-4145.153275,12657.521608,4903.011187
85.303440,-4145.153275,7624.121203,9959.241474
85.303749,2590.720797,3997.112087,2145.067394
85.304058,4737.318029,2664.741391,-4673.182538
85.304368,-814.226536,3256.906145,536.266849
85.304677,-3627.009116,5551.544565,5209.449386
85.304987,1110.308913,10362.883188,-1455.581446
85.305296,5107.421000,13693.809927,-10572.117872
85.305605,1776.494261,16358.551318,-9422.974625
85.305915,-5699.585753,14285.974681,3753.867940
85.306224,-1702.473667,13841.851115,2681.334243
85.306533,1554.432478,10288.862594,-2987.772442
85.306843,-0.000000,8956.491898,-2374.896044
85.307152,-4663.297435,7179.997637,919.314598
85.307462,-1036.288319,9696.697840,-2298.286494
85.307771,3775.050304,11695.253884,-10035.851024
85.308080,2960.823768,10881.027347,-9039.926876
85.308390,-888.247130,10140.821405,-76.609550
85.308699,-3627.009116,9326.594869,8733.488677
85.309008,-222.061783,5255.462188,4443.353888
85.309318,3997.112087,2516.700203,-2451.505594
85.309627,2146.597232,1998.556043,-1072.533697
85.309936,-3923.091493,4663.297435,4979.620737
85.310246,222.061783,11399.171507,-842.705048
85.310555,5255.462188,15322.262999,-10878.556072
85.310865,3182.885551,16136.489536,-9882.631924
85.311174,-2886.803174,13545.768739,2681.334243
85.311483,-4737.318029,14582.057057,7124.688131
85.311793,3256.906145,9104.533087,-995.924147
85.312102,1554.432478,8586.388927,-3064.381992
85.312411,-2886.803174,7920.203579,1225.752797
85.312721,-3552.988522,7179.997637,3677.258390
85.313030,3552.988522,12731.542202,-9116.536426
85.313340,5625.565159,11843.295072,-14172.766713
85.313649,-592.164754,11843.295072,-4366.744339
85.313958,-5403.503377,8808.450710,9652.803275
85.314268,1110.308913,5033.400406,8350.440928
85.314577,3627.009116,3552.988522,-2374.896044
85.314886,2886.803174,2664.741391,-1302.362347
85.315196,-4367.215058,3478.967927,4366.744339
85.315505,-2146.597232,6291.750507,842.705048
85.315815,5699.585753,14063.912898,-10801.946522
85.316124,4367.215058,14952.160028,-10648.727422
85.316433,-3256.906145,14285.974681,995.924147
85.316743,-4885.359217,13323.706956,8963.317327
85.317052,-1332.370696,11251.130318,4596.572988
85.317361,1702.473667,8290.306550,-2757.943793
85.317671,-1554.432478,8216.285956,-995.924147
85.317980,-4071.132681,9474.636058,-766.095498
85.318290,-814.226536,11621.233289,-7814.174080
85.318599,6143.709319,13841.851115,-15704.957709
85.318908,1406.391290,13027.624579,-7354.516781
85.319218,-5477.523971,12509.480420,9882.631924
85.319527,-1924.535449,6217.729913,12793.794817
85.319836,888.247130,888.247130,766.095498
85.320146,4589.276840,2590.720797,-1225.752797
85.320455,-3256.906145,2368.659014,2911.162892
85.320765,-3404.947333,7402.059420,-766.095498
85.321074,3997.112087,10881.027347,-9806.022374
85.321383,2738.761985,16654.633695,-11031.775171
85.321693,-1406.391290,16358.551318,-3677.258390
85.322002,-4219.173869,12139.377449,9652.803275
85.322311,-1998.556043,10214.842000,7354.516781
85.322621,740.205942,7920.203579,1378.971896
85.322930,1332.370696,7772.162391,-3600.648841
85.323240,-4145.153275,8290.306550,-1149.143247
85.323549,518.144159,11325.150913,-7967.393179
85.323858,7031.956449,14878.139434,-15858.176809
85.324168,888.247130,15470.304188,-6894.859482
85.324477,-3923.091493,10881.027347,8963.317327
85.324786,-2442.679609,7994.224174,13636.499864
85.325096,2072.576638,2886.803174,3140.991542
85.325405,4071.132681,-370.102971,-536.266849
85.325715,-592.164754,1406.391290,919.314598
85.326024,-3997.112087,6513.812290,-1991.848295
85.326333,2294.638420,13027.624579,-9039.926876
85.326643,5477.523971,15840.407159,-14019.547613
85.326952,-1110.308913,16654.633695,-7277.907231
85.327261,-3923.091493,12879.583391,9499.584175
85.327571,-4145.153275,9474.636058,11414.822920
85.327880,1184.329507,6587.832884,2451.505594
85.328190,1554.432478,5551.544565,-2374.896044
85.328499,-2516.700203,7402.059420,536.266849
85.328808,-1480.411884,9474.636058,-4596.572988
85.329118,3552.988522,15174.221811,-13176.842566
85.329427,2886.803174,15914.427753,-13253.452115
85.329736,-3256.906145,13323.706956,4366.744339
85.330046,-7105.977043,11621.233289,14632.424012
85.330355,814.226536,4293.194464,5439.278036
85.330664,4071.132681,1628.453072,-1762.019645
85.330974,222.061783,1776.494261,1762.019645
85.331283,-3256.906145,3552.988522,2911.162892
85.331593,666.185348,10658.965565,-6052.154434
85.331902,6587.832884,17394.839637,-11568.042020
85.332211,2960.823768,17616.901420,-8350.440928
85.332521,-3701.029710,13397.727550,2834.553343
85.332830,-4293.194464,10881.027347,9576.193725
85.333139,-1924.535449,8586.388927,3524.039291
85.333449,2960.823768,4515.256246,-3983.696590
85.333758,-1850.514855,6735.874072,-1838.629195
85.334068,-4589.276840,7772.162391,-459.657299
85.334377,3478.967927,13619.789333,-10035.851024
85.334686,5551.544565,15766.386565,-14555.814462
85.334996,-2664.741391,13249.686362,-1072.533697
85.335305,-5847.626942,11399.171507,12334.137518
85.335614,444.123565,6217.729913,5286.058936
85.335924,2664.741391,1258.350101,-2604.724693
85.336233,518.144159,1628.453072,919.314598
85.336543,-1628.453072,4737.318029,1149.143247
85.336852,296.082377,8956.491898,-6205.373534
85.337161,3478.967927,13323.706956,-9882.631924
85.337471,4663.297435,16580.613101,-7890.783629
85.337780,-2072.576638,13545.768739,1149.143247
85.338089,-4219.173869,12731.542202,9806.022374
85.338399,-1776.494261,12361.439231,8273.831378
85.338708,1332.370696,4737.318029,-1762.019645
85.339018,-296.082377,7105.977043,-3294.210641
85.339327,-1332.370696,8068.244768,-3447.429741
85.339636,814.226536,12435.459826,-7507.735880
85.339946,2516.700203,18579.169144,-11644.651570
85.340255,-1406.391290,14508.036463,-4596.572988
85.340564,-3034.844362,9696.697840,9806.022374
85.340874,-3923.091493,6957.935855,11338.213370
85.341183,5329.482782,2368.659014,306.438199
85.341493,3034.844362,2812.782580,-3217.601092
85.341802,-2294.638420,3404.947333,-689.485948
85.342111,-1998.556043,8364.327145,-2451.505594
85.342421,3034.844362,13545.768739,-9039.926876
85.342730,6587.832884,13545.768739,-4290.134789
85.343039,-1998.556043,13101.645173,1991.848295
85.343349,-3775.050304,11695.253884,10265.679673
85.343658,-1998.556043,6883.915261,7124.688131
85.343968,740.205942,3849.070898,-842.705048
85.344277,444.123565,5329.482782,-3140.991542
85.344586,-1554.432478,8882.471304,-4903.011187
85.344896,592.164754,11991.336260,-8580.269578
85.345205,2442.679609,16580.613101,-9346.365076
85.345514,1480.411884,17098.757260,-3983.696590
85.345824,-5995.668130,11917.315666,5515.887586
85.346133,-2294.638420,10658.965565,9422.974625
85.346443,1480.411884,1702.473667,1838.629195
85.346752,2738.761985,1998.556043,-3294.210641
85.347061,-1480.411884,3627.009116,-3140.991542
85.347371,-2590.720797,7105.977043,-1915.238745
85.347680,1776.494261,12583.501014,-7660.954980
85.347989,3775.050304,15322.262999,-7277.907231
85.348299,1776.494261,15692.365970,-4290.134789
85.348608,-0.000000,10658.965565,5209.449386
85.348918,-2960.823768,6883.915261,7814.174080
85.349227,-1924.535449,7105.977043,2604.724693
85.349536,2590.720797,6883.915261,-4443.353888
85.349846,-1924.535449,9252.574275,-3370.820191
85.350155,-2590.720797,9918.759623,-5592.497135
85.350464,2812.782580,14211.954086,-8963.317327
85.350774,2812.782580,17468.860231,-8886.707777
85.351083,-3256.906145,13989.892304,3600.648841
85.351392,-2220.617826,8956.491898,11031.775171
85.351702,888.247130,4737.318029,2757.943793
85.352011,1184.329507,1628.453072,-2451.505594
85.352321,2516.700203,3849.070898,0.000000
85.352630,-1036.288319,4367.215058,76.609550
85.352939,-444.123565,8660.409521,-4519.963438
85.353249,3478.967927,14211.954086,-8427.050478
85.353558,3923.091493,14804.118840,-5132.839837
85.353868,-1332.370696,13989.892304,4903.011187
85.354177,-2146.597232,11251.130318,5975.544884
85.354487,-814.226536,6069.688724,1149.143247
85.354796,-1110.308913,7402.059420,-2987.772442
85.355105,444.123565,7105.977043,-2221.676944
85.355415,-444.123565,9622.677246,-5592.497135
85.355724,2146.597232,15544.324782,-10725.336972
85.356034,2294.638420,15470.304188,-7124.688131
85.356343,-2072.576638,13545.768739,1991.848295
85.356653,-2368.659014,11251.130318,7201.297681
85.356962,-444.123565,4367.215058,6971.469032
85.357272,1628.453072,2664.741391,1915.238745
85.357581,1702.473667,3182.885551,-612.876398
85.357891,-296.082377,4663.297435,-689.485948
85.358200,-1332.370696,9178.553681,-2451.505594
85.358510,2886.803174,14211.954086,-7048.078582
85.358819,2960.823768,14359.995275,-6435.202183
85.359128,-2220.617826,15988.448347,612.876398
85.359438,-5181.441594,13619.789333,5362.668486
85.359747,296.082377,8364.327145,-459.657299
85.360057,518.144159,5033.400406,-2834.553343
85.360366,-1036.288319,7179.997637,-1915.238745
85.360676,-2590.720797,7328.038826,-1991.848295
85.360985,2294.638420,12139.377449,-6665.030833
85.361295,3034.844362,15026.180623,-7890.783629
85.361604,-0.000000,11325.150913,-919.314598
85.361914,-3997.112087,10214.842000,6281.983084
85.362223,-0.000000,4589.276840,5132.839837
85.362532,1258.350101,2072.576638,-1685.410096
85.362842,518.144159,2590.720797,-1762.019645
85.363151,-1406.391290,5847.626942,-995.924147
85.363461,-740.205942,10214.842000,-2528.115143
85.363770,4367.215058,14804.118840,-7890.783629
85.364080,4959.379811,13693.809927,-7201.297681
85.364389,-888.247130,15988.448347,766.095498
85.364699,-1554.432478,13101.645173,6358.592633
85.365008,-1628.453072,9770.718434,2911.162892
85.365318,1554.432478,5329.482782,-2298.286494
85.365627,1258.350101,4737.318029,-3370.820191
85.365937,-2220.617826,9474.636058,-3140.991542
85.366246,-296.082377,11251.130318,-3983.696590
85.366555,3923.091493,14582.057057,-8733.488677
85.366865,2072.576638,11695.253884,-7814.174080
85.367174,-2294.638420,10214.842000,4903.011187
85.367484,-2368.659014,6365.771101,7890.783629
85.367793,370.102971,3701.029710,1378.971896
85.368103,3849.070898,2294.638420,-1915.238745
85.368412,-592.164754,666.185348,4366.744339
85.368722,-3256.906145,7550.100608,919.314598
85.369031,1776.494261,12731.542202,-7124.688131
85.369341,3849.070898,15396.283594,-11338.213370
85.369650,-1332.370696,16284.530724,-2374.896044
85.369959,-2960.823768,14211.954086,5056.230287
85.370269,-2368.659014,9326.594869,3524.039291
85.370578,1554.432478,6587.832884,153.219100
85.370888,1184.329507,4441.235652,-1991.848295
85.371197,-4663.297435,6365.771101,306.438199
85.371507,148.041188,10066.800811,-919.314598
85.371816,1776.494261,13397.727550,-8733.488677
85.372126,3256.906145,14285.974681,-8886.707777
85.372435,-888.247130,12361.439231,3064.381992
85.372745,-5403.503377,7920.203579,8044.002729
85.373054,-518.144159,5403.503377,766.095498
85.373363,3775.050304,4663.297435,-1685.410096
85.373673,-148.041188,4441.235652,919.314598
85.373982,-2146.597232,7624.121203,-76.609550
85.374292,-296.082377,9326.594869,-4366.744339
85.374601,1998.556043,12435.459826,-6818.249932
85.374911,2516.700203,16580.613101,-5209.449386
85.375220,-1184.329507,14582.057057,689.485948
85.375530,-1776.494261,11769.274478,3907.087040
85.375839,666.185348,7031.956449,919.314598
85.376149,3627.009116,4885.359217,-4596.572988
85.376458,-2072.576638,3997.112087,229.828649
85.376768,-3775.050304,9844.739029,1915.238745
85.377077,3330.926739,11769.274478,-8273.831378
85.377386,3404.947333,14211.954086,-11874.480219
85.377696,-148.041188,13249.686362,-536.266849
85.378005,-2516.700203,9474.636058,5132.839837
85.378315,962.267725,5033.400406,919.314598
85.378624,2072.576638,4293.194464,919.314598
85.378934,740.205942,3478.967927,1378.971896
85.379243,-518.144159,5033.400406,842.705048
85.379553,-1110.308913,10658.965565,-1838.629195
85.379862,2220.617826,14211.954086,-10112.460574
85.380172,4663.297435,15174.221811,-10112.460574
85.380481,-2368.659014,13323.706956,76.609550
85.380790,-3923.091493,11769.274478,4979.620737
85.381100,-0.000000,7254.018232,229.828649
85.381409,370.102971,4811.338623,-766.095498
85.381719,-518.144159,4737.318029,2681.334243
85.382028,-2886.803174,7031.956449,76.609550
85.382338,1184.329507,11991.336260,-7431.126331
85.382647,4145.153275,11843.295072,-8733.488677
85.382957,814.226536,13323.706956,-4596.572988
85.383266,-1776.494261,10066.800811,4136.915689
85.383576,-1850.514855,7105.977043,6971.469032
85.383885,-222.061783,4885.359217,1991.848295
85.384195,2368.659014,814.226536,-995.924147
85.384504,-2368.659014,6587.832884,842.705048
85.384813,-1480.411884,9474.636058,-2221.676944
85.385123,3627.009116,13249.686362,-10112.460574
85.385432,2072.576638,16802.674883,-9039.926876
85.385742,-370.102971,15544.324782,-612.876398
85.386051,-2072.576638,14434.015869,4443.353888
85.386361,-1036.288319,9622.677246,1915.238745
85.386670,-0.000000,4071.132681,1149.143247
85.386980,-2738.761985,6291.750507,1302.362347
85.387289,-1924.535449,5847.626942,-2757.943793
85.387599,740.205942,9696.697840,-5592.497135
85.387908,3108.864956,13175.665768,-9499.584175
85.388217,4293.194464,11177.109724,-7354.516781
85.388527,-3923.091493,10510.924376,3064.381992
85.388836,-2590.720797,8364.327145,9193.145976
85.389146,1628.453072,3478.967927,1455.581446
85.389455,2146.597232,3478.967927,-766.095498
85.389765,-1184.329507,5033.400406,5286.058936
85.390074,-2072.576638,7920.203579,-2911.162892
85.390384,2738.761985,12805.562797,-10725.336972
85.390693,2516.700203,18135.045579,-10342.289223
85.391003,1702.473667,16136.489536,-2911.162892
85.391312,-592.164754,13767.830521,2528.115143
85.391622,-1258.350101,8364.327145,5362.668486
85.391931,-444.123565,6069.688724,3753.867940
85.392240,148.041188,4663.297435,689.485948
85.392550,-1924.535449,5699.585753,-3370.820191
85.392859,-666.185348,9252.574275,-7124.688131
85.393169,4737.318029,13101.645173,-13330.061665
85.393478,3182.885551,14211.954086,-9806.022374
85.393788,-1110.308913,11103.089130,2834.553343
85.394097,-4145.153275,9474.636058,10801.946522
85.394407,666.185348,3775.050304,6358.592633
85.394716,1184.329507,1702.473667,3217.601092
85.395026,888.247130,2812.782580,1685.410096
85.395335,-666.185348,6513.812290,-2374.896044
85.395644,-888.247130,12657.521608,-6971.469032
85.395954,2960.823768,15470.304188,-9499.584175
85.396263,592.164754,19097.313304,-6894.859482
85.396573,-592.164754,15396.283594,1608.800546
85.396882,-2812.782580,11029.068536,1991.848295
85.397192,-296.082377,8068.244768,2757.943793
85.397501,-1702.473667,4737.318029,995.924147
85.397811,-1924.535449,6809.894666,612.876398
85.398120,-296.082377,9178.553681,-5132.839837
85.398430,2812.782580,11991.336260,-11414.822920
85.398739,3108.864956,13027.624579,-8044.002729
85.399049,-962.267725,13841.851115,229.828649
85.399358,-962.267725,8956.491898,8503.660028
85.399667,-2442.679609,3923.091493,8273.831378
85.399977,-0.000000,1480.411884,1762.019645
85.400286,888.247130,148.041188,0.000000
85.400596,-74.020594,6439.791695,-1378.971896
85.400905,-1036.288319,10066.800811,-6435.202183
85.401215,148.041188,16284.530724,-12257.527968
85.401524,2146.597232,18653.189738,-5515.887586
85.401834,-2368.659014,15544.324782,1378.971896
85.402143,-1184.329507,13545.768739,3677.258390
85.402453,-592.164754,5847.626942,1455.581446
85.402762,-3182.885551,5847.626942,459.657299
85.403071,370.102971,5477.523971,0.000000
85.403381,222.061783,8956.491898,-6665.030833
85.403690,2738.761985,12731.542202,-11644.651570
85.404000,1850.514855,13619.789333,-6741.640382
85.404309,444.123565,13471.748144,1072.533697
85.404619,-1184.329507,10881.027347,7277.907231
85.404928,370.102971,5921.647536,6435.202183
85.405238,-222.061783,-296.082377,3294.210641
85.405547,222.061783,4441.235652,1072.533697
85.405857,-1258.350101,4885.359217,-2987.772442
85.406166,-888.247130,12805.562797,-6741.640382
85.406475,4145.153275,15766.386565,-8580.269578
85.406785,1480.411884,18209.066173,-6818.249932
85.407094,-370.102971,16876.695478,689.485948
85.407404,-1776.494261,12065.356855,4673.182538
85.407713,-2738.761985,7105.977043,2834.553343
85.408023,-1110.308913,3849.070898,3294.210641
85.408332,-3849.070898,8068.244768,-842.705048
85.408642,888.247130,6069.688724,-7354.516781
85.408951,-296.082377,9178.553681,-11414.822920
85.409261,2072.576638,14730.098246,-7890.783629
85.409570,518.144159,12509.480420,-1838.629195
85.409880,2294.638420,9474.636058,6435.202183
85.410189,-2738.761985,5477.523971,9806.022374
85.410498,-296.082377,1998.556043,6052.154434
85.410808,1258.350101,-0.000000,229.828649
85.411117,962.267725,3330.926739,-2451.505594
85.411427,-1110.308913,9400.615463,-4596.572988
85.411736,1406.391290,13915.871710,-8197.221829
85.412046,296.082377,19911.539840,-6665.030833
85.412355,-1702.473667,19023.292709,-536.266849
85.412665,1036.288319,12879.583391,3830.477490
85.412974,-2072.576638,10510.924376,766.095498
85.413284,-4367.215058,7920.203579,2221.676944
85.413593,444.123565,3701.029710,536.266849
85.413902,148.041188,7031.956449,-5745.716235
85.414212,1554.432478,9918.759623,-8044.002729
85.414521,1628.453072,12731.542202,-5745.716235
85.414831,1332.370696,10732.986159,-1991.848295
85.415140,-518.144159,8290.306550,5592.497135
85.415450,-962.267725,10362.883188,8197.221829
85.415759,-444.123565,2812.782580,3064.381992
85.416069,1702.473667,1850.514855,-1225.752797
85.416378,-0.000000,2294.638420,-1915.238745
85.416688,-1110.308913,9844.739029,-5592.497135
85.416997,1184.329507,17246.798449,-5056.230287
85.417307,518.144159,17172.777854,-6435.202183
85.417616,1554.432478,16802.674883,-2221.676944
85.417925,666.185348,14137.933492,1072.533697
85.418235,-1702.473667,7476.080014,459.657299
85.418544,-3034.844362,6365.771101,4290.134789
85.418854,962.267725,4515.256246,1302.362347
85.419163,666.185348,4885.359217,-4443.353888
85.419473,296.082377,10436.903782,-6894.859482
85.419782,1998.556043,13027.624579,-7660.954980
85.420092,962.267725,13915.871710,-5745.716235
85.420401,-148.041188,10584.944971,0.000000
85.420711,-2738.761985,6439.791695,6741.640382
85.421020,-222.061783,2664.741391,4290.134789
85.421329,-296.082377,1850.514855,-1225.752797
85.421639,518.144159,3849.070898,-1378.971896
85.421948,296.082377,7105.977043,-612.876398
85.422258,814.226536,13989.892304,-4290.134789
85.422567,1258.350101,15692.365970,-5056.230287
85.422877,1702.473667,15396.283594,-1762.019645
85.423186,-1924.535449,14137.933492,459.657299
85.423496,-962.267725,12287.418637,1838.629195
85.423805,-1998.556043,6587.832884,3983.696590
85.424115,-3849.070898,4737.318029,2221.676944
85.424424,-1258.350101,6735.874072,-4366.744339
85.424734,296.082377,10066.800811,-7660.954980
85.425043,-666.185348,13027.624579,-7660.954980
85.425352,1110.308913,14730.098246,-4213.525239
85.425662,222.061783,13249.686362,3217.601092
85.425971,1036.288319,9400.615463,4366.744339
85.426281,-2886.803174,4145.153275,4749.792088
85.426590,-0.000000,1480.411884,4443.353888
85.426900,2738.761985,1554.432478,536.266849
85.427209,888.247130,5033.400406,-4596.572988
85.427519,-1702.473667,10658.965565,-1991.848295
85.427828,-888.247130,15396.283594,-4366.744339
85.428138,5181.441594,14656.077652,-7431.126331
85.428447,814.226536,14804.118840,-2757.943793
85.428756,-3627.009116,11399.171507,4749.792088
85.429066,-2368.659014,8882.471304,3064.381992
85.429375,1332.370696,5477.523971,-1149.143247
85.429685,-2516.700203,7846.182985,-1302.362347
85.429994,1258.350101,9622.677246,-4596.572988
85.430304,148.041188,12805.562797,-8350.440928
85.430613,1628.453072,15988.448347,-6128.763984
85.430923,444.123565,12139.377449,-306.438199
85.431232,-296.082377,9770.718434,3064.381992
85.431542,-740.205942,4145.153275,3140.991542
85.431851,592.164754,1554.432478,1915.238745
85.432160,2072.576638,740.205942,536.266849
85.432470,-1258.350101,3478.967927,76.609550
85.432779,-74.020594,10658.965565,-1532.190996
85.433089,888.247130,10807.006753,-5286.058936
85.433398,3330.926739,14804.118840,-7354.516781
85.433708,1480.411884,13915.871710,-2374.896044
85.434017,-3108.864956,11103.089130,-2145.067394
85.434327,-2886.803174,10214.842000,2528.115143
85.434636,-74.020594,5921.647536,1838.629195
85.434946,-1406.391290,7476.080014,1072.533697
85.435255,-740.205942,9326.594869,-3064.381992
85.435565,740.205942,11843.295072,-6358.592633
85.435874,-0.000000,14804.118840,-6741.640382
85.436183,1332.370696,13101.645173,-4443.353888
85.436493,1406.391290,10807.006753,459.657299
85.436802,-2294.638420,7846.182985,536.266849
85.437112,1036.288319,3404.947333,4290.134789
85.437421,1036.288319,-222.061783,2298.286494
85.437731,-592.164754,3404.947333,2298.286494
85.438040,-222.061783,6735.874072,2145.067394
85.438350,-592.164754,13841.851115,-9959.241474
85.438659,3478.967927,14878.139434,-7507.735880
85.438969,-74.020594,16728.654289,-4366.744339
85.439278,-74.020594,15100.201217,-1072.533697
85.439587,-3182.885551,10584.944971,383.047749
85.439897,-222.061783,8364.327145,76.609550
85.440206,-1036.288319,6883.915261,383.047749
85.440516,-2368.659014,7698.141797,-1685.410096
85.440825,-74.020594,9400.615463,-3983.696590
85.441135,-888.247130,13767.830521,-5745.716235
85.441444,2664.741391,12139.377449,-7048.078582
85.441754,666.185348,10510.924376,-919.314598
85.442063,-0.000000,6513.812290,4060.306139
85.442373,592.164754,3330.926739,2987.772442
85.442682,-1258.350101,1258.350101,2834.553343
85.442992,444.123565,1480.411884,3677.258390
85.443301,-1036.288319,5181.441594,612.876398
85.443610,518.144159,11991.336260,-6281.983084
85.443920,3182.885551,15322.262999,-7277.907231
85.444229,1480.411884,16358.551318,-5898.935335
85.444539,-666.185348,17320.819043,-1685.410096
85.444848,-666.185348,14211.954086,919.314598
85.445158,-2960.823768,9400.615463,3753.867940
85.445467,740.205942,8512.368333,3600.648841
85.445777,444.123565,6143.709319,-1455.581446
85.446086,-962.267725,8364.327145,-5209.449386
85.446396,-296.082377,12953.603985,-6128.763984
85.446705,2220.617826,11621.233289,-8120.612279
85.447014,814.226536,12509.480420,-4826.401637
85.447324,444.123565,9548.656652,4290.134789
85.447633,-1702.473667,3108.864956,4826.401637
85.447943,-370.102971,1850.514855,2911.162892
85.448252,1036.288319,-370.102971,6281.983084
85.448562,-1406.391290,3849.070898,2451.505594
85.448871,-74.020594,11029.068536,-4366.744339
85.449181,2220.617826,14582.057057,-8733.488677
85.449490,2294.638420,15322.262999,-7048.078582
85.449800,296.082377,14730.098246,-1685.410096
85.450109,-2072.576638,14211.954086,1532.190996
85.450419,-1702.473667,9696.697840,3447.429741
85.450728,-1406.391290,7105.977043,4519.963438
85.451037,222.061783,6735.874072,2221.676944
85.451347,-2812.782580,7994.224174,-4903.011187
85.451656,148.041188,10955.047942,-8503.660028
85.451966,1998.556043,13101.645173,-7890.783629
85.452275,1998.556043,13471.748144,-4596.572988
85.452543,-0.000000,13323.706956,-612.876398
85.452852,-1554.432478,7846.182985,5745.716235
85.453162,-814.226536,1850.514855,5362.668486
85.453471,1110.308913,-222.061783,5132.839837
85.453781,-1332.370696,4071.132681,2145.067394
85.454090,1480.411884,7254.018232,-6971.469032
85.454399,1924.535449,13249.686362,-12334.137518
85.454709,3552.988522,16062.468941,-8733.488677
85.455018,370.102971,16580.613101,-1455.581446
85.455328,-1036.288319,15026.180623,-689.485948
85.455637,-2294.638420,9400.615463,4903.011187
85.455946,-2368.659014,5033.400406,4903.011187
85.456256,-1110.308913,4293.194464,153.219100
85.456565,1258.350101,8660.409521,-6894.859482
85.456875,962.267725,11695.253884,-8273.831378
85.457184,1036.288319,16284.530724,-8810.098227
85.457494,2220.617826,14359.995275,-4519.963438
85.457803,-592.164754,13027.624579,2145.067394
85.458112,-1258.350101,7476.080014,7048.078582
85.458422,-814.226536,-814.226536,5132.839837
85.458731,814.226536,-518.144159,4443.353888
85.459041,-0.000000,1554.432478,1149.143247
85.459350,-370.102971,7846.182985,-5515.887586
85.459659,444.123565,14952.160028,-10189.070123
85.459969,2664.741391,18579.169144,-9959.241474
85.460278,1702.473667,17542.880825,-3217.601092
85.460588,-0.000000,13915.871710,2145.067394
85.460897,-2442.679609,9474.636058,6435.202183
85.461206,-1776.494261,4441.235652,5822.325785
85.461516,-370.102971,2146.597232,3907.087040
85.461825,296.082377,4959.379811,-4443.353888
85.462135,-0.000000,10658.965565,-9346.365076
85.462444,1406.391290,15914.427753,-8580.269578
85.462753,814.226536,15914.427753,-7201.297681
85.463063,-148.041188,14730.098246,-766.095498
85.463372,-518.144159,10066.800811,5056.230287
85.463682,-2368.659014,3108.864956,7124.688131
85.463991,-2738.761985,-740.205942,2451.505594
85.464301,-74.020594,370.102971,1532.190996
85.464610,-0.000000,5329.482782,-3830.477490
85.464919,1406.391290,13989.892304,-8197.221829
85.465229,1850.514855,17838.963202,-8503.660028
85.465538,3552.988522,17246.798449,-6588.421283
85.465848,-0.000000,15174.221811,1378.971896
85.466157,-4071.132681,11473.192101,5439.278036
85.466466,-666.185348,4293.194464,5439.278036
85.466776,1406.391290,4071.132681,2604.724693
85.467085,296.082377,2960.823768,-2221.676944
85.467395,-1332.370696,9178.553681,-5975.544884
85.467704,1776.494261,15100.201217,-9729.412825
85.468013,1554.432478,15692.365970,-7277.907231
85.468323,592.164754,14730.098246,-1378.971896
85.468632,-1850.514855,11547.212695,4213.525239
85.468942,-888.247130,4589.276840,2987.772442
85.469251,-1036.288319,1332.370696,4060.306139
85.469561,888.247130,3404.947333,2145.067394
85.469870,222.061783,4145.153275,-4596.572988
85.470179,814.226536,11769.274478,-7737.564530
85.470489,1332.370696,16876.695478,-7507.735880
85.470798,4145.153275,18949.272115,-4903.011187
85.471108,3256.906145,15322.262999,-1225.752797
85.471417,-1110.308913,9030.512492,4443.353888
85.471726,-4663.297435,5255.462188,4903.011187
85.472036,-1036.288319,2368.659014,3600.648841
85.472345,222.061783,3849.070898,-1915.238745
85.472655,-888.247130,9696.697840,-5898.935335
85.472964,1702.473667,15988.448347,-9729.412825
85.473273,1406.391290,18283.086767,-8580.269578
85.473583,222.061783,16136.489536,-2911.162892
85.473892,1554.432478,10955.047942,6052.154434
85.474202,-1702.473667,4367.215058,4519.963438
85.474511,-1998.556043,1850.514855,4903.011187
85.474820,444.123565,-1702.473667,3983.696590
85.475130,-222.061783,2146.597232,-2374.896044
85.475439,1628.453072,12657.521608,-2681.334243
85.475749,4441.235652,16950.716072,-8197.221829
85.476058,1924.535449,14582.057057,-9193.145976
85.476368,1850.514855,13249.686362,306.438199
85.476677,-2368.659014,10658.965565,6818.249932
85.476986,-2886.803174,9696.697840,3677.258390
85.477296,-666.185348,2146.597232,2298.286494
85.477605,-2738.761985,4663.297435,2221.676944
85.477915,1258.350101,9474.636058,-5592.497135
85.478224,1332.370696,13767.830521,-12027.699319
85.478533,-666.185348,18357.107362,-8963.317327
85.478843,-148.041188,16580.613101,-766.095498
85.479152,740.205942,13175.665768,2145.067394
85.479462,-2442.679609,7402.059420,3140.991542
85.479771,-740.205942,1406.391290,3064.381992
85.480080,-1184.329507,-2368.659014,4826.401637
85.480390,-0.000000,2812.782580,766.095498
85.480699,592.164754,9178.553681,-6741.640382
85.481009,2738.761985,11769.274478,-13330.061665
85.481318,1998.556043,14952.160028,-5898.935335
85.481628,888.247130,17172.777854,153.219100
85.481937,-814.226536,13101.645173,2451.505594
85.482246,-3256.906145,7920.203579,4060.306139
85.482556,-1554.432478,5625.565159,919.314598
85.482865,1776.494261,5921.647536,-1072.533697
85.483175,2294.638420,7772.162391,-6205.373534
85.483484,-444.123565,13323.706956,-7277.907231
85.483793,-444.123565,17024.736666,-6818.249932
85.484103,1998.556043,17172.777854,-5439.278036
85.484412,1258.350101,13323.706956,-766.095498
85.484722,-444.123565,7550.100608,1378.971896
85.485031,-666.185348,3552.988522,3524.039291
85.485340,-666.185348,-592.164754,4979.620737
85.485650,1332.370696,1776.494261,1225.752797
85.485959,222.061783,6809.894666,-2987.772442
85.486269,1702.473667,11843.295072,-7124.688131
85.486578,2516.700203,13767.830521,-7584.345430
85.486887,-0.000000,16580.613101,-4366.744339
85.487197,1554.432478,13915.871710,2987.772442
85.487506,-2220.617826,9326.594869,2221.676944
85.487816,-1702.473667,6439.791695,766.095498
85.488125,-962.267725,3775.050304,306.438199
85.488435,-2072.576638,5403.503377,-1608.800546
85.488744,814.226536,10807.006753,-5592.497135
85.489053,-0.000000,14730.098246,-7890.783629
85.489363,2220.617826,15544.324782,-4443.353888
85.489672,1554.432478,13397.727550,4443.353888
85.489982,-1110.308913,5699.585753,3064.381992
85.490291,-3034.844362,5921.647536,3524.039291
85.490600,-888.247130,1628.453072,4596.572988
85.490910,1258.350101,1258.350101,1225.752797
85.491219,444.123565,7994.224174,-3370.820191
85.491529,1184.329507,13323.706956,-4443.353888
85.491838,-1332.370696,16432.571912,-5209.449386
85.492147,-0.000000,15248.242405,-3677.258390
85.492457,2294.638420,11769.274478,-1685.410096
85.492766,-1554.432478,10140.821405,1532.190996
85.493076,-296.082377,7550.100608,1838.629195
85.493385,-2146.597232,5625.565159,-919.314598
85.493695,-370.102971,3404.947333,-1455.581446
85.494004,-1924.535449,9104.533087,-1838.629195
85.494313,1110.308913,14063.912898,-6894.859482
85.494623,1406.391290,14434.015869,-7124.688131
85.494932,1036.288319,13545.768739,-306.438199
85.495242,-0.000000,7476.080014,3447.429741
85.495551,-1480.411884,5033.400406,1762.019645
85.495860,-1036.288319,2886.803174,2451.505594
85.496170,-0.000000,1850.514855,3370.820191
85.496479,740.205942,5033.400406,-1455.581446
85.496789,-0.000000,11251.130318,-8044.002729
85.497098,1554.432478,16136.489536,-7354.516781
85.497407,962.267725,15988.448347,-5362.668486
85.497717,1332.370696,16062.468941,-1608.800546
85.498026,1184.329507,11399.171507,1149.143247
85.498336,-2738.761985,7772.162391,1915.238745
85.498645,1110.308913,3997.112087,919.314598
85.498954,-592.164754,3478.967927,1532.190996
85.499264,-1776.494261,8956.491898,-536.266849
85.499573,-444.123565,12731.542202,-7431.126331
85.499883,4663.297435,15766.386565,-7967.393179
85.500192,1850.514855,12435.459826,-4519.963438
85.500502,-592.164754,9548.656652,1608.800546
85.500811,-3330.926739,7550.100608,2681.334243
85.501120,2146.597232,3034.844362,-919.314598
85.501430,1332.370696,2516.700203,1915.238745
85.501739,-2738.761985,4145.153275,2681.334243
85.502049,370.102971,11103.089130,-2221.676944
85.502358,888.247130,13767.830521,-8656.879127
85.502667,592.164754,16062.468941,-7507.735880
85.502977,518.144159,14285.974681,-1149.143247
85.503286,-296.082377,11991.336260,536.266849
85.503596,-2442.679609,9918.759623,1149.143247
85.503905,-592.164754,4959.379811,2604.724693
85.504214,-592.164754,3256.906145,2987.772442
85.504524,-2072.576638,6069.688724,689.485948
85.504833,1258.350101,12361.439231,-4903.011187
85.505143,1628.453072,13175.665768,-9806.022374
85.505452,-740.205942,12287.418637,-6358.592633
85.505762,-962.267725,12139.377449,2068.457845
85.506071,-592.164754,7476.080014,1072.533697
85.506380,740.205942,7772.162391,459.657299
85.506690,-592.164754,3849.070898,1838.629195
85.506999,-2072.576638,3849.070898,4366.744339
85.507309,666.185348,7105.977043,-2528.115143
85.507618,518.144159,12879.583391,-8273.831378
85.507927,518.144159,13249.686362,-7124.688131
85.508237,-0.000000,15396.283594,-1225.752797
85.508546,148.041188,14656.077652,-1532.190996
85.508856,-0.000000,8364.327145,-766.095498
85.509165,-592.164754,7031.956449,1532.190996
85.509474,-2516.700203,1998.556043,3370.820191
85.509784,-592.164754,4737.318029,-306.438199
85.510093,814.226536,9622.677246,-3983.696590
85.510403,1480.411884,12287.418637,-8427.050478
85.510712,2960.823768,14211.954086,-6818.249932
85.511022,2146.597232,12065.356855,995.924147
85.511331,-0.000000,10066.800811,2374.896044
85.511640,-2072.576638,6883.915261,3140.991542
85.511950,-666.185348,2368.659014,4136.915689
85.512259,-0.000000,4589.276840,2834.553343
85.512569,-3552.988522,10807.006753,995.924147
85.512878,1924.535449,12435.459826,-8886.707777
85.513187,-0.000000,14730.098246,-9882.631924
85.513497,-0.000000,13915.871710,-4826.401637
85.513806,444.123565,13397.727550,3140.991542
85.514116,2664.741391,11251.130318,1455.581446
85.514425,-1776.494261,5329.482782,3370.820191
85.514734,888.247130,3034.844362,5822.325785
85.515044,-2886.803174,2590.720797,2604.724693
85.515353,444.123565,8068.244768,-8656.879127
85.515663,740.205942,13101.645173,-9806.022374
85.515972,3182.885551,13101.645173,-10112.460574
85.516281,-0.000000,14211.954086,-2451.505594
85.516591,-1184.329507,11103.089130,4290.134789
85.516900,-2442.679609,6069.688724,3294.210641
85.517210,-518.144159,3701.029710,3677.258390
85.517519,-148.041188,3034.844362,4519.963438
85.517829,-1850.514855,3256.906145,1225.752797
85.518138,2368.659014,11843.295072,-6741.640382
85.518447,1628.453072,16728.654289,-10112.460574
85.518757,-666.185348,17912.983796,-4136.915689
85.519066,-296.082377,15840.407159,153.219100
85.519376,1998.556043,11325.150913,-459.657299
85.519685,-2960.823768,8216.285956,459.657299
85.519994,-1776.494261,3330.926739,5132.839837
85.520304,-1702.473667,2442.679609,4826.401637
85.520613,-1850.514855,5921.647536,-842.705048
85.520923,2294.638420,12805.562797,-7814.174080
85.521232,1702.473667,13101.645173,-12793.794817
85.521541,1702.473667,12731.542202,-5132.839837
85.521851,-1258.350101,12731.542202,3983.696590
85.522160,370.102971,7698.141797,3447.429741
85.522470,518.144159,4071.132681,1991.848295
85.522779,-1332.370696,2664.741391,6588.421283
85.523089,-1036.288319,3627.009116,3294.210641
85.523398,1480.411884,9918.759623,-7277.907231
85.523707,2886.803174,15100.201217,-11951.089769
85.524017,1258.350101,16506.592507,-6511.811733
85.524326,-1480.411884,16358.551318,-459.657299
85.524636,1628.453072,14730.098246,459.657299
85.524945,-296.082377,7698.141797,612.876398
85.525254,-3627.009116,4959.379811,5132.839837
85.525564,-2590.720797,4145.153275,5362.668486
85.525873,-0.000000,4959.379811,-2451.505594
85.526183,1628.453072,10955.047942,-9652.803275
85.526492,3478.967927,15248.242405,-11108.384721
85.526801,-740.205942,12139.377449,-5362.668486
85.527111,1332.370696,10066.800811,3600.648841
85.527420,-2368.659014,10288.862594,6588.421283
85.527730,-0.000000,3923.091493,4903.011187
85.528039,1110.308913,444.123565,4519.963438
85.528348,-1258.350101,2664.741391,306.438199
85.528658,-1258.350101,8068.244768,-5209.449386
85.528967,1110.308913,14434.015869,-10418.898773
85.529277,2368.659014,15766.386565,-9882.631924
85.529586,-296.082377,15248.242405,-1915.238745
85.529896,-2294.638420,14730.098246,4749.792088
85.530205,1036.288319,9622.677246,3217.601092
85.530514,-1998.556043,4367.215058,2068.457845
85.530824,-1924.535449,2442.679609,6052.154434
85.531133,-2368.659014,5255.462188,536.266849
85.531443,1036.288319,12583.501014,-10265.679673
85.531752,3404.947333,14804.118840,-12717.185267
85.532061,1850.514855,14656.077652,-7201.297681
85.532371,-666.185348,11325.150913,4213.525239
85.532680,-1776.494261,9252.574275,6281.983084
85.532990,-1776.494261,4737.318029,5898.935335
85.533299,-222.061783,1036.288319,4519.963438
85.533608,666.185348,222.061783,2145.067394
85.533918,-444.123565,5921.647536,1302.362347
85.534227,2516.700203,12805.562797,-8656.879127
85.534537,1184.329507,14952.160028,-10342.289223
85.534846,-1998.556043,17394.839637,-2451.505594
85.535156,-1406.391290,16580.613101,3217.601092
85.535465,1184.329507,11621.233289,-1302.362347
85.535774,-1258.350101,7920.203579,306.438199
85.536084,-1776.494261,4737.318029,4749.792088
85.536393,-2664.741391,4441.235652,689.485948
85.536703,3256.906145,10140.821405,-8810.098227
85.537012,3256.906145,13175.665768,-12027.699319
85.537321,740.205942,13693.809927,-7201.297681
85.537631,2220.617826,12879.583391,842.705048
85.537940,-814.226536,8660.409521,5822.325785
85.538250,-0.000000,6069.688724,7660.954980
85.538559,666.185348,-296.082377,3524.039291
85.538868,814.226536,-1776.494261,2221.676944
85.539178,-1258.350101,3997.112087,-842.705048
85.539487,740.205942,11177.109724,-6128.763984
85.539797,1924.535449,17468.860231,-11568.042020
85.540106,-1554.432478,18875.251521,-4749.792088
85.540415,-0.000000,18875.251521,1455.581446
85.540725,1110.308913,12065.356855,0.000000
85.541034,370.102971,6735.874072,0.000000
85.541344,-4145.153275,2886.803174,6128.763984
85.541653,-370.102971,2146.597232,4290.134789
85.541963,-444.123565,6143.709319,-5898.935335
85.542272,1406.391290,11991.336260,-10035.851024
85.542581,1924.535449,12731.542202,-8350.440928
85.542891,2220.617826,12657.521608,-1532.190996
85.543200,-518.144159,10140.821405,5209.449386
85.543510,-3182.885551,8068.244768,6205.373534
85.543819,962.267725,1258.350101,4366.744339
85.544128,1258.350101,-1480.411884,2911.162892
85.544438,-2442.679609,4293.194464,-842.705048
85.544747,-1776.494261,12287.418637,-5822.325785
85.545057,-0.000000,18949.272115,-10035.851024
85.545366,1554.432478,18135.045579,-4903.011187
85.545675,-962.267725,19541.436869,1149.143247
85.545985,1332.370696,14804.118840,-919.314598
85.546294,-1924.535449,7846.182985,-383.047749
85.546604,-1258.350101,4737.318029,4519.963438
85.546913,-1776.494261,2590.720797,1225.752797
85.547223,666.185348,4441.235652,-3983.696590
85.547532,1776.494261,11843.295072,-6818.249932
85.547841,740.205942,13101.645173,-6818.249932
85.548151,3997.112087,12583.501014,-1838.629195
85.548460,1110.308913,8142.265362,3907.087040
85.548770,-2368.659014,9178.553681,4903.011187
85.549079,-296.082377,4959.379811,1608.800546
85.549388,-0.000000,592.164754,76.609550
85.549698,370.102971,1702.473667,-1072.533697
85.550007,444.123565,10140.821405,-4443.353888
85.550317,-0.000000,15618.345376,-8350.440928
85.550626,-0.000000,16136.489536,-4136.915689
85.550935,-74.020594,18653.189738,1225.752797
85.551245,1258.350101,14730.098246,-2987.772442
85.551554,-3330.926739,9770.718434,-995.924147
85.551864,-1554.432478,5773.606348,2374.896044
85.552173,-370.102971,2146.597232,76.609550
85.552482,1406.391290,5477.523971,-5286.058936
85.552792,370.102971,11251.130318,-2681.334243
85.553101,1998.556043,12065.356855,-6281.983084
85.553411,3923.091493,13101.645173,-5286.058936
85.553720,-0.000000,8808.450710,3830.477490
85.554030,-1406.391290,7624.121203,5056.230287
85.554339,-2220.617826,6957.935855,995.924147
85.554648,2960.823768,2516.700203,-459.657299
85.554958,1554.432478,4811.338623,-689.485948
85.555267,-1850.514855,8216.285956,-2145.067394
85.555577,296.082377,13693.809927,-6741.640382
85.555886,-1998.556043,16358.551318,-4749.792088
85.556196,2368.659014,16062.468941,-306.438199
85.556505,-296.082377,15840.407159,1455.581446
85.556815,-148.041188,8586.388927,689.485948
85.557124,-2072.576638,5847.626942,2681.334243
85.557434,-2072.576638,6513.812290,2298.286494
85.557743,-1850.514855,3997.112087,-842.705048
85.558053,-1406.391290,10288.862594,-6741.640382
85.558362,2516.700203,14582.057057,-10801.946522
85.558672,370.102971,11399.171507,-6358.592633
85.558981,-0.000000,14211.954086,3524.039291
85.559291,-148.041188,8364.327145,3983.696590
85.559600,-592.164754,5551.544565,4903.011187
85.559910,592.164754,2220.617826,2757.943793
85.560219,1258.350101,-0.000000,2374.896044
85.560529,-592.164754,5107.421000,-2451.505594
85.560838,-1036.288319,11991.336260,-4903.011187
85.561148,2886.803174,16062.468941,-6281.983084
85.561457,3627.009116,15544.324782,-4903.011187
85.561767,1110.308913,14730.098246,919.314598
85.562076,-2590.720797,12287.418637,2757.943793
85.562386,-1406.391290,5255.462188,-153.219100
85.562695,-74.020594,5477.523971,-306.438199
85.563005,-1702.473667,6883.915261,306.438199
85.563314,-148.041188,10584.944971,-4903.011187
85.563624,2886.803174,14434.015869,-10342.289223
85.563933,-962.267725,16136.489536,-3447.429741
85.564243,1036.288319,11917.315666,2298.286494
85.564552,-0.000000,9252.574275,3983.696590
85.564862,-1628.453072,3997.112087,2068.457845
85.565171,518.144159,3627.009116,4213.525239
85.565481,2664.741391,2072.576638,1378.971896
85.565790,-74.020594,2368.659014,-1225.752797
85.566100,-1776.494261,10658.965565,-1532.190996
85.566409,296.082377,14359.995275,-4903.011187
85.566719,888.247130,16358.551318,-5286.058936
85.567028,2812.782580,12953.603985,-1685.410096
85.567338,-1258.350101,11177.109724,1838.629195
85.567647,-1776.494261,7920.203579,0.000000
85.567957,-1406.391290,4737.318029,1225.752797
85.568266,-1628.453072,7179.997637,5132.839837
85.568576,-666.185348,7772.162391,-2221.676944
85.568885,2294.638420,13175.665768,-8044.002729
85.569195,1184.329507,16136.489536,-8427.050478
85.569504,592.164754,12213.398043,-3140.991542
85.569814,-0.000000,9474.636058,2451.505594
85.570123,-814.226536,6957.935855,3217.601092
85.570433,814.226536,2146.597232,766.095498
85.570742,1850.514855,1110.308913,2145.067394
85.571052,-1110.308913,2516.700203,3370.820191
85.571361,-1036.288319,8956.491898,-383.047749
85.571671,2664.741391,13767.830521,-7354.516781
85.571980,592.164754,17394.839637,-8350.440928
85.572290,-222.061783,15248.242405,-1225.752797
85.572599,-74.020594,12509.480420,-1378.971896
85.572909,-2072.576638,9770.718434,-3677.258390
85.573218,-370.102971,7624.121203,842.705048
85.573528,-4071.132681,6365.771101,4749.792088
85.573837,-1628.453072,7105.977043,-612.876398
85.574147,1628.453072,11917.315666,-6741.640382
85.574456,1480.411884,14285.974681,-7660.954980
85.574766,962.267725,11473.192101,-4366.744339
85.575075,592.164754,9178.553681,1685.410096
85.575385,370.102971,9474.636058,2298.286494
85.575694,370.102971,3108.864956,153.219100
85.576004,592.164754,1554.432478,2604.724693
85.576313,-1850.514855,2738.761985,3753.867940
85.576623,-518.144159,7698.141797,306.438199
85.576932,1998.556043,15174.221811,-8886.707777
85.577242,3404.947333,14656.077652,-9729.412825
85.577551,666.185348,16654.633695,-3064.381992
85.577861,888.247130,14211.954086,1838.629195
