#time,accel_x,accel_y,accel_z
145.145160,-148.041188,7994.224174,2987.772442
145.145469,-0.000000,9252.574275,-1455.581446
145.145778,-74.020594,9696.697840,-919.314598
145.146088,296.082377,10362.883188,-919.314598
145.146397,222.061783,9622.677246,-689.485948
145.146706,-0.000000,9104.533087,-1608.800546
145.147016,-74.020594,8734.430116,-1762.019645
145.147325,-296.082377,9400.615463,-689.485948
145.147634,-444.123565,9474.636058,-919.314598
145.147944,740.205942,6809.894666,-2834.553343
145.148253,1258.350101,10658.965565,-1608.800546
145.148563,-1036.288319,9474.636058,-459.657299
145.148872,1036.288319,9548.656652,-1149.143247
145.149181,-740.205942,9400.615463,-766.095498
145.149491,-0.000000,10140.821405,-536.266849
145.149800,444.123565,8290.306550,-1685.410096
145.150109,-0.000000,9474.636058,-1608.800546
145.150419,296.082377,9548.656652,0.000000
145.150728,2368.659014,7846.182985,2374.896044
145.151037,1628.453072,7994.224174,0.000000
145.151347,1554.432478,6735.874072,919.314598
145.151656,4737.318029,7624.121203,3064.381992
145.151965,1850.514855,7254.018232,9116.536426
145.152275,-0.000000,8068.244768,9806.022374
145.152584,2886.803174,7624.121203,9806.022374
145.152893,6513.812290,8364.327145,4366.744339
145.153203,4145.153275,6661.853478,3677.258390
145.153512,-3478.967927,9474.636058,13483.280765
145.153822,-0.000000,12805.562797,13942.938064
145.154131,2442.679609,9474.636058,4060.306139
145.154440,1036.288319,11843.295072,6205.373534
145.154750,-1628.453072,11843.295072,12793.794817
145.155059,-12583.501014,13545.768739,13942.938064
145.155368,25389.063811,20207.622217,-5286.058936
145.155678,-10214.842000,6439.791695,1149.143247
145.155987,-3404.947333,15840.407159,19535.435199
145.156296,-19911.539840,8734.430116,27502.828378
145.156606,4589.276840,17024.736666,1072.533697
145.156915,9474.636058,9992.780217,-3830.477490
145.157224,-9030.512492,9548.656652,8044.002729
145.157534,-4515.256246,10658.965565,7737.564530
145.157843,-2960.823768,6143.709319,1685.410096
145.158153,-2220.617826,8882.471304,4826.401637
145.158462,-3849.070898,3552.988522,17390.367805
145.158771,4737.318029,4367.215058,10955.165621
145.159081,-4737.318029,1184.329507,12487.356617
145.159390,-444.123565,3478.967927,19152.387450
145.159699,-592.164754,6735.874072,9882.631924
145.160009,-1776.494261,4811.338623,1685.410096
145.160318,1184.329507,12213.398043,4519.963438
145.160627,1110.308913,12509.480420,-306.438199
145.160937,2516.700203,14285.974681,-995.924147
145.161246,444.123565,12509.480420,17696.806004
145.161555,1554.432478,8364.327145,23442.522239
145.161865,1850.514855,5995.668130,17083.929605
145.162174,-370.102971,5773.606348,10725.336972
145.162484,-2886.803174,7698.141797,9576.193725
145.162793,5625.565159,14359.995275,-2145.067394
145.163102,6143.709319,15174.221811,-6665.030833
145.163412,1258.350101,17542.880825,6818.249932
145.163721,-8438.347739,16876.695478,18999.168350
145.164030,-4737.318029,12435.459826,14555.814462
145.164340,3478.967927,11769.274478,1455.581446
145.164649,3923.091493,7105.977043,-5898.935335
145.164958,1480.411884,6291.750507,3447.429741
145.165268,-592.164754,10436.903782,14325.985813
145.165577,-1036.288319,11695.253884,15934.786358
145.165886,2442.679609,6661.853478,8886.707777
145.166196,4663.297435,5477.523971,2834.553343
145.166505,-518.144159,-444.123565,3294.210641
145.166814,-7698.141797,3478.967927,7737.564530
145.167124,-518.144159,9030.512492,1149.143247
145.167433,9400.615463,8512.368333,-7890.783629
145.167743,5699.585753,7179.997637,1225.752797
145.168052,-5773.606348,6809.894666,20761.187996
145.168361,-6735.874072,9474.636058,20761.187996
145.168671,3627.009116,9992.780217,4826.401637
145.168980,5699.585753,10066.800811,-4903.011187
145.169289,-4219.173869,12361.439231,-1378.971896
145.169599,-7772.162391,12805.562797,2834.553343
145.169908,3552.988522,14952.160028,-6358.592633
145.170217,9992.780217,14359.995275,-3983.696590
145.170527,-592.164754,10214.842000,16317.834107
145.170836,-4737.318029,7179.997637,28728.581175
145.171145,4737.318029,5329.482782,14709.033562
145.171455,4293.194464,3330.926739,3753.867940
145.171764,-2368.659014,5181.441594,8810.098227
145.172074,2368.659014,5255.462188,2987.772442
145.172383,6143.709319,4071.132681,-3830.477490
145.172692,-4071.132681,-2368.659014,11721.261119
145.173002,-8142.265362,19911.539840,16930.710506
145.173311,14730.098246,15396.283594,14862.252661
145.173620,-17320.819043,7105.977043,18999.168350
145.173930,4663.297435,19985.560434,10955.165621
145.174239,1258.350101,2442.679609,-13330.061665
145.174548,4071.132681,14508.036463,-8963.317327
145.174858,-13249.686362,12657.521608,26966.561530
145.175167,4811.338623,15840.407159,12717.185267
145.175476,4071.132681,11029.068536,689.485948
145.175786,-9696.697840,11473.192101,16471.053207
145.176095,-1110.308913,8512.368333,17543.586904
145.176405,1480.411884,6513.812290,-4826.401637
145.176714,3849.070898,13101.645173,-3983.696590
145.177023,-4515.256246,9844.739029,12717.185267
145.177333,-0.000000,17912.983796,9499.584175
145.177642,4145.153275,10140.821405,2374.896044
145.177951,1480.411884,10214.842000,11797.870669
145.178261,-5181.441594,10881.027347,23672.350888
145.178570,-0.000000,3627.009116,16624.272307
145.178879,4071.132681,4885.359217,7660.954980
145.179189,2368.659014,4663.297435,11644.651570
145.179498,1628.453072,-0.000000,8733.488677
145.179807,4515.256246,6809.894666,3907.087040
145.180117,-3256.906145,11991.336260,14555.814462
145.180426,-7328.038826,9696.697840,17850.025103
145.180736,3775.050304,12583.501014,3447.429741
145.181045,592.164754,7031.956449,-842.705048
145.181354,-8808.450710,6957.935855,10725.336972
145.181664,-5033.400406,9770.718434,15168.690860
145.181973,962.267725,9844.739029,3447.429741
145.182282,4663.297435,10584.944971,2221.676944
145.182592,3997.112087,14952.160028,9959.241474
145.182901,-6735.874072,13545.768739,14172.766713
145.183210,-3034.844362,10584.944971,9806.022374
145.183520,-3034.844362,12879.583391,1378.971896
145.183829,2368.659014,9770.718434,-1455.581446
145.184138,4219.173869,9030.512492,-2528.115143
145.184448,-5329.482782,5033.400406,7660.954980
145.184757,1258.350101,8956.491898,13866.328514
145.185066,-0.000000,4367.215058,13866.328514
145.185376,7846.182985,4885.359217,7967.393179
145.185685,-6365.771101,1554.432478,15628.348159
145.185995,-4071.132681,3849.070898,13559.890315
145.186304,5921.647536,11029.068536,-4060.306139
145.186613,8438.347739,5477.523971,-6894.859482
145.186923,-1110.308913,12805.562797,11261.603821
145.187232,-3034.844362,12953.603985,19995.092498
145.187541,2664.741391,5921.647536,11108.384721
145.187851,7105.977043,8882.471304,3294.210641
145.188160,-7254.018232,5773.606348,17237.148705
145.188469,-2516.700203,13323.706956,5898.935335
145.188779,6143.709319,10955.047942,-10955.165621
145.189088,1702.473667,16210.510130,-9959.241474
145.189397,-5921.647536,16136.489536,7201.297681
145.189707,740.205942,13767.830521,11261.603821
145.190016,6661.853478,11695.253884,1225.752797
145.190326,-2886.803174,9178.553681,10265.679673
145.190635,-5551.544565,9548.656652,16011.395908
145.190944,4219.173869,4811.338623,-383.047749
145.191254,11177.109724,8068.244768,-12563.966167
145.191563,-0.000000,3552.988522,229.828649
145.191872,-2294.638420,7920.203579,11491.432470
145.192182,1184.329507,3108.864956,11874.480219
145.192491,2960.823768,7402.059420,9346.365076
145.192800,-4885.359217,4293.194464,8503.660028
145.193110,-5033.400406,3849.070898,-766.095498
145.193419,6291.750507,10288.862594,-12027.699319
145.193728,-6365.771101,7254.018232,-4213.525239
145.194038,444.123565,19467.416275,383.047749
145.194347,-1702.473667,12879.583391,2145.067394
145.194657,2664.741391,15692.365970,1762.019645
145.194966,-11843.295072,12361.439231,7584.345430
145.195275,-5847.626942,13471.748144,5362.668486
145.195585,5699.585753,12213.398043,-14862.252661
145.195894,148.041188,11325.150913,-15245.300410
145.196203,3775.050304,10881.027347,689.485948
145.196513,2960.823768,3404.947333,6511.811733
145.196822,6069.688724,5551.544565,9193.145976
145.197131,-1998.556043,296.082377,17083.929605
145.197441,-444.123565,370.102971,13483.280765
145.197750,4515.256246,2960.823768,-3447.429741
145.198059,222.061783,5995.668130,-4749.792088
145.198369,1850.514855,11399.171507,-1838.629195
145.198678,6439.791695,8512.368333,-1762.019645
145.198987,-518.144159,11991.336260,-1302.362347
145.199297,-8512.368333,8216.285956,12563.966167
145.199606,2738.761985,12953.603985,9882.631924
145.199916,-592.164754,13397.727550,-3370.820191
145.200225,-3552.988522,16876.695478,-1608.800546
145.200534,-370.102971,16876.695478,-153.219100
145.200844,2590.720797,12583.501014,-12410.747068
145.201153,1406.391290,14878.139434,-13253.452115
145.201463,-7402.059420,12361.439231,6128.763984
145.201772,-2220.617826,12731.542202,10112.460574
145.202081,3997.112087,9548.656652,-3447.429741
145.202391,-2590.720797,8438.347739,-1455.581446
145.202700,-1850.514855,3627.009116,8886.707777
145.203009,7698.141797,1036.288319,-4060.306139
145.203319,2886.803174,2516.700203,-6665.030833
145.203628,-8290.306550,7698.141797,12947.013916
145.203938,-1036.288319,7031.956449,10648.727422
145.204247,3404.947333,12435.459826,-5898.935335
145.204556,-4515.256246,13323.706956,-1149.143247
145.204866,-518.144159,11843.295072,1455.581446
145.205175,3478.967927,10214.842000,-15475.129060
145.205485,-2886.803174,9252.574275,-7507.735880
145.205794,-4441.235652,16358.551318,11568.042020
145.206103,1110.308913,13619.789333,2757.943793
145.206413,370.102971,11473.192101,-7814.174080
145.206722,-1850.514855,13767.830521,6511.811733
145.207031,-1554.432478,10510.924376,2528.115143
145.207341,10288.862594,5477.523971,-12870.404366
145.207650,-1628.453072,4515.256246,536.266849
145.207960,-3330.926739,9992.780217,12793.794817
145.208269,3182.885551,2812.782580,-306.438199
145.208578,3997.112087,9548.656652,-7048.078582
145.208888,-1258.350101,10881.027347,4826.401637
145.209197,444.123565,11695.253884,12027.699319
145.209507,9030.512492,11769.274478,-842.705048
145.209816,888.247130,9474.636058,-306.438199
145.210125,-4293.194464,11843.295072,0.000000
145.210435,740.205942,10658.965565,-6281.983084
145.210744,-518.144159,10881.027347,-13942.938064
145.211053,-0.000000,17098.757260,-4443.353888
145.211363,1998.556043,17987.004391,-2068.457845
145.211672,-962.267725,12509.480420,-4519.963438
145.211982,-2442.679609,5181.441594,3983.696590
145.212291,-2368.659014,6439.791695,7201.297681
145.212600,-888.247130,5625.565159,-3294.210641
145.212910,-222.061783,7402.059420,-8120.612279
145.213219,962.267725,7179.997637,-2987.772442
145.213529,740.205942,5477.523971,-3524.039291
145.213838,-222.061783,3849.070898,383.047749
145.214147,-4737.318029,6513.812290,10572.117872
145.214457,-444.123565,3108.864956,6818.249932
145.214766,3034.844362,2368.659014,-5132.839837
145.215075,-2812.782580,12731.542202,-6358.592633
145.215385,-3552.988522,12213.398043,-2451.505594
145.215694,6513.812290,14952.160028,-12257.527968
145.216004,-74.020594,11473.192101,-8120.612279
145.216313,-5699.585753,12435.459826,9806.022374
145.216622,-2220.617826,10658.965565,7354.516781
145.216932,-2072.576638,7179.997637,-4826.401637
145.217241,-0.000000,11103.089130,-2145.067394
145.217551,1332.370696,9918.759623,-1838.629195
145.217860,7476.080014,10732.986159,-15934.786358
145.218169,296.082377,7402.059420,-2681.334243
145.218479,-2516.700203,12509.480420,13253.452115
145.218788,4145.153275,2368.659014,3830.477490
145.219097,148.041188,8660.409521,-2221.676944
145.219407,-5847.626942,9474.636058,5362.668486
145.219716,4071.132681,7402.059420,-4290.134789
145.220026,7031.956449,11029.068536,-18386.291952
145.220335,-8438.347739,8808.450710,153.219100
145.220644,-4737.318029,14582.057057,15781.567259
145.220954,3923.091493,9474.636058,-4060.306139
145.221263,-518.144159,13841.851115,-8886.707777
145.221573,-2960.823768,15618.345376,4290.134789
145.221882,-0.000000,11547.212695,-3524.039291
145.222191,8068.244768,8512.368333,-12870.404366
145.222501,-666.185348,8438.347739,3140.991542
145.222810,-2368.659014,5477.523971,10189.070123
145.223119,2738.761985,888.247130,2681.334243
145.223429,-1850.514855,6069.688724,1072.533697
145.223738,222.061783,7031.956449,1149.143247
145.224048,5255.462188,9104.533087,-8580.269578
145.224357,-1998.556043,7402.059420,-2681.334243
145.224666,-0.000000,9474.636058,9652.803275
145.224976,4515.256246,6291.750507,1302.362347
145.225285,-2294.638420,12509.480420,-4136.915689
145.225595,-5699.585753,11917.315666,4443.353888
145.225904,3923.091493,13249.686362,-2298.286494
145.226213,10510.924376,17172.777854,-15245.300410
145.226523,-6143.709319,13545.768739,-1685.410096
145.226832,-4663.297435,13101.645173,9652.803275
145.227141,-814.226536,5403.503377,995.924147
145.227451,518.144159,7772.162391,-4673.182538
145.227760,-2664.741391,11029.068536,-1302.362347
145.228070,-1480.411884,10658.965565,-4903.011187
145.228379,6735.874072,9548.656652,-9652.803275
145.228688,-2368.659014,10436.903782,766.095498
145.228998,1554.432478,6365.771101,3830.477490
145.229307,-1332.370696,1332.370696,0.000000
145.229617,-7920.203579,5995.668130,7124.688131
145.229926,518.144159,11103.089130,-306.438199
145.230235,5995.668130,8290.306550,-15858.176809
145.230545,1628.453072,15248.242405,-10265.679673
145.230854,-7550.100608,14508.036463,5209.449386
145.231163,-222.061783,9770.718434,0.000000
145.231473,962.267725,10584.944971,-9193.145976
145.231782,-6587.832884,10066.800811,-995.924147
145.232092,-3701.029710,9548.656652,-1991.848295
145.232401,-370.102971,9030.512492,-10342.289223
145.232710,888.247130,11325.150913,-7584.345430
145.233020,5477.523971,8290.306550,2298.286494
145.233329,592.164754,4515.256246,1149.143247
145.233639,-0.000000,3997.112087,4826.401637
145.233948,-4293.194464,3849.070898,11184.994271
145.234257,7698.141797,6809.894666,-8580.269578
145.234567,4589.276840,10510.924376,-13789.718964
145.234876,-370.102971,10881.027347,383.047749
145.235185,-0.000000,14952.160028,0.000000
145.235495,4811.338623,10288.862594,-9806.022374
145.235804,-4367.215058,11399.171507,3907.087040
145.236114,-6587.832884,12139.377449,11568.042020
145.236423,1924.535449,14063.912898,-6128.763984
145.236732,9474.636058,13101.645173,-16394.443657
145.237042,-3552.988522,10436.903782,459.657299
145.237351,-6365.771101,13249.686362,8120.612279
145.237661,1924.535449,6735.874072,-3524.039291
145.237970,5773.606348,6957.935855,-9576.193725
145.238279,-6513.812290,10955.047942,2298.286494
145.238589,-2886.803174,8660.409521,1915.238745
145.238898,3997.112087,8734.430116,-10648.727422
145.239207,1998.556043,8142.265362,-4826.401637
145.239517,-296.082377,7772.162391,5209.449386
145.239826,-3552.988522,1036.288319,4519.963438
145.240136,-2812.782580,5773.606348,1378.971896
145.240445,-444.123565,10658.965565,-1149.143247
145.240754,7254.018232,7328.038826,-4749.792088
145.241064,1702.473667,12213.398043,-7814.174080
145.241373,-7772.162391,11843.295072,3217.601092
145.241683,1998.556043,14063.912898,383.047749
145.241992,3627.009116,7105.977043,-6435.202183
145.242301,-7772.162391,9696.697840,1149.143247
145.242611,-4737.318029,11547.212695,7277.907231
145.242920,5995.668130,10288.862594,-8350.440928
145.243229,9178.553681,10140.821405,-12717.185267
145.243539,-6365.771101,10510.924376,-689.485948
145.243848,-2664.741391,6217.729913,12717.185267
145.244158,6217.729913,8068.244768,-4979.620737
145.244467,962.267725,6587.832884,-2757.943793
145.244776,-1480.411884,13249.686362,5592.497135
145.245086,4441.235652,7105.977043,-3217.601092
145.245395,740.205942,9696.697840,-7507.735880
145.245705,-1258.350101,14211.954086,4673.182538
145.246014,1110.308913,5699.585753,2834.553343
145.246323,-222.061783,7179.997637,-4136.915689
145.246633,-4145.153275,11991.336260,995.924147
145.246942,5477.523971,11843.295072,-1762.019645
145.247251,1258.350101,11991.336260,-10572.117872
145.247561,-8216.285956,12139.377449,2298.286494
145.247870,-4737.318029,10214.842000,11184.994271
145.248180,8660.409521,5995.668130,-16164.615008
145.248489,3478.967927,6217.729913,-20224.921147
145.248798,-3849.070898,9696.697840,10189.070123
145.249108,444.123565,6587.832884,13942.938064
145.249417,3997.112087,5921.647536,-2834.553343
145.249727,-6291.750507,5255.462188,7201.297681
145.250036,-3627.009116,3997.112087,4596.572988
145.250345,4219.173869,6143.709319,-17696.806004
145.250655,-2960.823768,9178.553681,-11491.432470
145.250964,1480.411884,15692.365970,2911.162892
145.251273,5699.585753,13915.871710,-3294.210641
145.251583,-2738.761985,11029.068536,-383.047749
145.251892,-10881.027347,11473.192101,14709.033562
145.252202,1702.473667,10955.047942,1608.800546
145.252511,8216.285956,11843.295072,-17696.806004
145.252820,-4071.132681,14952.160028,-3830.477490
145.253130,-1628.453072,14434.015869,1915.238745
145.253439,9770.718434,8438.347739,-9193.145976
145.253749,1184.329507,8734.430116,-7660.954980
145.254058,-10362.883188,4367.215058,17466.977354
145.254367,-0.000000,5699.585753,10035.851024
145.254677,9548.656652,6143.709319,-11951.089769
145.254986,-1628.453072,9030.512492,-536.266849
145.255295,1702.473667,5033.400406,4366.744339
145.255605,3627.009116,-74.020594,-7048.078582
145.255914,-7550.100608,8734.430116,919.314598
145.256224,-4737.318029,12287.418637,8810.098227
145.256533,5625.565159,15322.262999,-12334.137518
145.256842,2220.617826,12435.459826,-18386.291952
145.257152,-7031.956449,13915.871710,7660.954980
145.257461,-1110.308913,12657.521608,10265.679673
145.257771,8068.244768,8216.285956,-10265.679673
145.258080,-518.144159,4737.318029,0.000000
145.258389,-5551.544565,9400.615463,5362.668486
145.258699,222.061783,7328.038826,-9882.631924
145.259008,3034.844362,11843.295072,-12180.918418
145.259317,3849.070898,13471.748144,-6511.811733
145.259627,-1184.329507,7846.182985,-536.266849
145.259936,1258.350101,7105.977043,3064.381992
145.260246,-4219.173869,1554.432478,6741.640382
145.260555,3627.009116,9474.636058,-919.314598
145.260864,3627.009116,7105.977043,-6358.592633
145.261174,-4589.276840,11177.109724,459.657299
145.261483,7031.956449,17838.963202,-6128.763984
145.261793,6365.771101,8586.388927,-14172.766713
145.262102,-4959.379811,7920.203579,766.095498
145.262411,-9252.574275,11325.150913,12334.137518
145.262721,4885.359217,10288.862594,-3294.210641
145.263030,5699.585753,9918.759623,-11568.042020
145.263339,-7550.100608,12361.439231,842.705048
145.263649,-3182.885551,10066.800811,-842.705048
145.263958,4441.235652,2442.679609,-11108.384721
145.264268,2368.659014,7994.224174,-8350.440928
145.264577,-4145.153275,10732.986159,4596.572988
145.264886,-4515.256246,6883.915261,6665.030833
145.265196,2442.679609,10584.944971,0.000000
145.265505,-2072.576638,6513.812290,229.828649
145.265815,1110.308913,7031.956449,-1838.629195
145.266124,296.082377,2072.576638,-6128.763984
145.266433,-4737.318029,7402.059420,536.266849
145.266743,5551.544565,12879.583391,-536.266849
145.267052,1258.350101,9696.697840,-7201.297681
145.267361,-2886.803174,13101.645173,1455.581446
145.267671,-6809.894666,13027.624579,9422.974625
145.267980,1924.535449,10732.986159,-7048.078582
145.268290,7105.977043,11621.233289,-12563.966167
145.268599,-4811.338623,11103.089130,3064.381992
145.268908,-1480.411884,10362.883188,3677.258390
145.269218,2368.659014,8290.306550,-4826.401637
145.269527,962.267725,8512.368333,-2451.505594
145.269837,-4663.297435,10881.027347,5056.230287
145.270146,1480.411884,10584.944971,-2528.115143
145.270455,1702.473667,8438.347739,-6281.983084
145.270765,-1258.350101,8734.430116,306.438199
145.271074,3849.070898,5921.647536,-153.219100
145.271383,-1702.473667,5255.462188,1378.971896
145.271693,-4663.297435,8586.388927,4673.182538
145.272002,296.082377,12657.521608,-1991.848295
145.272312,6735.874072,4737.318029,-9422.974625
145.272621,-1406.391290,12583.501014,-4213.525239
145.272930,-5477.523971,14211.954086,6281.983084
145.273240,-0.000000,9918.759623,3753.867940
145.273549,4737.318029,9104.533087,-4903.011187
145.273859,-5551.544565,12139.377449,-2145.067394
145.274168,-1702.473667,10362.883188,-2987.772442
145.274477,2886.803174,7179.997637,-10418.898773
145.274787,3256.906145,11547.212695,-8044.002729
145.275096,1110.308913,8364.327145,383.047749
145.275405,-3256.906145,4811.338623,8503.660028
145.275715,-2220.617826,6661.853478,7967.393179
145.276024,-1628.453072,6661.853478,0.000000
145.276334,4515.256246,9844.739029,-8733.488677
145.276643,3701.029710,11399.171507,-8044.002729
145.276952,1406.391290,9400.615463,-3064.381992
145.277262,-370.102971,8068.244768,-1455.581446
145.277571,962.267725,6587.832884,3064.381992
145.277881,-3849.070898,9918.759623,4366.744339
145.278190,-1924.535449,8586.388927,76.609550
145.278499,-148.041188,13323.706956,-5056.230287
145.278809,8364.327145,13397.727550,-6818.249932
145.279118,-3478.967927,9030.512492,-76.609550
145.279427,-6291.750507,14211.954086,1072.533697
145.279737,-222.061783,9918.759623,-5515.887586
145.280046,5329.482782,11769.274478,-17926.634653
145.280356,-444.123565,13101.645173,-9039.926876
145.280665,74.020594,13619.789333,8044.002729
145.280974,5477.523971,9326.594869,6511.811733
145.281284,4959.379811,5033.400406,3753.867940
145.281593,-1258.350101,-814.226536,9346.365076
145.281903,-814.226536,-3034.844362,6894.859482
145.282212,-1850.514855,5699.585753,-2911.162892
145.282521,1702.473667,14211.954086,-9806.022374
145.282831,2516.700203,15396.283594,-8886.707777
145.283140,1110.308913,14804.118840,-9116.536426
145.283449,-8586.388927,12287.418637,229.828649
145.283759,-8142.265362,11547.212695,2757.943793
145.284068,2072.576638,10807.006753,-1608.800546
145.284378,-592.164754,13619.789333,-4136.915689
145.284687,2886.803174,11991.336260,-1532.190996
145.284996,1702.473667,10658.965565,-4060.306139
145.285306,3330.926739,7476.080014,-5822.325785
145.285615,1628.453072,4959.379811,2298.286494
145.285925,-3108.864956,1480.411884,5975.544884
145.286234,74.020594,6217.729913,3370.820191
145.286543,222.061783,8882.471304,-1608.800546
145.286853,-0.000000,3923.091493,-4519.963438
145.287162,1332.370696,5699.585753,-6818.249932
145.287471,-2072.576638,9548.656652,-3294.210641
145.287781,2886.803174,7624.121203,-689.485948
145.288090,3330.926739,6883.915261,-2374.896044
145.288400,-4145.153275,14508.036463,2604.724693
145.288709,-5033.400406,14211.954086,8044.002729
145.289018,1924.535449,16950.716072,-4596.572988
145.289328,7994.224174,12287.418637,-15168.690860
145.289637,-2220.617826,11325.150913,-2451.505594
145.289947,-3552.988522,10288.862594,6205.373534
145.290256,518.144159,6069.688724,-2068.457845
145.290565,2812.782580,7031.956449,-3294.210641
145.290875,-5477.523971,6957.935855,7584.345430
145.291184,-740.205942,8660.409521,2374.896044
145.291493,4589.276840,6661.853478,-9729.412825
145.291803,-444.123565,8142.265362,-7201.297681
145.292112,-148.041188,9770.718434,2604.724693
145.292422,1924.535449,1480.411884,3524.039291
145.292731,1406.391290,9326.594869,2068.457845
145.293040,-2664.741391,11473.192101,8733.488677
145.293350,4663.297435,7698.141797,4826.401637
145.293659,1628.453072,11547.212695,-3294.210641
145.293969,-6365.771101,11547.212695,842.705048
145.294278,1036.288319,13027.624579,-3064.381992
145.294587,296.082377,10436.903782,-10801.946522
145.294897,-4367.215058,11917.315666,-7048.078582
145.295206,-5625.565159,13989.892304,0.000000
145.295515,2664.741391,8142.265362,-5975.544884
145.295825,2738.761985,5921.647536,-4290.134789
145.296134,-3923.091493,9474.636058,9346.365076
145.296444,222.061783,2886.803174,12104.308868
145.296753,4293.194464,4293.194464,536.266849
145.297062,1480.411884,9622.677246,-2374.896044
145.297372,444.123565,7550.100608,76.609550
145.297681,2664.741391,7550.100608,-2374.896044
145.297991,888.247130,11843.295072,-3677.258390
145.298300,-1776.494261,11991.336260,76.609550
145.298609,1776.494261,7179.997637,-842.705048
145.298919,-5255.462188,11103.089130,-689.485948
145.299228,-2516.700203,12361.439231,4366.744339
145.299537,888.247130,14878.139434,-4213.525239
145.299847,5625.565159,13989.892304,-9959.241474
145.300156,-518.144159,15544.324782,-1378.971896
145.300466,-1480.411884,12435.459826,1991.848295
145.300775,3552.988522,6883.915261,-3524.039291
145.301084,-2368.659014,8734.430116,-459.657299
145.301394,-1924.535449,7624.121203,9729.412825
145.301703,3775.050304,6069.688724,1455.581446
145.302013,4145.153275,2368.659014,-8427.050478
145.302323,-4959.379811,7846.182985,1532.190996
145.302632,-74.020594,4589.276840,2757.943793
145.302942,6957.935855,7624.121203,-11797.870669
145.303252,-1184.329507,8808.450710,-9039.926876
145.303561,2442.679609,10436.903782,6588.421283
145.303871,2590.720797,5921.647536,6128.763984
145.304180,2442.679609,10362.883188,4213.525239
145.304490,-5625.565159,10955.047942,13713.109414
145.304800,-3404.947333,9844.739029,3524.039291
145.305109,3552.988522,14211.954086,-16164.615008
145.305419,3256.906145,14582.057057,-15628.348159
145.305729,-4219.173869,17320.819043,-7201.297681
145.306038,-1628.453072,13249.686362,-4903.011187
145.306348,-740.205942,13027.624579,2681.334243
145.306657,-888.247130,6439.791695,7048.078582
145.306967,-3182.885551,4515.256246,8197.221829
145.307277,3997.112087,3552.988522,2528.115143
145.307586,3849.070898,962.267725,-6971.469032
145.307896,6957.935855,4219.173869,-6435.202183
145.308206,-1258.350101,6809.894666,3600.648841
145.308515,-4219.173869,6365.771101,7124.688131
145.308825,2220.617826,10732.986159,-612.876398
145.309134,5477.523971,6735.874072,-2221.676944
145.309444,-4589.276840,13249.686362,612.876398
145.309754,-5847.626942,11325.150913,2911.162892
145.310063,1924.535449,15914.427753,-10495.508323
145.310373,8734.430116,14285.974681,-15934.786358
145.310683,-5995.668130,12731.542202,-229.828649
145.310992,-4441.235652,9696.697840,10112.460574
145.311302,2072.576638,9548.656652,229.828649
145.311611,2960.823768,12509.480420,-5515.887586
145.311921,296.082377,9252.574275,5515.887586
145.312231,-1406.391290,5995.668130,5439.278036
145.312540,4071.132681,7254.018232,-1991.848295
145.312850,2590.720797,6217.729913,-4366.744339
145.313160,1924.535449,2812.782580,3370.820191
145.313469,-3552.988522,2368.659014,8427.050478
145.313779,-3034.844362,4811.338623,536.266849
145.314088,5181.441594,11843.295072,-7660.954980
145.314398,1998.556043,11991.336260,-6511.811733
145.314708,-3701.029710,12879.583391,4596.572988
145.315017,-5403.503377,16284.530724,7737.564530
145.315327,3034.844362,14508.036463,-4826.401637
145.315637,4811.338623,11399.171507,-10342.289223
145.315946,-3182.885551,9326.594869,842.705048
145.316256,-1110.308913,8956.491898,4443.353888
145.316565,1184.329507,8882.471304,-4749.792088
145.316875,3108.864956,8586.388927,-2451.505594
145.317185,-4293.194464,8808.450710,6971.469032
145.317494,-2442.679609,4145.153275,7890.783629
145.317804,-1628.453072,9770.718434,-3140.991542
145.318114,518.144159,5181.441594,-8120.612279
145.318423,2442.679609,4811.338623,-5975.544884
145.318733,2294.638420,5625.565159,76.609550
145.319042,-3552.988522,8290.306550,6052.154434
145.319352,-518.144159,11769.274478,7737.564530
145.319662,5329.482782,9030.512492,-229.828649
145.319971,-2590.720797,11917.315666,-2068.457845
145.320281,-7031.956449,12879.583391,4903.011187
145.320591,1702.473667,15618.345376,-9499.584175
145.320900,5921.647536,12139.377449,-20684.578446
145.321210,-2146.597232,12139.377449,-3677.258390
145.321519,-8290.306550,11695.253884,12180.918418
145.321829,148.041188,7698.141797,3907.087040
145.322139,1924.535449,6513.812290,-1072.533697
145.322448,-592.164754,9252.574275,919.314598
145.322758,-0.000000,5773.606348,-689.485948
145.323068,6513.812290,5699.585753,-5898.935335
145.323377,2886.803174,6735.874072,-1532.190996
145.323687,-0.000000,10140.821405,8197.221829
145.323996,-1406.391290,4441.235652,6128.763984
145.324306,-4219.173869,8142.265362,306.438199
145.324616,2664.741391,13989.892304,-4290.134789
145.324925,-1480.411884,8660.409521,-8886.707777
145.325235,-1998.556043,11695.253884,-4213.525239
145.325545,-9104.533087,20059.581028,7507.735880
145.325854,-0.000000,14359.995275,-5286.058936
145.326164,7402.059420,14656.077652,-17313.758255
145.326473,-4367.215058,11029.068536,-3294.210641
145.326783,-3182.885551,8290.306550,7737.564530
145.327093,4293.194464,3923.091493,2451.505594
145.327402,5033.400406,4663.297435,0.000000
145.327712,-2664.741391,4737.318029,10495.508323
145.328022,-3701.029710,1480.411884,9882.631924
145.328331,-1406.391290,6809.894666,-5286.058936
145.328641,3627.009116,8512.368333,-13406.671215
145.328950,5477.523971,13175.665768,-13406.671215
145.329260,814.226536,6957.935855,-2451.505594
145.329570,-8142.265362,6809.894666,12487.356617
145.329879,-2664.741391,14804.118840,11031.775171
145.330189,4589.276840,8660.409521,-3524.039291
145.330499,-518.144159,14137.933492,-5822.325785
145.330808,-8512.368333,15396.283594,-919.314598
145.331118,2664.741391,15470.304188,-11184.994271
145.331427,8364.327145,13545.768739,-20531.359346
145.331737,-2886.803174,11177.109724,-2221.676944
145.332047,-5847.626942,3701.029710,13023.623466
145.332356,-3108.864956,3182.885551,10725.336972
145.332666,-1702.473667,6069.688724,1685.410096
145.332976,1924.535449,3775.050304,-1225.752797
145.333285,-888.247130,6883.915261,-9422.974625
145.333595,5699.585753,7846.182985,-12870.404366
145.333904,3256.906145,9104.533087,-2604.724693
145.334214,-3849.070898,9992.780217,5822.325785
145.334524,-1184.329507,8290.306550,5209.449386
145.334833,-4959.379811,9474.636058,6511.811733
145.335143,3256.906145,9918.759623,1608.800546
145.335453,1406.391290,10362.883188,-5822.325785
145.335762,-296.082377,13545.768739,-2834.553343
145.336072,-4441.235652,18209.066173,-766.095498
145.336381,3701.029710,16284.530724,-11414.822920
145.336691,2368.659014,17098.757260,-11338.213370
145.337001,-7179.997637,11547.212695,2834.553343
145.337310,-2886.803174,11251.130318,4596.572988
145.337620,3108.864956,4071.132681,-3907.087040
145.337930,-888.247130,3923.091493,-2834.553343
145.338239,-3552.988522,4885.359217,6281.983084
145.338549,7550.100608,1480.411884,-306.438199
145.338858,4219.173869,2812.782580,-5745.716235
145.339168,-8586.388927,13323.706956,10572.117872
145.339478,296.082377,10658.965565,5745.716235
145.339787,3552.988522,8512.368333,-12640.575717
145.340097,-2220.617826,10658.965565,-4673.182538
145.340407,-3034.844362,14211.954086,5286.058936
145.340716,3108.864956,9548.656652,-7354.516781
145.341026,2146.597232,10436.903782,-6358.592633
145.341335,-4367.215058,13545.768739,10112.460574
145.341645,-2368.659014,10066.800811,1532.190996
145.341955,4885.359217,9178.553681,-12104.308868
145.342264,-3701.029710,12805.562797,3753.867940
145.342574,-6365.771101,13397.727550,2757.943793
145.342884,1554.432478,10214.842000,-12410.747068
145.343193,592.164754,7550.100608,-14249.376263
145.343503,-2516.700203,9252.574275,-766.095498
145.343812,592.164754,8808.450710,1378.971896
145.344122,5107.421000,2590.720797,-1302.362347
145.344432,-3701.029710,3552.988522,11721.261119
145.344741,-2072.576638,4737.318029,15398.519510
145.345051,3775.050304,2664.741391,-2987.772442
145.345361,2072.576638,5847.626942,-7201.297681
145.345670,-814.226536,15248.242405,-4290.134789
145.345980,370.102971,9918.759623,-8810.098227
145.346289,-370.102971,11251.130318,-2374.896044
145.346599,-9474.636058,17987.004391,3294.210641
145.346909,-2886.803174,13027.624579,-5056.230287
145.347218,9104.533087,13915.871710,-12334.137518
145.347528,-0.000000,12361.439231,-2374.896044
145.347838,-4589.276840,8216.285956,12410.747068
145.348147,2294.638420,6143.709319,6894.859482
145.348457,666.185348,5699.585753,-3140.991542
145.348766,-2886.803174,11251.130318,-1915.238745
145.349076,-1184.329507,10658.965565,-1991.848295
145.349386,4811.338623,7550.100608,-12334.137518
145.349695,1924.535449,9030.512492,-6588.421283
145.350005,-1036.288319,9548.656652,6205.373534
145.350315,2442.679609,1258.350101,6052.154434
145.350624,-1850.514855,2368.659014,7048.078582
145.350934,-1776.494261,11621.233289,6052.154434
145.351243,-0.000000,6365.771101,-4519.963438
145.351553,5477.523971,12805.562797,-13023.623466
145.351863,-0.000000,12805.562797,-6128.763984
145.352172,-4145.153275,17394.839637,3064.381992
145.352482,-592.164754,15840.407159,1532.190996
145.352792,-6513.812290,12435.459826,-766.095498
145.353101,-2368.659014,11547.212695,-842.705048
145.353411,2960.823768,8734.430116,-8273.831378
145.353720,-1850.514855,7254.018232,-8733.488677
145.354030,296.082377,14508.036463,-2681.334243
145.354340,3775.050304,8734.430116,-1915.238745
145.354649,2442.679609,5921.647536,-1455.581446
145.354959,-6069.688724,4737.318029,9882.631924
145.355269,296.082377,4959.379811,5439.278036
145.355578,6735.874072,4737.318029,-10342.289223
145.355888,-2886.803174,5181.441594,-1455.581446
145.356197,-2294.638420,15248.242405,3677.258390
145.356507,592.164754,6291.750507,-8350.440928
145.356817,7105.977043,11177.109724,-13559.890315
145.357126,-5551.544565,14804.118840,1838.629195
145.357436,-4959.379811,13841.851115,5822.325785
145.357746,-2072.576638,15618.345376,-3217.601092
145.358055,1110.308913,14508.036463,-7584.345430
145.358365,-1332.370696,11473.192101,-4596.572988
145.358674,-2368.659014,8364.327145,-6818.249932
145.358984,2590.720797,7624.121203,-9499.584175
145.359294,-1332.370696,7772.162391,-995.924147
145.359603,962.267725,10362.883188,3140.991542
145.359913,2072.576638,5921.647536,5209.449386
145.360223,-444.123565,2664.741391,8273.831378
145.360532,-3182.885551,5551.544565,2681.334243
145.360842,2960.823768,5551.544565,-6358.592633
145.361151,2664.741391,7402.059420,-5362.668486
145.361461,-5477.523971,9474.636058,-1608.800546
145.361771,2368.659014,9918.759623,-995.924147
145.362080,1036.288319,11399.171507,-2298.286494
145.362390,-2368.659014,18357.107362,-6665.030833
145.362700,-296.082377,15174.221811,-1455.581446
145.363009,-1110.308913,13545.768739,229.828649
145.363319,-2442.679609,11843.295072,-3600.648841
145.363628,2664.741391,10066.800811,-2681.334243
145.363938,6587.832884,4293.194464,-3524.039291
145.364248,-5255.462188,9104.533087,842.705048
145.364557,-3034.844362,8512.368333,4903.011187
145.364867,4589.276840,6513.812290,-1532.190996
145.365177,2664.741391,4515.256246,-4749.792088
145.365486,-1998.556043,6291.750507,1685.410096
145.365796,-962.267725,5699.585753,1608.800546
145.366105,-0.000000,10214.842000,-2911.162892
145.366415,-4145.153275,11103.089130,-612.876398
145.366725,4737.318029,11843.295072,-1225.752797
145.367034,2664.741391,9622.677246,-5898.935335
145.367344,1258.350101,10362.883188,-766.095498
145.367654,-2220.617826,14211.954086,6741.640382
145.367963,-222.061783,16950.716072,2528.115143
145.368273,-3108.864956,16210.510130,-2528.115143
145.368582,-4441.235652,10288.862594,-1608.800546
145.368892,3256.906145,14285.974681,-11491.432470
145.369202,7920.203579,9696.697840,-20071.702048
145.369511,-222.061783,7550.100608,-2757.943793
145.369821,-9104.533087,6735.874072,16777.491406
145.370131,-2738.761985,2294.638420,14555.814462
145.370440,8142.265362,4959.379811,-1302.362347
145.370750,2812.782580,148.041188,-7584.345430
145.371059,-2368.659014,6513.812290,-1608.800546
145.371369,-1924.535449,8734.430116,306.438199
145.371679,2146.597232,8808.450710,-5439.278036
145.371988,3182.885551,11769.274478,-1838.629195
145.372298,-1850.514855,11769.274478,2451.505594
145.372608,-1924.535449,11843.295072,2528.115143
145.372917,-444.123565,14285.974681,1378.971896
145.373227,2442.679609,15988.448347,-4519.963438
145.373536,-2960.823768,9326.594869,-4213.525239
145.373846,-5033.400406,10658.965565,-689.485948
145.374156,-740.205942,15470.304188,-10495.508323
145.374465,7476.080014,10807.006753,-18386.291952
145.374775,-1110.308913,9178.553681,-3753.867940
145.375085,-6883.915261,7105.977043,13406.671215
145.375394,2368.659014,4663.297435,7354.516781
145.375704,11547.212695,-148.041188,-5209.449386
145.376013,-222.061783,148.041188,3524.039291
145.376323,-5847.626942,7105.977043,14709.033562
145.376633,-1184.329507,2812.782580,1378.971896
145.376942,2294.638420,10436.903782,-11874.480219
145.377252,1480.411884,17246.798449,-11108.384721
145.377562,-0.000000,17987.004391,-11874.480219
145.377871,-3256.906145,13471.748144,-5439.278036
145.378181,-3478.967927,14211.954086,2757.943793
145.378490,-74.020594,15174.221811,-1685.410096
145.378800,2072.576638,9622.677246,-2528.115143
145.379110,-1332.370696,10066.800811,4673.182538
145.379419,-2886.803174,9918.759623,612.876398
145.379729,7772.162391,8290.306550,-9806.022374
145.380039,2220.617826,7402.059420,-4903.011187
145.380348,-6217.729913,8734.430116,6281.983084
145.380658,3404.947333,5403.503377,3217.601092
145.380967,1036.288319,2516.700203,-4443.353888
145.381277,-3849.070898,5773.606348,-1455.581446
145.381587,-1628.453072,5477.523971,-383.047749
145.381896,4367.215058,4441.235652,-8733.488677
145.382206,222.061783,12139.377449,-4136.915689
145.382516,2590.720797,14285.974681,-1532.190996
145.382825,2960.823768,9474.636058,-1149.143247
145.383135,-8216.285956,11325.150913,8886.707777
145.383444,-3256.906145,15470.304188,10955.165621
145.383754,6661.853478,12139.377449,-15168.690860
145.384064,2590.720797,14508.036463,-15781.567259
145.384373,-4737.318029,9326.594869,3677.258390
145.384683,-4071.132681,7846.182985,1762.019645
145.384993,6661.853478,10807.006753,-7431.126331
145.385302,-3404.947333,7994.224174,3983.696590
145.385612,-4959.379811,4663.297435,9116.536426
145.385921,814.226536,666.185348,-2145.067394
145.386231,3997.112087,4589.276840,-8733.488677
145.386541,592.164754,4737.318029,-3600.648841
145.386850,3034.844362,9474.636058,-1838.629195
145.387160,-1110.308913,7254.018232,3217.601092
145.387470,-4145.153275,9326.594869,9499.584175
145.387779,1332.370696,12065.356855,2528.115143
145.388089,2664.741391,8586.388927,-7660.954980
145.388398,-74.020594,14878.139434,0.000000
145.388708,-6439.791695,13693.809927,0.000000
145.389018,4737.318029,13693.809927,-16394.443657
145.389327,518.144159,11177.109724,-7431.126331
145.389637,-8438.347739,10584.944971,2834.553343
145.389947,2368.659014,11177.109724,-3447.429741
145.390256,1924.535449,7772.162391,-5056.230287
145.390566,2072.576638,5181.441594,7431.126331
145.390875,-2294.638420,3627.009116,8044.002729
145.391185,2368.659014,5773.606348,2451.505594
145.391495,2738.761985,3256.906145,612.876398
145.391804,1036.288319,12805.562797,-2757.943793
145.392114,-1110.308913,11399.171507,-6128.763984
145.392424,370.102971,10362.883188,-2528.115143
145.392733,-1406.391290,13989.892304,-5132.839837
145.393043,5403.503377,15840.407159,-9346.365076
145.393352,444.123565,8808.450710,612.876398
145.393662,-9474.636058,6809.894666,8120.612279
145.393972,-518.144159,11769.274478,766.095498
145.394281,7994.224174,9400.615463,-8963.317327
145.394591,2368.659014,11399.171507,-2528.115143
145.394901,-3330.926739,14582.057057,2451.505594
145.395210,-4885.359217,13471.748144,-2528.115143
145.395520,2516.700203,9770.718434,-6665.030833
145.395829,5107.421000,5625.565159,-9346.365076
145.396139,-1998.556043,6291.750507,-2911.162892
145.396449,-3552.988522,5033.400406,8503.660028
145.396758,3182.885551,7031.956449,3294.210641
145.397068,1554.432478,4811.338623,-3983.696590
145.397378,1036.288319,5773.606348,5056.230287
145.397687,-4663.297435,7994.224174,3830.477490
145.397997,2146.597232,9770.718434,-8733.488677
145.398306,4589.276840,13693.809927,-10572.117872
145.398616,-2368.659014,15914.427753,-1915.238745
145.398926,1184.329507,14656.077652,-2528.115143
145.399235,-3701.029710,12731.542202,-3447.429741
145.399545,222.061783,9030.512492,3294.210641
145.399855,1924.535449,9992.780217,153.219100
145.400164,1480.411884,7328.038826,-4673.182538
145.400474,-4071.132681,9918.759623,6511.811733
145.400784,4145.153275,10066.800811,-536.266849
145.401093,4145.153275,4811.338623,-11951.089769
145.401403,-3552.988522,6291.750507,2068.457845
145.401712,-2590.720797,6809.894666,12180.918418
145.402022,592.164754,3627.009116,2298.286494
145.402332,962.267725,9178.553681,-2298.286494
145.402641,-2590.720797,10288.862594,5515.887586
145.402951,2220.617826,7698.141797,-6128.763984
145.403261,4071.132681,9696.697840,-8733.488677
145.403570,-814.226536,13619.789333,3907.087040
145.403880,2220.617826,11695.253884,612.876398
145.404190,-1184.329507,10955.047942,-2604.724693
145.404499,-5773.606348,13101.645173,7048.078582
145.404809,3849.070898,10066.800811,919.314598
145.405119,7994.224174,10584.944971,-14862.252661
145.405428,-1998.556043,9178.553681,-3983.696590
145.405738,-8290.306550,8142.265362,10112.460574
145.406048,6143.709319,7994.224174,-2987.772442
145.406357,3552.988522,3997.112087,-7431.126331
145.406667,-3849.070898,7402.059420,11261.603821
145.406977,296.082377,7772.162391,6665.030833
145.407286,3108.864956,4515.256246,-7124.688131
145.407596,1850.514855,7402.059420,-1838.629195
145.407905,-3330.926739,10066.800811,919.314598
145.408215,2812.782580,8512.368333,-6665.030833
145.408525,-3404.947333,8290.306550,2911.162892
145.408834,148.041188,17912.983796,4443.353888
145.409144,5551.544565,11843.295072,-5439.278036
145.409454,2590.720797,10955.047942,-1149.143247
145.409763,-6069.688724,14137.933492,6205.373534
145.410073,444.123565,11621.233289,-5898.935335
145.410383,3849.070898,9770.718434,-11184.994271
145.410692,-7550.100608,10288.862594,766.095498
145.411002,3627.009116,12435.459826,3064.381992
145.411312,4959.379811,7550.100608,-8886.707777
145.411621,-814.226536,4737.318029,-459.657299
145.411931,-6069.688724,4663.297435,15015.471761
145.412241,3627.009116,6365.771101,3600.648841
145.412550,2368.659014,7402.059420,-7277.907231
145.412860,-370.102971,9992.780217,306.438199
145.413170,-740.205942,10807.006753,-1608.800546
145.413479,1998.556043,10658.965565,-14632.424012
145.413789,2442.679609,11177.109724,-3370.820191
145.414099,-1998.556043,13841.851115,3907.087040
145.414408,3256.906145,9548.656652,689.485948
145.414718,-1110.308913,10066.800811,-229.828649
145.415027,-3034.844362,6291.750507,7660.954980
145.415337,2294.638420,10362.883188,-3753.867940
145.415647,1406.391290,9474.636058,-7890.783629
145.415956,-4145.153275,12731.542202,-1225.752797
145.416266,-5477.523971,18727.210333,-2604.724693
145.416576,3330.926739,11029.068536,-13483.280765
145.416885,2886.803174,9696.697840,-7737.564530
145.417195,-2072.576638,5255.462188,6971.469032
145.417505,-2738.761985,5107.421000,9499.584175
145.417814,5551.544565,3923.091493,5822.325785
145.418124,6439.791695,2516.700203,2451.505594
145.418434,-2368.659014,1628.453072,3140.991542
145.418743,-1702.473667,5255.462188,1455.581446
145.419053,592.164754,12287.418637,-6281.983084
145.419363,6365.771101,16432.571912,-12180.918418
145.419672,2960.823768,13397.727550,-4903.011187
145.419982,-8438.347739,14656.077652,6818.249932
145.420292,-4145.153275,16358.551318,2298.286494
145.420601,-1628.453072,14878.139434,-7967.393179
145.420911,5255.462188,14137.933492,-11184.994271
145.421221,-444.123565,9326.594869,-5669.106685
145.421530,-2072.576638,7920.203579,1991.848295
145.421840,7550.100608,11325.150913,919.314598
145.422149,2516.700203,7402.059420,536.266849
145.422459,-3478.967927,5773.606348,13330.061665
145.422769,-1184.329507,3182.885551,12717.185267
145.423078,2442.679609,2368.659014,-5515.887586
145.423388,3108.864956,5403.503377,-10495.508323
145.423698,3849.070898,8068.244768,-6128.763984
145.424007,-2442.679609,8808.450710,-4903.011187
145.424317,-5477.523971,13545.768739,4136.915689
145.424627,-2886.803174,18505.148550,3907.087040
145.424936,4071.132681,14804.118840,-8963.317327
145.425246,3330.926739,13397.727550,-7967.393179
145.425556,-4885.359217,12213.398043,2528.115143
145.425865,5773.606348,9252.574275,-1762.019645
145.426175,5551.544565,6957.935855,-6435.202183
145.426485,-8956.491898,9252.574275,10495.508323
145.426794,-222.061783,11029.068536,12257.527968
145.427104,4737.318029,6217.729913,-9806.022374
145.427414,-2442.679609,7105.977043,-9193.145976
145.427723,-4441.235652,7550.100608,5745.716235
145.428033,2812.782580,7550.100608,-11031.775171
145.428343,4219.173869,2886.803174,-14862.252661
145.428652,-5033.400406,9918.759623,9422.974625
145.428962,444.123565,6883.915261,13100.233016
145.429271,6513.812290,3034.844362,-4979.620737
145.429581,-0.000000,8956.491898,6435.202183
145.429891,-2368.659014,9918.759623,12947.013916
145.430200,6735.874072,12509.480420,-7507.735880
145.430510,1480.411884,17024.736666,-11491.432470
145.430820,-6661.853478,17912.983796,612.876398
145.431129,-2368.659014,14656.077652,-6818.249932
145.431439,4441.235652,16062.468941,-12793.794817
145.431749,-6143.709319,13989.892304,-3830.477490
145.432058,-1924.535449,8882.471304,153.219100
145.432368,5329.482782,5329.482782,-5515.887586
145.432678,-888.247130,1554.432478,919.314598
145.432987,-4737.318029,4737.318029,13483.280765
145.433297,3701.029710,2960.823768,4596.572988
145.433607,6439.791695,5625.565159,-9039.926876
145.433916,962.267725,4071.132681,536.266849
145.434226,-962.267725,6661.853478,4213.525239
145.434536,3404.947333,5181.441594,-3600.648841
145.434845,-6365.771101,12731.542202,3217.601092
145.435155,-518.144159,13101.645173,2374.896044
145.435465,2072.576638,13693.809927,-10955.165621
145.435774,-1776.494261,15100.201217,-8886.707777
145.436084,-5773.606348,14656.077652,995.924147
145.436393,3330.926739,16062.468941,-5515.887586
145.436703,4441.235652,13249.686362,-9499.584175
145.437013,-1998.556043,14656.077652,3370.820191
145.437322,-4737.318029,8882.471304,9806.022374
145.437632,4885.359217,8734.430116,-2757.943793
145.437942,6439.791695,5329.482782,-7277.907231
145.438251,-3182.885551,3478.967927,4596.572988
145.438561,-74.020594,3034.844362,4826.401637
145.438871,-1110.308913,3108.864956,-1838.629195
145.439180,2072.576638,4737.318029,1302.362347
145.439490,-2294.638420,5107.421000,766.095498
145.439800,-444.123565,6143.709319,-4903.011187
145.440109,-6439.791695,9696.697840,-2221.676944
145.440419,-2294.638420,12287.418637,-4290.134789
145.440729,4737.318029,12361.439231,-11108.384721
145.441038,5107.421000,11695.253884,-5745.716235
145.441348,-3034.844362,14063.912898,10035.851024
145.441658,-6439.791695,14359.995275,11874.480219
145.441967,5921.647536,12953.603985,1991.848295
145.442277,1184.329507,11103.089130,-3907.087040
145.442587,-1110.308913,8364.327145,-2374.896044
145.442896,-1628.453072,5255.462188,-7201.297681
145.443206,-1332.370696,7105.977043,-7660.954980
145.443515,-2294.638420,10658.965565,0.000000
145.443825,-4441.235652,9400.615463,536.266849
145.444135,4145.153275,6661.853478,-3600.648841
145.444444,1258.350101,1776.494261,-1915.238745
145.444754,-222.061783,2738.761985,4826.401637
145.445064,296.082377,5773.606348,5669.106685
145.445373,-3701.029710,8438.347739,6511.811733
145.445683,-0.000000,11251.130318,4060.306139
145.445993,5847.626942,12065.356855,-7890.783629
145.446302,3627.009116,15026.180623,-14555.814462
145.446612,-7624.121203,15840.407159,0.000000
145.446922,-3627.009116,15322.262999,-2681.334243
145.447231,-0.000000,11695.253884,-8656.879127
145.447541,-2368.659014,13175.665768,-2451.505594
145.447851,-5995.668130,11399.171507,919.314598
145.448160,3923.091493,5699.585753,-8886.707777
145.448470,3997.112087,5329.482782,-8963.317327
145.448780,-5329.482782,10214.842000,5975.544884
145.449089,3330.926739,1480.411884,7584.345430
145.449399,5329.482782,1554.432478,919.314598
145.449709,-0.000000,3627.009116,8810.098227
145.450018,-3330.926739,3182.885551,9116.536426
145.450328,4367.215058,4811.338623,-6358.592633
145.450637,-1258.350101,9992.780217,-7277.907231
145.450947,-1184.329507,13767.830521,-1225.752797
145.451257,-1554.432478,18061.024985,-9422.974625
145.451566,-2442.679609,21984.116477,-10189.070123
145.451876,-3404.947333,20133.601622,1302.362347
145.452186,-0.000000,17468.860231,-5439.278036
145.452495,5107.421000,11103.089130,-9806.022374
145.452805,-3552.988522,8660.409521,2145.067394
145.453115,-2590.720797,8808.450710,8503.660028
145.453424,6069.688724,5921.647536,-2834.553343
145.453734,2812.782580,3701.029710,-383.047749
145.454044,-6513.812290,4293.194464,11568.042020
145.454353,1702.473667,5181.441594,2145.067394
145.454663,1258.350101,3552.988522,-9499.584175
145.454973,-4737.318029,6439.791695,-995.924147
145.455282,-1406.391290,9178.553681,-3294.210641
145.455592,3108.864956,5773.606348,-14019.547613
145.455902,-4145.153275,10140.821405,-1608.800546
145.456211,-4663.297435,12509.480420,2528.115143
145.456521,7105.977043,10732.986159,-4903.011187
145.456831,5329.482782,15026.180623,-7124.688131
145.457140,-3775.050304,13323.706956,7354.516781
145.457450,-2812.782580,11769.274478,10035.851024
145.457759,4515.256246,12139.377449,1532.190996
145.458069,-2664.741391,15026.180623,-3983.696590
145.458379,-6365.771101,12657.521608,306.438199
145.458688,2368.659014,7328.038826,-15092.081311
145.458998,2368.659014,6439.791695,-17620.196454
145.459308,-2146.597232,9844.739029,1149.143247
145.459617,-1850.514855,4293.194464,7277.907231
145.459927,1406.391290,5033.400406,4443.353888
145.460237,4367.215058,5921.647536,9576.193725
145.460546,-222.061783,1850.514855,5209.449386
145.460856,2960.823768,740.205942,-1302.362347
145.461166,370.102971,4737.318029,-2528.115143
145.461475,-3775.050304,11621.233289,-3064.381992
145.461785,4219.173869,15840.407159,-5515.887586
145.462095,-3256.906145,22428.240043,-2757.943793
145.462404,-8068.244768,20429.683999,1685.410096
145.462714,-4367.215058,17838.963202,-4290.134789
145.463024,6439.791695,9844.739029,-18156.463303
145.463333,-0.000000,4663.297435,-10189.070123
145.463643,-8586.388927,6217.729913,8273.831378
145.463952,6957.935855,4367.215058,3983.696590
145.464262,148.041188,6069.688724,842.705048
145.464572,1258.350101,9696.697840,13713.109414
145.464881,3552.988522,7994.224174,4596.572988
145.465191,-1332.370696,888.247130,-6665.030833
145.465501,-1110.308913,6291.750507,-2068.457845
145.465810,-0.000000,6661.853478,-7431.126331
145.466120,4219.173869,9696.697840,-10572.117872
145.466430,-3923.091493,16580.613101,2145.067394
145.466739,-4663.297435,15618.345376,5515.887586
145.467049,4515.256246,14285.974681,-4213.525239
145.467359,-2442.679609,16136.489536,-5822.325785
145.467668,-1924.535449,10214.842000,1838.629195
145.467978,9178.553681,10658.965565,-8886.707777
145.468288,3627.009116,9030.512492,-10495.508323
145.468597,-10436.903782,10955.047942,9346.365076
145.468907,-1184.329507,11473.192101,12104.308868
145.469217,5921.647536,8882.471304,-12717.185267
145.469526,1702.473667,7254.018232,-8733.488677
145.469836,-2368.659014,6217.729913,5362.668486
145.470146,-518.144159,1184.329507,-4443.353888
145.470455,4293.194464,6957.935855,-8503.660028
145.470765,-4441.235652,10066.800811,8503.660028
145.471074,-814.226536,5699.585753,1685.410096
145.471384,4737.318029,7476.080014,-9116.536426
145.471694,-222.061783,7624.121203,-2068.457845
145.472003,-444.123565,10510.924376,0.000000
145.472313,4071.132681,17838.963202,-5515.887586
145.472623,-1110.308913,16654.633695,-229.828649
145.472932,-4885.359217,16876.695478,4213.525239
145.473242,1480.411884,14137.933492,-4903.011187
145.473552,1480.411884,8586.388927,-11031.775171
145.473861,-5699.585753,7772.162391,-3677.258390
145.474171,-3256.906145,8438.347739,-919.314598
145.474481,3108.864956,6365.771101,-9499.584175
145.474790,2146.597232,6735.874072,-2528.115143
145.475100,-2368.659014,8364.327145,11568.042020
145.475410,2516.700203,4515.256246,3830.477490
145.475719,-0.000000,-1036.288319,-2528.115143
145.476029,-4515.256246,5847.626942,3677.258390
145.476339,-2442.679609,740.205942,-1532.190996
145.476648,8438.347739,10732.986159,-13866.328514
145.476958,-3627.009116,15988.448347,-4826.401637
145.477268,-4959.379811,15766.386565,5286.058936
145.477577,2146.597232,14211.954086,2987.772442
145.477887,-0.000000,11843.295072,-2221.676944
145.478196,-5995.668130,10955.047942,2451.505594
145.478506,296.082377,7920.203579,-3753.867940
145.478816,5255.462188,10362.883188,-13866.328514
145.479125,-3627.009116,11843.295072,-766.095498
145.479435,740.205942,11769.274478,6511.811733
145.479745,3034.844362,11473.192101,-2145.067394
145.480054,-888.247130,11177.109724,1455.581446
145.480364,-962.267725,5699.585753,8197.221829
145.480674,-2294.638420,-0.000000,-4673.182538
145.480983,5107.421000,2072.576638,-9806.022374
145.481293,-5699.585753,6735.874072,3600.648841
145.481603,-3404.947333,10955.047942,3600.648841
145.481912,3923.091493,10436.903782,-8273.831378
145.482222,740.205942,12805.562797,-2911.162892
145.482532,-1628.453072,16210.510130,4060.306139
145.482841,3256.906145,4663.297435,-842.705048
145.483151,-2590.720797,7105.977043,-1532.190996
145.483461,-3701.029710,8808.450710,6435.202183
145.483770,-1406.391290,9474.636058,1991.848295
145.484080,3108.864956,13545.768739,-7277.907231
145.484390,-4219.173869,13989.892304,-6052.154434
145.484699,-1110.308913,16432.571912,-3140.991542
145.485009,6735.874072,9548.656652,-10189.070123
145.485318,-1998.556043,3478.967927,-4443.353888
145.485628,-3849.070898,9252.574275,12793.794817
145.485938,-1406.391290,3627.009116,5898.935335
145.486247,3182.885551,5773.606348,-10801.946522
145.486557,962.267725,4441.235652,3294.210641
145.486867,-1998.556043,2516.700203,3983.696590
145.487176,4515.256246,5847.626942,-7277.907231
145.487486,-5181.441594,8882.471304,1149.143247
145.487796,-2516.700203,15174.221811,5822.325785
145.488105,1776.494261,15840.407159,-7814.174080
145.488415,1702.473667,14434.015869,-11184.994271
145.488725,-3627.009116,15396.283594,-5056.230287
145.489034,-4367.215058,10732.986159,-4826.401637
145.489344,4441.235652,10214.842000,-9269.755526
145.489654,-1184.329507,6661.853478,-2298.286494
145.489963,222.061783,7476.080014,7584.345430
145.490273,3923.091493,7920.203579,7048.078582
145.490583,-7328.038826,7920.203579,4290.134789
145.490892,-1184.329507,5995.668130,6052.154434
145.491202,4441.235652,5699.585753,-7967.393179
145.491512,888.247130,3627.009116,-13330.061665
145.491821,-3627.009116,9326.594869,-3447.429741
145.492131,-1406.391290,11103.089130,-3524.039291
145.492440,3404.947333,11917.315666,-8963.317327
145.492750,-8438.347739,12583.501014,7584.345430
145.493060,2146.597232,11029.068536,8427.050478
145.493369,6883.915261,5255.462188,-7890.783629
145.493679,5699.585753,9326.594869,-3677.258390
145.493989,-5551.544565,7550.100608,7354.516781
145.494298,-444.123565,5107.421000,-229.828649
145.494608,4515.256246,13693.809927,-7660.954980
145.494918,-8142.265362,17690.922014,-76.609550
145.495227,-2516.700203,14063.912898,842.705048
145.495537,1184.329507,11547.212695,-9499.584175
145.495847,1184.329507,8956.491898,-10495.508323
145.496156,-2738.761985,3701.029710,1991.848295
145.496466,-1332.370696,3849.070898,4290.134789
145.496776,1110.308913,8290.306550,-306.438199
145.497085,-2516.700203,5995.668130,2068.457845
145.497395,370.102971,9030.512492,3217.601092
145.497705,1406.391290,592.164754,459.657299
145.498014,5477.523971,10066.800811,-4136.915689
145.498324,-740.205942,12953.603985,-1915.238745
145.498634,1036.288319,9178.553681,-1685.410096
145.498943,-1184.329507,12731.542202,536.266849
145.499253,-7179.997637,13619.789333,3217.601092
145.499562,2368.659014,13249.686362,-6128.763984
145.499872,3627.009116,6587.832884,-14709.033562
145.500182,-3182.885551,11991.336260,-6588.421283
145.500491,-5921.647536,8438.347739,7277.907231
145.500801,5107.421000,9252.574275,0.000000
145.501111,3182.885551,11843.295072,-4979.620737
145.501420,-3404.947333,6217.729913,11491.432470
145.501730,-148.041188,6069.688724,8044.002729
145.502040,7476.080014,3627.009116,-8273.831378
145.502349,6883.915261,5477.523971,-7967.393179
145.502659,-6809.894666,3997.112087,5286.058936
145.502969,-1184.329507,9622.677246,4519.963438
145.503278,-0.000000,11547.212695,-4979.620737
145.503588,-0.000000,12213.398043,-2604.724693
145.503898,-1184.329507,17098.757260,-2834.553343
145.504207,-1850.514855,11547.212695,-3907.087040
145.504517,-814.226536,9696.697840,-5132.839837
145.504827,370.102971,11103.089130,-3600.648841
145.505136,5477.523971,12139.377449,-4519.963438
145.505446,-2368.659014,8438.347739,8886.707777
145.505756,-1258.350101,14137.933492,11338.213370
145.506065,4515.256246,8216.285956,-5898.935335
145.506375,2368.659014,5033.400406,-5745.716235
145.506685,-7328.038826,5403.503377,8580.269578
145.506994,-3552.988522,4145.153275,-1915.238745
145.507304,5773.606348,9400.615463,-15551.738609
145.507614,6143.709319,9770.718434,-6818.249932
145.507923,-2442.679609,7402.059420,5132.839837
145.508233,-3627.009116,6513.812290,9422.974625
145.508543,-0.000000,12213.398043,7660.954980
145.508852,-740.205942,8956.491898,383.047749
145.509162,4145.153275,10807.006753,-6971.469032
145.509472,-148.041188,10807.006753,-5822.325785
145.509781,-2220.617826,15470.304188,-5745.716235
145.510091,-592.164754,19763.498651,-8427.050478
145.510400,2220.617826,10881.027347,-7431.126331
145.510710,-2738.761985,11769.274478,5822.325785
145.511020,-4737.318029,8512.368333,12104.308868
145.511329,4663.297435,5625.565159,-3753.867940
145.511639,6069.688724,5181.441594,-7890.783629
145.511949,-1998.556043,5847.626942,4290.134789
145.512258,222.061783,1998.556043,2298.286494
145.512568,888.247130,3034.844362,153.219100
145.512878,-4145.153275,13545.768739,6435.202183
145.513187,-4589.276840,15914.427753,5132.839837
145.513497,6883.915261,11843.295072,-11568.042020
145.513807,2368.659014,10066.800811,-16241.224558
145.514116,-3997.112087,9992.780217,-5286.058936
145.514426,148.041188,7402.059420,2604.724693
145.514736,-1998.556043,12583.501014,10495.508323
145.515045,-4071.132681,16728.654289,14249.376263
145.515355,5255.462188,10658.965565,1225.752797
145.515665,2664.741391,7772.162391,-11644.651570
145.515974,-6217.729913,8438.347739,-919.314598
145.516284,-3478.967927,9918.759623,-4136.915689
145.516594,6957.935855,10436.903782,-21527.283494
145.516903,-592.164754,7105.977043,-6665.030833
145.517213,-9400.615463,11325.150913,21986.940793
145.517523,-222.061783,11695.253884,10112.460574
145.517832,11103.089130,6069.688724,-11261.603821
145.518142,2516.700203,3330.926739,-2068.457845
145.518452,-1998.556043,-2220.617826,6894.859482
145.518761,962.267725,5329.482782,-1608.800546
145.519071,-1184.329507,10955.047942,689.485948
145.519381,-370.102971,15174.221811,6665.030833
145.519690,3552.988522,14952.160028,-2681.334243
145.520000,-3034.844362,14508.036463,-6894.859482
145.520310,-3997.112087,10288.862594,-5209.449386
145.520619,444.123565,12139.377449,-13330.061665
145.520929,666.185348,10436.903782,-13942.938064
145.521239,-4071.132681,15988.448347,6971.469032
145.521548,2886.803174,16358.551318,10112.460574
145.521858,9252.574275,7846.182985,-5822.325785
145.522168,-3034.844362,4145.153275,4673.182538
145.522477,-5181.441594,3330.926739,13023.623466
145.522787,3997.112087,-3256.906145,-6665.030833
145.523097,9178.553681,3404.947333,-16624.272307
145.523406,-8660.409521,9622.677246,2987.772442
145.523716,1406.391290,11843.295072,7584.345430
145.524025,-1924.535449,15174.221811,383.047749
145.524335,2368.659014,14508.036463,-1225.752797
145.524645,-518.144159,5107.421000,-3064.381992
145.524954,-1776.494261,4293.194464,-8273.831378
145.525264,2146.597232,9474.636058,-3600.648841
145.525574,-666.185348,10807.006753,842.705048
145.525883,-4663.297435,15248.242405,3064.381992
145.526193,370.102971,14434.015869,995.924147
145.526503,3627.009116,14137.933492,689.485948
145.526812,1628.453072,8438.347739,-5669.106685
145.527122,-2220.617826,5921.647536,-8733.488677
145.527432,2294.638420,7920.203579,-7354.516781
145.527741,814.226536,6587.832884,3983.696590
145.528051,-222.061783,10584.944971,4290.134789
145.528361,1702.473667,7105.977043,3983.696590
145.528670,2442.679609,8438.347739,3140.991542
145.528980,-2220.617826,3552.988522,459.657299
145.529290,7550.100608,1036.288319,-5209.449386
145.529599,370.102971,5847.626942,-10572.117872
145.529909,-3997.112087,14063.912898,-459.657299
145.530219,2738.761985,18061.024985,5975.544884
145.530528,9474.636058,14211.954086,-1838.629195
145.530838,-3997.112087,14359.995275,2068.457845
145.531148,-3552.988522,10881.027347,5056.230287
145.531457,2960.823768,4737.318029,-12257.527968
145.531767,-3330.926739,6957.935855,-12717.185267
145.532077,-3923.091493,15248.242405,229.828649
145.532386,2442.679609,11843.295072,-5132.839837
145.532696,370.102971,13249.686362,-3600.648841
145.533006,-3627.009116,12657.521608,11338.213370
145.533315,-0.000000,1184.329507,4290.134789
145.533625,8586.388927,1628.453072,-9806.022374
145.533935,-1332.370696,1036.288319,2528.115143
145.534244,-2516.700203,6217.729913,8350.440928
145.534554,1406.391290,8956.491898,-1915.238745
145.534864,4663.297435,11843.295072,-2911.162892
145.535173,-3182.885551,12435.459826,2298.286494
145.535483,2812.782580,11843.295072,-3217.601092
145.535793,-0.000000,9474.636058,-9806.022374
145.536102,-5847.626942,11695.253884,-1378.971896
145.536412,1850.514855,11547.212695,-3370.820191
145.536722,-0.000000,10510.924376,-8120.612279
145.537031,-5255.462188,17394.839637,3370.820191
145.537341,814.226536,13989.892304,7048.078582
145.537651,3849.070898,11029.068536,-11951.089769
145.537960,3552.988522,8512.368333,-8810.098227
145.538270,-5329.482782,2294.638420,9882.631924
145.538579,1332.370696,4885.359217,-229.828649
145.538889,3775.050304,5921.647536,-2757.943793
145.539199,-4959.379811,10658.965565,10955.165621
145.539508,148.041188,11917.315666,1762.019645
145.539818,8882.471304,6291.750507,-16471.053207
145.540128,-1702.473667,3997.112087,-5362.668486
145.540437,-6661.853478,8290.306550,5669.106685
145.540747,1332.370696,10658.965565,-3753.867940
145.541057,148.041188,10807.006753,153.219100
145.541366,-4737.318029,17172.777854,12180.918418
145.541676,1702.473667,12805.562797,-1532.190996
145.541986,6661.853478,3478.967927,-12104.308868
145.542295,-4515.256246,11177.109724,-3294.210641
145.542605,-3404.947333,11473.192101,-2528.115143
145.542915,4145.153275,13693.809927,-7890.783629
145.543224,-2220.617826,18061.024985,1302.362347
145.543534,-3034.844362,15174.221811,8733.488677
145.543844,4589.276840,7846.182985,-2145.067394
145.544153,2368.659014,3775.050304,-7354.516781
145.544463,-1480.411884,1776.494261,1455.581446
145.544773,3034.844362,740.205942,76.609550
145.545082,740.205942,4071.132681,-4290.134789
145.545392,740.205942,14508.036463,6818.249932
145.545702,-2960.823768,11325.150913,9422.974625
145.546011,8956.491898,11769.274478,-6128.763984
145.546321,-888.247130,13323.706956,-3600.648841
145.546631,-2886.803174,8068.244768,2987.772442
145.546940,148.041188,5699.585753,-3983.696590
145.547250,-666.185348,10584.944971,-9959.241474
145.547560,-3775.050304,13471.748144,2451.505594
145.547869,-3404.947333,14137.933492,2451.505594
145.548179,5551.544565,12731.542202,-6894.859482
145.548489,1480.411884,13767.830521,-5898.935335
145.548798,-2072.576638,4367.215058,3983.696590
145.549108,-0.000000,4811.338623,-1149.143247
145.549418,1184.329507,6957.935855,-2528.115143
145.549727,666.185348,8660.409521,7507.735880
145.550037,2368.659014,10658.965565,3524.039291
145.550347,6291.750507,8290.306550,-2528.115143
145.550656,-3552.988522,4219.173869,2068.457845
145.550966,-3997.112087,1702.473667,5362.668486
145.551276,2368.659014,10288.862594,-7584.345430
145.551585,-2146.597232,10214.842000,-9882.631924
145.551895,-3552.988522,17838.963202,1378.971896
145.552205,-148.041188,15322.262999,-3907.087040
145.552514,2738.761985,16136.489536,-12257.527968
145.552824,-1406.391290,14656.077652,2068.457845
145.553133,-370.102971,9030.512492,2834.553343
145.553443,2664.741391,4737.318029,-8733.488677
145.553753,3256.906145,9474.636058,3600.648841
145.554062,-3478.967927,9844.739029,7354.516781
145.554372,2960.823768,1924.535449,-4213.525239
145.554682,2960.823768,3849.070898,-3677.258390
145.554991,-5033.400406,3775.050304,4903.011187
145.555301,-2516.700203,8068.244768,1455.581446
145.555611,1850.514855,9400.615463,-7201.297681
145.555920,-222.061783,10510.924376,-6128.763984
145.556230,-4441.235652,12953.603985,-2374.896044
145.556540,222.061783,11917.315666,-5975.544884
145.556849,222.061783,12213.398043,-4749.792088
145.557159,2220.617826,10362.883188,4749.792088
145.557469,1480.411884,9474.636058,1915.238745
145.557778,-2294.638420,9178.553681,842.705048
145.558088,-1480.411884,11103.089130,4596.572988
145.558398,-1554.432478,9770.718434,-229.828649
145.558707,7105.977043,10288.862594,-13483.280765
145.559017,-1406.391290,10955.047942,-8580.269578
145.559327,-5921.647536,8734.430116,2911.162892
145.559636,-1554.432478,8956.491898,459.657299
145.559946,4885.359217,6957.935855,-5286.058936
145.560256,-1776.494261,9030.512492,2604.724693
145.560565,-2590.720797,7994.224174,8197.221829
145.560875,5625.565159,3997.112087,-3370.820191
145.561185,1628.453072,5107.421000,-1532.190996
145.561494,-4219.173869,7550.100608,8120.612279
145.561804,1036.288319,11843.295072,0.000000
145.562114,814.226536,11325.150913,-5822.325785
145.562423,-1184.329507,17394.839637,1378.971896
145.562733,-2442.679609,10881.027347,-2451.505594
145.563043,888.247130,12139.377449,-9806.022374
145.563352,-6217.729913,13471.748144,153.219100
145.563662,-7550.100608,11769.274478,2451.505594
145.563972,3552.988522,12139.377449,-10648.727422
145.564281,4811.338623,4663.297435,-11721.261119
145.564591,-3478.967927,6365.771101,6205.373534
145.564901,518.144159,7698.141797,6205.373534
145.565210,3701.029710,6365.771101,2374.896044
145.565520,-0.000000,7254.018232,11108.384721
145.565830,2516.700203,5403.503377,6818.249932
145.566139,3775.050304,6957.935855,-9882.631924
145.566449,-1554.432478,6957.935855,-7507.735880
145.566759,-5847.626942,10510.924376,-2374.896044
145.567068,2664.741391,14804.118840,-12257.527968
145.567378,2368.659014,13175.665768,-9729.412825
145.567687,-3923.091493,11991.336260,9806.022374
145.567997,-296.082377,13619.789333,4903.011187
145.568307,-2368.659014,7920.203579,-5592.497135
145.568616,-74.020594,9548.656652,4519.963438
145.568926,2072.576638,7476.080014,-229.828649
145.569236,5773.606348,8882.471304,-16164.615008
145.569545,-888.247130,12435.459826,-2221.676944
145.569855,-6809.894666,10658.965565,10495.508323
145.570165,6661.853478,15248.242405,-6741.640382
145.570474,3182.885551,8216.285956,-2374.896044
145.570784,-6957.935855,5477.523971,11721.261119
145.571094,-3330.926739,5477.523971,229.828649
145.571403,9770.718434,2294.638420,-14479.204912
145.571713,1850.514855,8512.368333,-4979.620737
145.572023,-5329.482782,4589.276840,8197.221829
145.572332,-962.267725,14359.995275,4060.306139
145.572642,3849.070898,13101.645173,1455.581446
145.572952,-1554.432478,14211.954086,536.266849
145.573261,-0.000000,10955.047942,-3447.429741
145.573571,296.082377,8808.450710,-6971.469032
145.573881,-5625.565159,7476.080014,-2374.896044
145.574190,-592.164754,11843.295072,-3140.991542
145.574500,4293.194464,12879.583391,-8427.050478
145.574810,-5625.565159,14211.954086,-1302.362347
145.575119,-5551.544565,15026.180623,7814.174080
145.575429,5033.400406,5921.647536,-4366.744339
145.575739,6439.791695,6809.894666,-10878.556072
145.576048,-3330.926739,7254.018232,1762.019645
145.576358,-4071.132681,3627.009116,5515.887586
145.576668,4737.318029,4737.318029,-3294.210641
145.576977,1776.494261,11769.274478,0.000000
145.577287,-1258.350101,11103.089130,3983.696590
145.577597,1258.350101,7994.224174,-4903.011187
145.577906,-962.267725,11251.130318,-5362.668486
145.578216,-2368.659014,8586.388927,306.438199
145.578526,2960.823768,7105.977043,-4290.134789
145.578835,-518.144159,9252.574275,-7354.516781
145.579145,-4071.132681,14508.036463,1991.848295
145.579455,-1628.453072,12287.418637,3294.210641
145.579764,4663.297435,7772.162391,-10189.070123
145.580074,888.247130,8882.471304,-5975.544884
145.580384,-3849.070898,9770.718434,4749.792088
145.580693,-4145.153275,10510.924376,-1608.800546
145.581003,3478.967927,8660.409521,-4366.744339
145.581313,740.205942,10807.006753,2528.115143
145.581622,-1406.391290,8586.388927,2757.943793
145.581932,4737.318029,9030.512492,-7124.688131
145.582241,-3330.926739,6957.935855,-2221.676944
145.582551,2072.576638,6661.853478,1225.752797
145.582861,1184.329507,9844.739029,-3064.381992
145.583170,-74.020594,6809.894666,-766.095498
145.583480,-5033.400406,7772.162391,4136.915689
145.583790,2886.803174,9622.677246,-2681.334243
145.584099,148.041188,11843.295072,-5975.544884
145.584409,-5255.462188,7254.018232,7201.297681
145.584719,-4737.318029,13767.830521,306.438199
145.585028,6883.915261,15988.448347,-17390.367805
145.585338,1406.391290,12879.583391,-8580.269578
145.585648,-6365.771101,11769.274478,6435.202183
145.585957,-1184.329507,8882.471304,-2604.724693
145.586267,4071.132681,12657.521608,-2221.676944
145.586577,-1184.329507,10807.006753,8733.488677
145.586886,1702.473667,4219.173869,3370.820191
145.587196,5329.482782,4737.318029,-4903.011187
145.587506,-3997.112087,8512.368333,1455.581446
145.587815,-6735.874072,2516.700203,3064.381992
145.588125,3775.050304,8290.306550,-11491.432470
145.588435,3034.844362,11399.171507,-10035.851024
145.588744,-148.041188,11843.295072,5515.887586
145.589054,2146.597232,11103.089130,4290.134789
145.589364,1776.494261,8808.450710,-1838.629195
145.589673,-2294.638420,8142.265362,4979.620737
145.589983,370.102971,7698.141797,2298.286494
145.590293,5033.400406,5921.647536,-9576.193725
145.590602,-2886.803174,9104.533087,-1302.362347
145.590912,-7550.100608,15174.221811,4673.182538
145.591222,-814.226536,15766.386565,-7124.688131
145.591531,3330.926739,14878.139434,-13789.718964
145.591841,-3775.050304,13989.892304,2451.505594
145.592151,3478.967927,14730.098246,-842.705048
145.592460,3330.926739,4589.276840,-8733.488677
145.592770,-3256.906145,9030.512492,7660.954980
145.593080,-3182.885551,6143.709319,12563.966167
145.593389,9474.636058,3627.009116,-7354.516781
145.593699,7179.997637,6513.812290,-6128.763984
145.594009,-9178.553681,6809.894666,10495.508323
145.594318,-3923.091493,13471.748144,2145.067394
145.594628,6217.729913,11695.253884,-18845.949251
145.594938,1184.329507,9770.718434,-9269.755526
145.595247,-1998.556043,10214.842000,2451.505594
145.595557,-2664.741391,6661.853478,-2145.067394
145.595867,740.205942,8512.368333,919.314598
145.596176,-1776.494261,7920.203579,4903.011187
145.596486,-1554.432478,8142.265362,-1991.848295
145.596795,4589.276840,10362.883188,-4519.963438
145.597105,-4219.173869,9770.718434,-306.438199
145.597415,4811.338623,14359.995275,-6052.154434
145.597724,1628.453072,6439.791695,-8120.612279
145.598034,-2516.700203,8068.244768,1302.362347
145.598344,-2738.761985,8660.409521,5362.668486
145.598653,5921.647536,7846.182985,-5745.716235
145.598963,5329.482782,5995.668130,-3677.258390
145.599273,-2886.803174,4737.318029,8120.612279
145.599582,-4367.215058,5477.523971,4290.134789
145.599892,1036.288319,9400.615463,-7890.783629
145.600202,296.082377,10658.965565,-2987.772442
145.600511,-2146.597232,13693.809927,-229.828649
145.600821,888.247130,13989.892304,-8273.831378
145.601131,4145.153275,14211.954086,-5669.106685
145.601440,-1776.494261,10732.986159,2757.943793
145.601750,-2738.761985,12065.356855,0.000000
145.602062,-0.000000,6513.812290,-1072.533697
145.602372,-4145.153275,9178.553681,7814.174080
145.602681,-222.061783,12213.398043,0.000000
145.602991,3627.009116,9252.574275,-14096.157163
145.603301,2664.741391,7698.141797,-7814.174080
145.603610,-6661.853478,5847.626942,2987.772442
145.603920,518.144159,7402.059420,76.609550
145.604229,5107.421000,5699.585753,919.314598
145.604539,296.082377,9474.636058,9346.365076
145.604848,-1184.329507,5329.482782,4826.401637
145.605158,1184.329507,6217.729913,-4826.401637
145.605468,1480.411884,8808.450710,-5132.839837
145.605777,-518.144159,9918.759623,-2757.943793
145.606087,-0.000000,10214.842000,-5975.544884
145.606396,2146.597232,13989.892304,-2298.286494
145.606706,-5699.585753,13915.871710,6205.373534
145.607015,-518.144159,10288.862594,1685.410096
145.607325,-0.000000,6587.832884,-4443.353888
145.607635,1036.288319,10955.047942,3370.820191
145.607944,740.205942,9992.780217,-612.876398
145.608254,296.082377,8438.347739,-7354.516781
145.608563,-0.000000,13841.851115,-2681.334243
145.608873,-3701.029710,11843.295072,3140.991542
145.609183,3627.009116,6365.771101,-1149.143247
145.609492,2072.576638,6735.874072,-1378.971896
145.609802,-2886.803174,6809.894666,6358.592633
145.610111,3997.112087,5329.482782,1991.848295
145.610421,-370.102971,5255.462188,-6128.763984
145.610730,-0.000000,10584.944971,459.657299
145.611040,-5033.400406,9696.697840,4519.963438
145.611350,6587.832884,9992.780217,-6511.811733
145.611659,2368.659014,9918.759623,-6818.249932
145.611969,-5773.606348,9548.656652,4290.134789
145.612278,-740.205942,10066.800811,2528.115143
145.612588,-370.102971,9030.512492,-5822.325785
145.612897,-2368.659014,10214.842000,2068.457845
145.613207,-1036.288319,9030.512492,1225.752797
145.613517,3627.009116,8882.471304,-10801.946522
145.613826,148.041188,8512.368333,-5209.449386
145.614136,-6439.791695,9844.739029,7354.516781
145.614445,2368.659014,12657.521608,-1915.238745
145.614755,4219.173869,10658.965565,-2221.676944
145.615064,-1406.391290,9400.615463,8044.002729
145.615374,-4885.359217,6069.688724,3140.991542
145.615684,5625.565159,2664.741391,-11108.384721
145.615993,-1924.535449,5107.421000,-5056.230287
145.616303,-2072.576638,10510.924376,4060.306139
145.616612,3775.050304,9622.677246,-5745.716235
145.616922,7402.059420,10510.924376,-3677.258390
145.617232,-3849.070898,11991.336260,8120.612279
145.617541,-1998.556043,10288.862594,1072.533697
145.617851,1998.556043,8512.368333,-6435.202183
145.618160,-222.061783,6069.688724,-1685.410096
145.618470,-888.247130,9474.636058,459.657299
145.618779,1998.556043,9844.739029,-8273.831378
145.619089,814.226536,16210.510130,-5745.716235
145.619399,-1924.535449,15174.221811,2298.286494
145.619708,518.144159,11843.295072,-3524.039291
145.620018,3330.926739,8956.491898,-2757.943793
145.620327,-2294.638420,7031.956449,6741.640382
145.620637,3182.885551,7105.977043,536.266849
145.620946,3182.885551,6143.709319,-7967.393179
145.621256,-3701.029710,11103.089130,2374.896044
145.621566,-4737.318029,8586.388927,4596.572988
145.621875,7179.997637,8068.244768,-7890.783629
145.622185,5921.647536,11769.274478,-5515.887586
145.622494,-5551.544565,10955.047942,7048.078582
145.622804,-4737.318029,9548.656652,2451.505594
145.623114,4515.256246,6883.915261,-6894.859482
145.623423,-962.267725,7105.977043,689.485948
145.623733,3627.009116,9178.553681,1302.362347
145.624042,1850.514855,6143.709319,-2987.772442
145.624352,-3923.091493,11991.336260,3140.991542
145.624661,-4663.297435,13323.706956,4136.915689
145.624971,1628.453072,12213.398043,-9039.926876
145.625281,7402.059420,10732.986159,-9116.536426
145.625590,-4737.318029,8290.306550,4366.744339
145.625900,2146.597232,9992.780217,689.485948
145.626209,-0.000000,4811.338623,-5898.935335
145.626519,1702.473667,10066.800811,6741.640382
145.626828,-3997.112087,6513.812290,7660.954980
145.627138,2368.659014,7920.203579,-1915.238745
145.627448,962.267725,9474.636058,-3753.867940
145.627757,-4811.338623,8512.368333,-4366.744339
145.628067,-2442.679609,11843.295072,-7354.516781
145.628376,4811.338623,11991.336260,-8963.317327
145.628686,-2960.823768,13989.892304,0.000000
145.628995,3552.988522,10732.986159,5822.325785
145.629305,740.205942,7031.956449,1991.848295
145.629615,1184.329507,8142.265362,2221.676944
145.629924,1110.308913,4663.297435,1149.143247
145.630234,592.164754,4367.215058,-2451.505594
145.630543,-2146.597232,7550.100608,306.438199
145.630853,-1998.556043,11473.192101,5745.716235
145.631163,1850.514855,15470.304188,-5362.668486
145.631472,-2072.576638,11547.212695,-10342.289223
145.631782,-5477.523971,11399.171507,306.438199
145.632091,-1406.391290,7179.997637,-536.266849
145.632401,7402.059420,7179.997637,-13023.623466
145.632710,4071.132681,8956.491898,-3447.429741
145.633020,-6735.874072,9696.697840,12257.527968
145.633330,-1776.494261,13175.665768,6818.249932
145.633639,6587.832884,8586.388927,-2681.334243
145.633949,-2294.638420,8660.409521,2451.505594
145.634258,-4737.318029,9252.574275,612.876398
145.634568,4515.256246,9326.594869,-11338.213370
145.634877,3182.885551,7105.977043,-11108.384721
145.635187,-5773.606348,9030.512492,306.438199
145.635497,-2294.638420,10732.986159,3140.991542
145.635806,2442.679609,7846.182985,1991.848295
145.636116,1850.514855,9104.533087,1378.971896
145.636425,888.247130,7105.977043,-2604.724693
145.636735,222.061783,7698.141797,-5745.716235
145.637044,-3478.967927,9548.656652,-919.314598
145.637354,-1554.432478,11325.150913,-2451.505594
145.637664,1258.350101,11547.212695,-10572.117872
145.637973,8438.347739,13175.665768,-6741.640382
145.638283,-962.267725,5551.544565,2145.067394
145.638592,-1480.411884,7105.977043,3064.381992
145.638902,740.205942,5847.626942,3370.820191
145.639212,-1258.350101,5477.523971,6511.811733
145.639521,148.041188,9252.574275,766.095498
145.639831,-888.247130,10436.903782,-7277.907231
145.640140,-1036.288319,12583.501014,-9039.926876
145.640450,-0.000000,10140.821405,-12870.404366
145.640759,-3182.885551,13249.686362,-12947.013916
145.641069,5329.482782,11621.233289,-4060.306139
145.641379,1110.308913,10066.800811,8963.317327
145.641688,1702.473667,10732.986159,10189.070123
145.641998,962.267725,7254.018232,5822.325785
145.642307,-148.041188,5921.647536,4596.572988
145.642617,-2072.576638,4663.297435,-2145.067394
145.642926,2294.638420,8734.430116,-8810.098227
145.643236,962.267725,13323.706956,-9729.412825
145.643546,-6365.771101,12435.459826,-6511.811733
145.643855,-4959.379811,13693.809927,-2911.162892
145.644165,3923.091493,12213.398043,-4060.306139
145.644474,-3034.844362,5921.647536,-2681.334243
145.644784,-518.144159,8956.491898,3830.477490
145.645094,5625.565159,5477.523971,3064.381992
145.645403,3775.050304,8438.347739,1991.848295
145.645713,-2220.617826,10066.800811,7048.078582
145.646022,-0.000000,11547.212695,1302.362347
145.646332,888.247130,11621.233289,-2834.553343
145.646641,-1850.514855,11843.295072,1302.362347
145.646951,-3330.926739,8438.347739,-4519.963438
145.647261,6439.791695,10658.965565,-17160.539155
145.647570,-1480.411884,10140.821405,-5286.058936
145.647880,-6735.874072,10288.862594,7354.516781
145.648189,2294.638420,6069.688724,5362.668486
145.648499,10584.944971,7254.018232,229.828649
145.648808,-1776.494261,7254.018232,5439.278036
145.649118,-5995.668130,11473.192101,5592.497135
145.649428,5551.544565,7624.121203,-6511.811733
145.649737,1924.535449,6365.771101,-6741.640382
145.650047,-3775.050304,9918.759623,4903.011187
145.650356,-1554.432478,13027.624579,2374.896044
145.650666,1036.288319,11621.233289,-4443.353888
145.650975,518.144159,12731.542202,-4596.572988
145.651285,-3923.091493,8956.491898,-3447.429741
145.651595,-1924.535449,8216.285956,-4519.963438
145.651904,-1776.494261,12139.377449,-6818.249932
145.652214,1258.350101,13027.624579,-3524.039291
145.652523,2220.617826,13323.706956,-4903.011187
145.652833,-1702.473667,10436.903782,4443.353888
145.653143,-888.247130,7105.977043,5669.106685
145.653452,4737.318029,6439.791695,-3677.258390
145.653762,7772.162391,2738.761985,-4903.011187
145.654071,-2146.597232,7031.956449,3677.258390
145.654381,-5847.626942,10362.883188,4596.572988
145.654690,5033.400406,11547.212695,-8963.317327
145.655000,1998.556043,10214.842000,-9806.022374
145.655310,-1110.308913,8660.409521,-229.828649
145.655619,-3701.029710,3627.009116,5056.230287
145.655929,4367.215058,8586.388927,1072.533697
145.656238,444.123565,9104.533087,-2834.553343
145.656548,-4367.215058,7920.203579,1838.629195
145.656857,-1258.350101,12139.377449,-612.876398
145.657167,592.164754,15544.324782,-6894.859482
145.657477,296.082377,15692.365970,-6818.249932
145.657786,740.205942,13693.809927,-3447.429741
145.658096,-2220.617826,14063.912898,-306.438199
145.658405,-3034.844362,9104.533087,-1762.019645
145.658715,-2146.597232,8734.430116,-2604.724693
145.659025,6291.750507,5033.400406,-3140.991542
145.659334,888.247130,4515.256246,-842.705048
145.659644,-962.267725,3182.885551,2911.162892
145.659953,3108.864956,2368.659014,3447.429741
145.660263,1110.308913,7402.059420,3140.991542
145.660572,962.267725,11991.336260,536.266849
145.660882,1998.556043,9326.594869,-1915.238745
145.661192,-0.000000,10807.006753,-4290.134789
145.661501,-5625.565159,12139.377449,-4519.963438
145.661811,-1332.370696,14582.057057,-9193.145976
145.662120,7105.977043,12139.377449,-12563.966167
145.662430,-2664.741391,10214.842000,459.657299
145.662739,-6365.771101,14508.036463,14555.814462
145.663049,1850.514855,12213.398043,2757.943793
145.663359,6069.688724,11103.089130,-7277.907231
145.663668,148.041188,10066.800811,-3064.381992
145.663978,-5773.606348,5995.668130,2145.067394
145.664287,2886.803174,10436.903782,-2834.553343
145.664597,3330.926739,10807.006753,-8044.002729
145.664906,-5847.626942,10288.862594,-2604.724693
145.665216,-1480.411884,9474.636058,1608.800546
145.665526,5551.544565,2664.741391,76.609550
145.665835,4737.318029,2812.782580,0.000000
145.666145,-222.061783,7179.997637,306.438199
145.666454,-2368.659014,8660.409521,8733.488677
145.666764,-1184.329507,10066.800811,4290.134789
145.667074,-1480.411884,13693.809927,-3983.696590
145.667383,4663.297435,14878.139434,-9269.755526
145.667693,-5699.585753,16432.571912,-6128.763984
145.668002,-5107.421000,16876.695478,-4826.401637
145.668312,2442.679609,14137.933492,-10955.165621
145.668621,-2072.576638,10214.842000,-7737.564530
145.668931,-3775.050304,9474.636058,6588.421283
145.669241,-2516.700203,6883.915261,6588.421283
145.669550,6957.935855,6069.688724,-1532.190996
145.669860,4589.276840,2664.741391,383.047749
145.670169,-2368.659014,1998.556043,3294.210641
145.670479,-1110.308913,3627.009116,-612.876398
145.670788,-0.000000,10066.800811,2604.724693
145.671098,1110.308913,10732.986159,-3600.648841
145.671408,3627.009116,11991.336260,-8503.660028
145.671717,2960.823768,10510.924376,-4749.792088
145.672027,-4441.235652,8882.471304,-2604.724693
145.672336,-4885.359217,10436.903782,-383.047749
145.672646,2220.617826,11399.171507,0.000000
145.672955,-1554.432478,12213.398043,2374.896044
145.673265,-4959.379811,15322.262999,5515.887586
145.673575,370.102971,16062.468941,-5592.497135
145.673884,518.144159,16950.716072,-5669.106685
145.674194,-5477.523971,11769.274478,-4673.182538
145.674503,-5107.421000,8660.409521,-4979.620737
145.674813,6513.812290,8216.285956,-8810.098227
145.675123,-0.000000,7254.018232,-7584.345430
145.675432,-4737.318029,10066.800811,1302.362347
145.675742,4293.194464,4515.256246,-1915.238745
145.676051,4959.379811,3849.070898,-6128.763984
145.676361,370.102971,814.226536,-2528.115143
145.676670,-6365.771101,1036.288319,5592.497135
145.676980,1924.535449,9770.718434,-1685.410096
145.677290,5551.544565,15618.345376,-10342.289223
145.677599,740.205942,12213.398043,-11414.822920
145.677909,-4219.173869,10066.800811,-7584.345430
145.678218,-2442.679609,11325.150913,-7277.907231
145.678528,-2664.741391,12287.418637,-11108.384721
145.678837,-1628.453072,13619.789333,-13253.452115
145.679147,3034.844362,14137.933492,-12334.137518
145.679457,-1628.453072,9992.780217,-5209.449386
145.679766,-3627.009116,10140.821405,-5056.230287
145.680076,444.123565,4663.297435,-11874.480219
145.680385,1406.391290,6069.688724,-16547.662757
145.680695,3108.864956,9030.512492,-8963.317327
145.681005,-3478.967927,6439.791695,-4903.011187
145.681314,8364.327145,11843.295072,-9039.926876
145.681624,7179.997637,4737.318029,-11644.651570
145.681933,-2886.803174,2146.597232,-4213.525239
145.682243,-5921.647536,-296.082377,612.876398
145.682552,1036.288319,8142.265362,-6665.030833
145.682862,3330.926739,9548.656652,-14785.643111
145.683172,666.185348,10436.903782,-14249.376263
145.683481,-5699.585753,12213.398043,-8580.269578
145.683791,888.247130,17542.880825,-13866.328514
145.684100,444.123565,14582.057057,-15168.690860
145.684410,-3849.070898,14359.995275,-6665.030833
145.684719,-6957.935855,11177.109724,-4060.306139
145.685029,1406.391290,9844.739029,-12180.918418
145.685339,-444.123565,5255.462188,-18539.511052
145.685648,-1258.350101,8586.388927,-13176.842566
145.685958,-3923.091493,9252.574275,-8120.612279
145.686267,2516.700203,11325.150913,-13713.109414
145.686577,518.144159,7105.977043,-13483.280765
145.686886,4071.132681,3849.070898,-7048.078582
145.687196,-7994.224174,2442.679609,-2451.505594
145.687506,-1480.411884,4885.359217,-1838.629195
145.687815,4367.215058,5625.565159,-12947.013916
145.688125,5181.441594,6661.853478,-19152.387450
145.688434,-4589.276840,8438.347739,-9193.145976
145.688744,-5255.462188,12435.459826,-3140.991542
145.689054,2738.761985,15766.386565,-16241.224558
145.689363,7920.203579,13101.645173,-19458.825649
145.689673,-2590.720797,12139.377449,-6665.030833
145.689982,-6513.812290,9252.574275,-919.314598
145.690292,-2738.761985,7550.100608,-8886.707777
145.690601,2664.741391,9474.636058,-18999.168350
145.690911,814.226536,9400.615463,-16394.443657
145.691221,-4071.132681,15248.242405,-6665.030833
145.691530,-666.185348,14211.954086,-7124.688131
145.691840,3849.070898,15766.386565,-18845.949251
145.692149,5551.544565,6217.729913,-17007.320056
145.692459,-1110.308913,2368.659014,-8503.660028
145.692768,-1332.370696,-518.144159,-766.095498
145.693078,1998.556043,2886.803174,-2451.505594
145.693388,5033.400406,6439.791695,-5439.278036
145.693697,1480.411884,8216.285956,-5132.839837
145.694007,-4589.276840,12805.562797,-7354.516781
145.694316,-740.205942,14285.974681,-12563.966167
145.694626,1406.391290,15840.407159,-21297.454844
145.694936,-5625.565159,15766.386565,-18462.901502
145.695245,-5921.647536,14656.077652,-11951.089769
145.695555,-4367.215058,11325.150913,-13406.671215
145.695864,1850.514855,8882.471304,-14785.643111
145.696174,1776.494261,8660.409521,-8503.660028
145.696483,-1554.432478,6513.812290,1915.238745
145.696793,814.226536,5847.626942,1455.581446
145.697103,-0.000000,7550.100608,-4749.792088
145.697412,296.082377,9030.512492,-12793.794817
145.697722,-3034.844362,12805.562797,-17160.539155
145.698031,-518.144159,12065.356855,-17926.634653
145.698341,-740.205942,10584.944971,-15934.786358
145.698650,444.123565,9400.615463,-12257.527968
145.698960,296.082377,7994.224174,-766.095498
145.699270,-518.144159,8364.327145,-919.314598
145.699579,-1184.329507,8364.327145,-536.266849
145.699889,3182.885551,9474.636058,-8120.612279
145.700198,5921.647536,9474.636058,-14172.766713
145.700508,1776.494261,8808.450710,-10265.679673
145.700817,-5255.462188,11843.295072,-6971.469032
145.701127,-444.123565,16210.510130,-9882.631924
145.701437,444.123565,14730.098246,-16088.005458
145.701746,-2738.761985,15766.386565,-10189.070123
145.702056,-3256.906145,13175.665768,-12180.918418
145.702365,592.164754,8734.430116,-18309.682402
145.702675,1776.494261,7105.977043,-18386.291952
145.702985,-1406.391290,4959.379811,-8886.707777
145.703294,1184.329507,3997.112087,1915.238745
145.703604,4219.173869,7772.162391,-3294.210641
145.703913,5477.523971,6069.688724,-6971.469032
145.704223,-222.061783,4737.318029,-7507.735880
145.704532,-1924.535449,4737.318029,-7967.393179
145.704842,-2220.617826,8882.471304,-15781.567259
145.705151,2886.803174,12361.439231,-21757.112143
145.705461,1258.350101,13101.645173,-17390.367805
145.705770,-4367.215058,12657.521608,-4749.792088
145.706080,-1406.391290,11843.295072,-5515.887586
145.706389,1628.453072,8586.388927,-10725.336972
145.706699,592.164754,8142.265362,-11261.603821
145.707008,-4293.194464,7105.977043,-7967.393179
145.707318,-2812.782580,9252.574275,-10495.508323
145.707627,-1258.350101,13249.686362,-18386.291952
145.707937,1332.370696,16802.674883,-18999.168350
145.708246,-666.185348,14434.015869,-14785.643111
145.708556,-0.000000,12435.459826,-9806.022374
145.708865,2146.597232,6439.791695,-6741.640382
145.709175,3330.926739,2960.823768,-5439.278036
145.709484,2368.659014,-1924.535449,-3983.696590
145.709794,-74.020594,-2886.803174,-1685.410096
145.710103,-1628.453072,2146.597232,-3983.696590
145.710413,-296.082377,7476.080014,-11184.994271
145.710722,-370.102971,13545.768739,-16854.100956
145.711032,-1406.391290,16654.633695,-13253.452115
145.711341,-1110.308913,17468.860231,-13636.499864
145.711651,518.144159,16358.551318,-16241.224558
145.711960,-1554.432478,12657.521608,-14632.424012
145.712270,-2368.659014,9252.574275,-6358.592633
145.712579,-1406.391290,8512.368333,-6128.763984
145.712889,-222.061783,7772.162391,-8656.879127
145.713198,2072.576638,8956.491898,-10342.289223
145.713508,666.185348,9844.739029,-13789.718964
145.713817,222.061783,10881.027347,-14172.766713
145.714127,-0.000000,12287.418637,-11108.384721
145.714436,740.205942,9400.615463,-10112.460574
145.714746,1110.308913,7994.224174,-9499.584175
145.715056,444.123565,1850.514855,-5898.935335
145.715365,1036.288319,444.123565,-6894.859482
145.715675,888.247130,2886.803174,-8350.440928
145.715984,888.247130,7846.182985,-7048.078582
145.716294,666.185348,10658.965565,-7967.393179
145.716603,-814.226536,15766.386565,-9499.584175
145.716913,1036.288319,16062.468941,-11338.213370
145.717222,-888.247130,14359.995275,-13023.623466
145.717532,-4145.153275,13101.645173,-16930.710506
145.717841,-962.267725,9622.677246,-10342.289223
145.718151,-0.000000,10214.842000,-10189.070123
145.718460,-148.041188,10066.800811,-7814.174080
145.718770,666.185348,10066.800811,-5898.935335
145.719079,3404.947333,8586.388927,-7507.735880
145.719389,666.185348,7698.141797,-8427.050478
145.719698,3330.926739,6291.750507,-7737.564530
145.720008,1480.411884,4737.318029,-7124.688131
145.720317,-1110.308913,5551.544565,-4596.572988
145.720627,666.185348,5625.565159,-3677.258390
145.720936,2812.782580,7179.997637,-6894.859482
145.721246,3034.844362,9548.656652,-7737.564530
145.721555,-296.082377,12361.439231,-2604.724693
145.721865,-3182.885551,10732.986159,-5132.839837
145.722174,-592.164754,12287.418637,-8503.660028
145.722484,-3775.050304,10807.006753,-10495.508323
145.722793,-4145.153275,9474.636058,-9499.584175
145.723103,-4441.235652,10584.944971,-11568.042020
145.723412,-1924.535449,11399.171507,-15321.909960
145.723722,-1924.535449,12731.542202,-12180.918418
145.724031,-1406.391290,12583.501014,-10955.165621
145.724341,370.102971,13323.706956,-11031.775171
145.724650,-1110.308913,14582.057057,-12104.308868
145.724960,-1850.514855,14359.995275,-9652.803275
145.725269,-74.020594,11177.109724,-13559.890315
145.725579,-222.061783,10066.800811,-16241.224558
145.725888,-814.226536,7994.224174,-15934.786358
145.726198,2368.659014,6735.874072,-15015.471761
145.726507,3997.112087,7105.977043,-14632.424012
145.726817,3923.091493,6143.709319,-9346.365076
145.727126,2590.720797,4071.132681,-3217.601092
145.727436,14434.015869,-222.061783,-5056.230287
145.727745,-7994.224174,-592.164754,-459.657299
145.728055,1258.350101,9474.636058,-7354.516781
145.728364,-3849.070898,9104.533087,-20531.359346
145.728674,-0.000000,14137.933492,-25894.027832
145.728983,-1110.308913,17616.901420,-23442.522239
145.729293,-5773.606348,17468.860231,-19918.482948
145.729602,7254.018232,19097.313304,-23442.522239
145.729912,518.144159,13397.727550,-14096.157163
145.730221,1850.514855,10066.800811,-4903.011187
145.730531,-444.123565,1924.535449,0.000000
145.730840,21614.013506,-6587.832884,-12027.699319
145.731150,-40415.244433,-9178.553681,-1302.362347
145.731459,13619.789333,13027.624579,-2451.505594
145.731769,17320.819043,19689.478057,-27349.609279
145.732078,15248.242405,20059.581028,-27043.171079
145.732388,-13545.768739,6069.688724,-7354.516781
145.732697,-18505.148550,222.061783,-3983.696590
145.733007,8216.285956,9178.553681,-22293.378992
145.733316,2072.576638,5921.647536,-14402.595362
145.733626,1036.288319,15470.304188,-9806.022374
145.733935,-5921.647536,4885.359217,-7890.783629
145.734245,-3552.988522,14804.118840,-12793.794817
145.734554,4589.276840,16580.613101,-13866.328514
145.734864,-814.226536,12879.583391,-20684.578446
145.735173,-0.000000,14952.160028,-5132.839837
145.735483,-8882.471304,8956.491898,3830.477490
145.735792,2886.803174,7402.059420,-18462.901502
145.736102,-888.247130,1110.308913,-21450.673944
145.736411,148.041188,9104.533087,-12947.013916
145.736721,-6957.935855,3627.009116,-3983.696590
145.737030,3404.947333,10658.965565,-9576.193725
145.737340,8660.409521,10362.883188,-11568.042020
145.737650,4515.256246,4071.132681,-10572.117872
145.737959,-4367.215058,3330.926739,4213.525239
145.738269,-3108.864956,4515.256246,1532.190996
145.738578,4145.153275,8290.306550,-13866.328514
145.738888,3775.050304,13397.727550,-22140.159892
145.739197,-3552.988522,12583.501014,-14249.376263
145.739507,-592.164754,17838.963202,-8886.707777
145.739816,6735.874072,19837.519246,-13636.499864
145.740126,1776.494261,17172.777854,-11491.432470
145.740435,-4737.318029,12361.439231,-1225.752797
145.740745,-1258.350101,6143.709319,-3600.648841
145.741054,2960.823768,8660.409521,-13636.499864
145.741364,-0.000000,5403.503377,-14938.862211
145.741673,2146.597232,9326.594869,-12180.918418
145.741983,1184.329507,9400.615463,-4903.011187
145.742292,-1480.411884,14582.057057,-1608.800546
145.742602,370.102971,11621.233289,-2987.772442
145.742911,2072.576638,11991.336260,-9576.193725
145.743221,-0.000000,7994.224174,-9729.412825
145.743530,-4959.379811,3404.947333,-8197.221829
145.743840,-3701.029710,3775.050304,-10342.289223
145.744149,-2516.700203,8290.306550,-9729.412825
145.744459,-1332.370696,13323.706956,-5132.839837
145.744768,-3923.091493,14656.077652,-8120.612279
145.745078,740.205942,14211.954086,-12027.699319
145.745387,1776.494261,9992.780217,-8350.440928
145.745697,-2294.638420,6957.935855,-4979.620737
145.746006,-2368.659014,5625.565159,-10342.289223
145.746316,-4663.297435,7179.997637,-9729.412825
145.746625,148.041188,15766.386565,-10189.070123
145.746935,5847.626942,12139.377449,-16854.100956
145.747244,1184.329507,14434.015869,-14172.766713
145.747554,-3478.967927,15914.427753,-9882.631924
145.747863,148.041188,7698.141797,-12257.527968
145.748173,-740.205942,7698.141797,-14785.643111
145.748482,5255.462188,5181.441594,-11874.480219
145.748792,-2590.720797,3330.926739,-6281.983084
145.749101,-3330.926739,7698.141797,-1149.143247
145.749411,-1776.494261,8586.388927,-8733.488677
145.749720,4145.153275,13175.665768,-17926.634653
145.750030,4219.173869,10362.883188,-20148.311597
145.750339,-5699.585753,9696.697840,-11184.994271
145.750649,-2368.659014,18357.107362,-12334.137518
145.750958,3182.885551,10584.944971,-20914.407095
145.751268,2516.700203,10658.965565,-20454.749797
145.751577,962.267725,5033.400406,-9499.584175
145.751887,-3552.988522,6883.915261,612.876398
145.752196,1850.514855,8734.430116,-5898.935335
145.752506,6883.915261,9252.574275,-15704.957709
145.752815,5699.585753,8068.244768,-15475.129060
145.753125,-4811.338623,9474.636058,-8044.002729
145.753434,-4737.318029,9474.636058,-8656.879127
145.753744,-2368.659014,9844.739029,-19688.654299
145.754053,5033.400406,9474.636058,-21833.721693
145.754363,-6069.688724,1776.494261,-9959.241474
145.754672,-3552.988522,6735.874072,612.876398
145.754982,-3404.947333,10362.883188,-5056.230287
145.755291,8734.430116,11843.295072,-15168.690860
145.755601,-6217.729913,11103.089130,-11874.480219
145.755910,-1924.535449,9992.780217,-8733.488677
145.756220,-5181.441594,12139.377449,-13636.499864
145.756529,6365.771101,15100.201217,-22906.255390
145.756839,1924.535449,14211.954086,-18386.291952
145.757148,-0.000000,5995.668130,-5669.106685
145.757458,-4737.318029,10732.986159,-5745.716235
145.757767,5773.606348,5329.482782,-8120.612279
145.758077,4811.338623,7624.121203,-13559.890315
145.758386,3330.926739,3923.091493,-10035.851024
145.758696,666.185348,6365.771101,-3600.648841
145.759005,1998.556043,2146.597232,-4749.792088
145.759315,4515.256246,4441.235652,-5439.278036
145.759625,-962.267725,6439.791695,0.000000
145.759934,-1036.288319,4515.256246,-766.095498
145.760244,-2590.720797,5329.482782,-5822.325785
145.760553,-592.164754,5773.606348,-7507.735880
145.760863,5625.565159,11473.192101,-8120.612279
145.761172,2664.741391,11695.253884,-5669.106685
145.761482,-5847.626942,13693.809927,-995.924147
145.761791,-6513.812290,12805.562797,0.000000
145.762101,5625.565159,14656.077652,-4903.011187
145.762410,4293.194464,13397.727550,-7660.954980
145.762720,-7698.141797,14582.057057,-383.047749
145.763029,-3108.864956,13397.727550,0.000000
145.763339,4515.256246,13545.768739,-12947.013916
145.763648,4737.318029,15544.324782,-11721.261119
145.763958,-5551.544565,11177.109724,1378.971896
145.764267,-1628.453072,10510.924376,4979.620737
145.764577,3627.009116,10955.047942,306.438199
145.764886,2886.803174,7476.080014,0.000000
145.765196,-2368.659014,6143.709319,3447.429741
145.765505,-1998.556043,5847.626942,2528.115143
145.765815,-1036.288319,8216.285956,-1608.800546
145.766124,-2590.720797,13397.727550,-6052.154434
145.766434,1258.350101,11917.315666,-6205.373534
145.766743,-1406.391290,11843.295072,-3677.258390
145.767053,-5995.668130,15026.180623,153.219100
145.767362,148.041188,10436.903782,-995.924147
145.767672,7920.203579,7772.162391,-7201.297681
145.767981,-1258.350101,6439.791695,-995.924147
145.768291,-3701.029710,6069.688724,6435.202183
145.768600,2294.638420,6439.791695,842.705048
145.768910,3923.091493,8734.430116,-3907.087040
145.769219,2368.659014,11695.253884,-1762.019645
145.769529,1850.514855,9178.553681,-1915.238745
145.769838,3701.029710,8438.347739,-6128.763984
145.770148,3330.926739,8808.450710,-612.876398
145.770457,-2220.617826,5403.503377,6358.592633
145.770767,-222.061783,7846.182985,1915.238745
145.771076,-962.267725,10140.821405,1838.629195
145.771386,1924.535449,13989.892304,-3677.258390
145.771695,4219.173869,10140.821405,-8120.612279
145.772005,-1184.329507,9770.718434,-4903.011187
145.772314,-8512.368333,14285.974681,5898.935335
145.772624,-1332.370696,11991.336260,2834.553343
145.772933,4515.256246,14211.954086,-4519.963438
145.773243,-74.020594,16950.716072,-5592.497135
145.773552,-2664.741391,13915.871710,-7890.783629
145.773862,222.061783,9326.594869,-8963.317327
145.774171,740.205942,11695.253884,-4903.011187
145.774481,-3997.112087,9326.594869,919.314598
145.774790,-1702.473667,11399.171507,1762.019645
145.775100,3478.967927,10510.924376,-5515.887586
145.775409,1776.494261,4367.215058,-4290.134789
145.775719,-0.000000,3034.844362,2145.067394
145.776028,1554.432478,740.205942,-306.438199
145.776338,370.102971,4663.297435,-1991.848295
145.776647,-518.144159,5329.482782,76.609550
145.776957,1554.432478,9030.512492,-459.657299
145.777266,-2368.659014,8586.388927,-2221.676944
145.777576,-2664.741391,9030.512492,1072.533697
145.777885,-3034.844362,8956.491898,-5439.278036
145.778195,1850.514855,5847.626942,-9652.803275
145.778504,-2516.700203,12953.603985,-3600.648841
145.778814,-2294.638420,10510.924376,-1991.848295
145.779123,4441.235652,10955.047942,-5898.935335
145.779433,3627.009116,14359.995275,-2528.115143
145.779742,-370.102971,13397.727550,306.438199
145.780052,592.164754,9770.718434,-995.924147
145.780361,5773.606348,6439.791695,-6741.640382
145.780671,3849.070898,5625.565159,-5515.887586
145.780980,222.061783,5625.565159,1149.143247
145.781290,-0.000000,5773.606348,6358.592633
145.781599,1184.329507,9548.656652,4903.011187
145.781909,3478.967927,7254.018232,-4979.620737
145.782219,592.164754,5625.565159,-5745.716235
145.782528,-2960.823768,8364.327145,-995.924147
145.782838,-0.000000,10436.903782,2145.067394
145.783147,-2960.823768,11917.315666,-1915.238745
145.783457,2516.700203,11695.253884,-1149.143247
145.783766,-0.000000,13841.851115,3140.991542
145.784076,-3775.050304,12361.439231,919.314598
145.784385,-1998.556043,10288.862594,-2834.553343
145.784695,4737.318029,17320.819043,-6052.154434
145.785004,-1110.308913,10288.862594,-3677.258390
145.785314,-2590.720797,9696.697840,4060.306139
145.785623,1702.473667,9622.677246,0.000000
145.785933,4959.379811,9400.615463,-6741.640382
145.786242,-0.000000,7550.100608,2834.553343
145.786552,-2886.803174,1332.370696,8733.488677
145.786861,-1628.453072,3923.091493,1378.971896
145.787171,4737.318029,2886.803174,-2374.896044
145.787480,-1184.329507,8586.388927,1915.238745
145.787790,-1406.391290,7402.059420,4136.915689
145.788099,2442.679609,10807.006753,2374.896044
145.788409,-4811.338623,10066.800811,1378.971896
145.788718,1036.288319,6513.812290,-3600.648841
145.789028,1924.535449,10140.821405,-3907.087040
145.789337,-4737.318029,10658.965565,-766.095498
145.789647,-3701.029710,11769.274478,4519.963438
145.789956,-1776.494261,18505.148550,3217.601092
145.790266,3627.009116,13397.727550,-5592.497135
145.790575,-1036.288319,12731.542202,-6588.421283
145.790885,4145.153275,12213.398043,-6741.640382
145.791194,-0.000000,7328.038826,-5286.058936
145.791504,-0.000000,7846.182985,3600.648841
145.791813,3182.885551,10955.047942,8733.488677
145.792123,3034.844362,7994.224174,-459.657299
145.792432,3701.029710,3108.864956,-1455.581446
145.792742,-1702.473667,3627.009116,5745.716235
145.793051,-2886.803174,9030.512492,536.266849
145.793361,3330.926739,7254.018232,-5822.325785
145.793670,-3997.112087,9178.553681,-2145.067394
145.793980,1036.288319,8512.368333,-3294.210641
145.794289,-1406.391290,11325.150913,-6741.640382
145.794599,-7994.224174,11177.109724,-2451.505594
145.794908,-1332.370696,9918.759623,1302.362347
145.795218,-444.123565,11547.212695,995.924147
145.795527,-666.185348,11473.192101,-383.047749
145.795837,-592.164754,12509.480420,-1991.848295
145.796146,2220.617826,14804.118840,-9576.193725
145.796456,3552.988522,8808.450710,-7660.954980
145.796765,-6069.688724,10362.883188,2757.943793
145.797075,4145.153275,9696.697840,2681.334243
145.797384,3108.864956,7772.162391,-1762.019645
145.797694,-3701.029710,7328.038826,459.657299
145.798003,-1480.411884,9030.512492,1072.533697
145.798313,8290.306550,7698.141797,-13636.499864
145.798622,1258.350101,7254.018232,-8733.488677
145.798932,-4441.235652,5107.421000,6052.154434
145.799241,-0.000000,8808.450710,7354.516781
145.799551,-296.082377,7772.162391,-1608.800546
145.799860,-2590.720797,12139.377449,76.609550
145.800170,-2294.638420,9252.574275,689.485948
145.800479,-1702.473667,9548.656652,-10648.727422
145.800789,-1258.350101,12805.562797,-9116.536426
145.801098,962.267725,13545.768739,-5286.058936
145.801408,3182.885551,14952.160028,-5669.106685
145.801717,-6735.874072,5625.565159,4673.182538
145.802027,-1554.432478,14063.912898,11184.994271
145.802336,10214.842000,6291.750507,-4903.011187
145.802646,3404.947333,1776.494261,-9269.755526
145.802955,-8586.388927,2220.617826,12793.794817
145.803265,-1258.350101,5403.503377,5822.325785
145.803574,7402.059420,11029.068536,-13636.499864
145.803884,-1480.411884,14063.912898,-2298.286494
145.804193,-3627.009116,15766.386565,5669.106685
145.804503,-3034.844362,11029.068536,-8963.317327
145.804812,962.267725,11177.109724,-7814.174080
145.805122,1702.473667,7105.977043,536.266849
145.805431,-2368.659014,4811.338623,-459.657299
145.805741,-3923.091493,6513.812290,9882.631924
145.806050,-0.000000,10362.883188,14172.766713
145.806360,8512.368333,9918.759623,-7890.783629
145.806669,1628.453072,8512.368333,-9193.145976
145.806979,-8142.265362,9622.677246,6741.640382
145.807288,-5551.544565,10584.944971,229.828649
145.807598,11251.130318,12953.603985,-18692.730151
145.807907,5551.544565,10584.944971,-7277.907231
145.808217,-5329.482782,9918.759623,13176.842566
145.808526,-2368.659014,6217.729913,7967.393179
145.808836,1332.370696,7402.059420,-1225.752797
145.809145,4885.359217,8142.265362,689.485948
145.809455,2738.761985,6143.709319,-6741.640382
145.809764,-370.102971,10807.006753,-5515.887586
145.810074,-5847.626942,7031.956449,8580.269578
145.810383,-0.000000,17246.798449,2911.162892
145.810693,3701.029710,12361.439231,-11184.994271
145.811002,2368.659014,10881.027347,0.000000
145.811312,-7179.997637,6735.874072,9039.926876
145.811621,-2368.659014,5033.400406,-1991.848295
145.811931,4811.338623,10362.883188,-8886.707777
145.812240,222.061783,11029.068536,-3983.696590
145.812550,-5847.626942,10066.800811,3600.648841
145.812859,-1776.494261,9918.759623,4290.134789
145.813169,4663.297435,14285.974681,-9576.193725
145.813478,9918.759623,7105.977043,-11031.775171
145.813788,-1850.514855,2368.659014,919.314598
145.814097,-10881.027347,6661.853478,15858.176809
145.814407,444.123565,3701.029710,4749.792088
145.814716,8438.347739,9844.739029,-9882.631924
145.815026,1036.288319,8956.491898,-1455.581446
145.815335,-10288.862594,5551.544565,8580.269578
145.815645,-8956.491898,10584.944971,1455.581446
145.815954,5255.462188,13249.686362,-10725.336972
145.816264,2368.659014,14508.036463,-12180.918418
145.816573,-8734.430116,15322.262999,919.314598
145.816882,-5995.668130,12731.542202,2834.553343
145.817192,8734.430116,13693.809927,-8886.707777
145.817501,9474.636058,7179.997637,-8886.707777
145.817811,-2812.782580,4145.153275,9806.022374
145.818120,-148.041188,5033.400406,16317.834107
145.818430,5625.565159,7105.977043,6588.421283
145.818739,4367.215058,4071.132681,1072.533697
145.819049,-2590.720797,5255.462188,2221.676944
145.819358,-9178.553681,11399.171507,-4519.963438
145.819668,1702.473667,13323.706956,-13713.109414
145.819977,4737.318029,13693.809927,-18769.339701
145.820287,6439.791695,16432.571912,-14172.766713
145.820596,-8216.285956,12731.542202,7890.783629
145.820906,-7105.977043,13841.851115,16011.395908
145.821215,9178.553681,7624.121203,-459.657299
145.821525,7846.182985,3330.926739,-6511.811733
145.821834,-4737.318029,5181.441594,8273.831378
145.822144,-9178.553681,4663.297435,7124.688131
145.822453,5477.523971,9622.677246,-11721.261119
145.822763,9548.656652,10510.924376,-12870.404366
145.823072,-2812.782580,8734.430116,2681.334243
145.823382,-7254.018232,10436.903782,7048.078582
145.823691,-4441.235652,6883.915261,306.438199
145.824001,3478.967927,5995.668130,-5362.668486
145.824310,6439.791695,6365.771101,-9269.755526
145.824620,-962.267725,5699.585753,-8350.440928
145.824929,-2220.617826,8142.265362,9806.022374
145.825239,-0.000000,13693.809927,8120.612279
145.825548,2886.803174,11325.150913,-2987.772442
145.825858,-518.144159,16506.592507,306.438199
145.826167,-962.267725,11621.233289,-459.657299
145.826477,-2664.741391,7698.141797,-10342.289223
145.826786,1628.453072,9992.780217,-8044.002729
145.827096,-1036.288319,8956.491898,-76.609550
145.827405,-5995.668130,11399.171507,2451.505594
145.827715,4145.153275,11917.315666,-1072.533697
145.828024,3478.967927,5847.626942,1072.533697
145.828334,-1406.391290,2590.720797,689.485948
145.828643,1628.453072,2664.741391,2757.943793
145.828953,-296.082377,6365.771101,-1685.410096
145.829262,1702.473667,6217.729913,-2911.162892
145.829572,4737.318029,8364.327145,2528.115143
145.829881,2664.741391,11991.336260,4366.744339
145.830191,-4367.215058,10584.944971,3600.648841
145.830500,-2590.720797,17320.819043,0.000000
145.830810,1998.556043,14656.077652,-9729.412825
145.831119,-4071.132681,13101.645173,-11261.603821
145.831428,-5847.626942,17098.757260,-3600.648841
145.831738,-1184.329507,14804.118840,-4749.792088
145.832047,814.226536,6587.832884,-9806.022374
145.832357,-3478.967927,7031.956449,3753.867940
145.832666,-814.226536,5699.585753,8886.707777
145.832976,5329.482782,2368.659014,1532.190996
145.833285,1480.411884,2664.741391,2068.457845
145.833595,-666.185348,4293.194464,4290.134789
145.833904,9326.594869,5847.626942,-5515.887586
145.834214,4737.318029,5625.565159,-4673.182538
145.834523,-7772.162391,5477.523971,12717.185267
145.834833,-7402.059420,8586.388927,8656.879127
145.835142,4737.318029,13767.830521,-4903.011187
145.835452,3701.029710,13619.789333,-8733.488677
145.835761,-5773.606348,13249.686362,-3677.258390
145.836071,-1184.329507,17764.942608,-11338.213370
145.836380,2072.576638,16654.633695,-9806.022374
145.836690,1036.288319,10658.965565,1225.752797
145.836999,-3775.050304,13175.665768,7354.516781
145.837309,-0.000000,9252.574275,8197.221829
145.837618,962.267725,9992.780217,6894.859482
145.837928,2590.720797,5181.441594,-6281.983084
145.838237,2146.597232,3404.947333,-10495.508323
145.838547,-4737.318029,5625.565159,-1608.800546
145.838856,-5329.482782,7031.956449,1378.971896
145.839166,7624.121203,11695.253884,-4673.182538
145.839475,9474.636058,9030.512492,-3140.991542
145.839785,-5033.400406,6661.853478,6665.030833
145.840094,-3775.050304,2812.782580,9882.631924
145.840404,2960.823768,5033.400406,-2221.676944
145.840713,1998.556043,9622.677246,-6665.030833
145.841023,-3330.926739,14730.098246,-689.485948
145.841332,-1406.391290,17246.798449,-3753.867940
145.841642,-1110.308913,15174.221811,-12027.699319
145.841951,888.247130,16580.613101,-7354.516781
145.842261,370.102971,13471.748144,-919.314598
145.842570,-4219.173869,10288.862594,1225.752797
145.842880,-5107.421000,7328.038826,7048.078582
145.843189,-2220.617826,5403.503377,3907.087040
145.843499,3108.864956,4515.256246,-10342.289223
145.843808,4219.173869,4663.297435,-5898.935335
145.844118,-5107.421000,6661.853478,3064.381992
145.844427,-296.082377,6143.709319,3064.381992
145.844737,5107.421000,11695.253884,3447.429741
145.845046,1554.432478,5107.421000,3907.087040
145.845356,-4367.215058,5625.565159,3983.696590
145.845665,-4589.276840,8512.368333,-689.485948
145.845974,2294.638420,11177.109724,-7660.954980
145.846284,1184.329507,12509.480420,-13023.623466
145.846593,2960.823768,15396.283594,-9193.145976
145.846903,-4589.276840,18727.210333,-995.924147
145.847212,-0.000000,18357.107362,5056.230287
145.847522,814.226536,16284.530724,-1608.800546
145.847831,2220.617826,5847.626942,-3447.429741
145.848141,-5107.421000,4441.235652,5056.230287
145.848450,-4145.153275,2368.659014,0.000000
145.848760,6143.709319,9696.697840,-14402.595362
145.849069,1110.308913,8438.347739,-9959.241474
145.849379,-3552.988522,13027.624579,4060.306139
145.849688,-370.102971,11251.130318,766.095498
145.849998,4293.194464,8068.244768,-5669.106685
145.850307,-0.000000,5181.441594,919.314598
145.850617,-962.267725,2220.617826,1455.581446
145.850926,1110.308913,3775.050304,-995.924147
145.851236,-814.226536,7254.018232,2298.286494
145.851545,-0.000000,8882.471304,3370.820191
145.851855,7328.038826,13545.768739,-6435.202183
145.852164,148.041188,15692.365970,-6971.469032
145.852474,-6809.894666,16580.613101,153.219100
145.852783,-962.267725,14878.139434,-5132.839837
145.853093,1406.391290,13693.809927,-9269.755526
145.853402,-3182.885551,9548.656652,-1608.800546
145.853712,-1554.432478,10214.842000,1455.581446
145.854021,3552.988522,8882.471304,-4213.525239
145.854331,-3849.070898,7031.956449,1302.362347
145.854640,3552.988522,5329.482782,3447.429741
145.854950,6143.709319,7698.141797,-4366.744339
145.855259,-296.082377,9030.512492,-5669.106685
145.855569,-1776.494261,8438.347739,2681.334243
145.855878,1184.329507,2442.679609,-842.705048
145.856188,2886.803174,2516.700203,-4979.620737
145.856497,-8438.347739,5255.462188,6128.763984
145.856807,-0.000000,10955.047942,3907.087040
145.857116,3849.070898,11473.192101,-9729.412825
145.857426,-1110.308913,11251.130318,-5286.058936
145.857735,-4293.194464,16728.654289,2757.943793
145.858045,-1036.288319,13693.809927,-5822.325785
145.858354,2368.659014,14285.974681,-4826.401637
145.858664,-6439.791695,14211.954086,5439.278036
145.858973,2738.761985,13989.892304,-4060.306139
145.859283,5181.441594,11251.130318,-14479.204912
145.859592,444.123565,7254.018232,-1532.190996
145.859902,-1036.288319,5329.482782,6281.983084
145.860211,666.185348,2294.638420,5975.544884
145.860520,-1628.453072,1480.411884,8503.660028
145.860830,-0.000000,7179.997637,6511.811733
145.861139,5403.503377,2294.638420,-6281.983084
145.861449,-0.000000,4589.276840,-6435.202183
145.861758,-7105.977043,7994.224174,1991.848295
145.862068,2960.823768,13545.768739,-5515.887586
145.862377,7105.977043,13471.748144,-13253.452115
145.862687,-5403.503377,15026.180623,3524.039291
145.862996,-7920.203579,19467.416275,9806.022374
145.863306,2590.720797,13693.809927,-8350.440928
145.863615,6661.853478,10584.944971,-13100.233016
145.863925,-2072.576638,10066.800811,-766.095498
145.864234,-3923.091493,9252.574275,1378.971896
145.864544,666.185348,9400.615463,-1225.752797
145.864853,2368.659014,8364.327145,1838.629195
145.865163,2294.638420,8956.491898,2298.286494
145.865472,-148.041188,3701.029710,306.438199
145.865782,296.082377,-1554.432478,2911.162892
145.866091,-6143.709319,814.226536,1149.143247
145.866401,1702.473667,6291.750507,-5822.325785
145.866710,1332.370696,12213.398043,-3983.696590
145.867020,-5033.400406,14063.912898,-1149.143247
145.867329,3034.844362,10436.903782,-3524.039291
145.867639,-148.041188,16654.633695,-1378.971896
145.867948,-4367.215058,11251.130318,5056.230287
145.868258,1924.535449,13471.748144,-2374.896044
145.868567,5107.421000,10362.883188,-8810.098227
145.868877,-1998.556043,9474.636058,-2068.457845
145.869186,-7698.141797,10881.027347,6435.202183
145.869496,444.123565,14730.098246,-6052.154434
145.869805,10436.903782,11769.274478,-14632.424012
145.870115,-0.000000,5551.544565,-3140.991542
145.870424,-7402.059420,2738.761985,6128.763984
145.870734,-2812.782580,4219.173869,5898.935335
145.871043,7476.080014,3997.112087,536.266849
145.871353,3330.926739,5921.647536,-5669.106685
145.871662,-2368.659014,2812.782580,6588.421283
145.871972,-74.020594,9474.636058,5286.058936
145.872281,1110.308913,12435.459826,-2145.067394
145.872591,3552.988522,19023.292709,-4903.011187
145.872900,-1036.288319,14878.139434,-3447.429741
145.873210,-6957.935855,14434.015869,-1991.848295
145.873519,-2072.576638,12953.603985,-4060.306139
145.873829,4737.318029,10436.903782,-8886.707777
145.874138,-1406.391290,9474.636058,-6588.421283
145.874448,-6069.688724,11843.295072,6128.763984
145.874757,-0.000000,7550.100608,3524.039291
145.875066,5625.565159,7254.018232,-9499.584175
145.875376,2294.638420,5847.626942,-1838.629195
145.875685,-370.102971,6217.729913,4903.011187
145.875995,2072.576638,4589.276840,2451.505594
145.876304,4959.379811,3627.009116,-1838.629195
145.876614,592.164754,4145.153275,3370.820191
145.876923,1036.288319,5625.565159,2911.162892
145.877233,-296.082377,11843.295072,459.657299
145.877542,-1998.556043,12731.542202,-1991.848295
145.877852,-962.267725,16136.489536,-7584.345430
145.878161,3108.864956,16728.654289,-10801.946522
145.878471,-1554.432478,15396.283594,-5745.716235
145.878780,-3478.967927,12065.356855,-229.828649
145.879090,888.247130,13027.624579,-2987.772442
145.879399,1998.556043,10140.821405,-612.876398
145.879709,-2516.700203,6587.832884,3294.210641
145.880018,814.226536,6217.729913,536.266849
145.880328,592.164754,5921.647536,-3524.039291
145.880637,-2960.823768,5403.503377,-995.924147
145.880947,4071.132681,9844.739029,-2145.067394
145.881256,3775.050304,5699.585753,-4903.011187
145.881566,370.102971,8882.471304,306.438199
145.881875,-1554.432478,10140.821405,3983.696590
145.882185,2664.741391,4811.338623,383.047749
145.882494,5033.400406,7994.224174,-995.924147
145.882804,-6661.853478,7994.224174,4749.792088
145.883113,-3701.029710,9474.636058,-1378.971896
145.883423,2516.700203,14656.077652,-11414.822920
145.883732,2442.679609,13027.624579,-9806.022374
145.884042,148.041188,19319.375086,-3064.381992
145.884351,-4737.318029,11103.089130,1991.848295
145.884661,1036.288319,12879.583391,0.000000
145.884970,-592.164754,6587.832884,383.047749
145.885280,5551.544565,7994.224174,-3524.039291
145.885589,518.144159,5329.482782,-1302.362347
145.885899,-7328.038826,4441.235652,5515.887586
145.886208,3108.864956,9252.574275,766.095498
145.886518,7254.018232,7624.121203,-9039.926876
145.886827,2960.823768,8364.327145,-1072.533697
145.887137,-7846.182985,5995.668130,10035.851024
145.887446,-3552.988522,4811.338623,1302.362347
145.887756,4441.235652,11695.253884,-7737.564530
145.888065,-1110.308913,8290.306550,-5515.887586
145.888375,-1628.453072,10807.006753,-3753.867940
145.888684,-222.061783,14656.077652,-6894.859482
145.888994,-370.102971,10732.986159,-1378.971896
145.889303,3256.906145,16136.489536,3447.429741
145.889612,-0.000000,8882.471304,-1149.143247
145.889922,-2368.659014,9104.533087,-612.876398
145.890231,-0.000000,6217.729913,3753.867940
145.890541,4811.338623,3478.967927,-8503.660028
145.890850,4441.235652,6439.791695,-5975.544884
145.891160,-2960.823768,10362.883188,6741.640382
145.891469,-1776.494261,9918.759623,5898.935335
145.891779,-1184.329507,9030.512492,4213.525239
145.892088,370.102971,11399.171507,-2911.162892
145.892398,-1776.494261,8364.327145,-7048.078582
145.892707,370.102971,9474.636058,-9116.536426
145.893017,-4737.318029,9326.594869,-3524.039291
145.893326,-1924.535449,10362.883188,-2834.553343
145.893636,9326.594869,12139.377449,-3600.648841
145.893945,4885.359217,8808.450710,-1378.971896
145.894255,-5329.482782,7105.977043,13176.842566
145.894564,-4219.173869,5921.647536,19612.044749
145.894874,1776.494261,6883.915261,-3677.258390
145.895183,666.185348,10362.883188,-9116.536426
145.895493,-2368.659014,13323.706956,-8656.879127
145.895802,1110.308913,12879.583391,-18616.120601
145.896112,2590.720797,12361.439231,-12180.918418
145.896421,-3923.091493,11251.130318,3294.210641
145.896731,-148.041188,12139.377449,5898.935335
145.897040,5995.668130,3034.844362,3600.648841
145.897350,3849.070898,-0.000000,5209.449386
145.897659,-888.247130,1110.308913,4749.792088
145.897969,-0.000000,4959.379811,-536.266849
145.898278,3923.091493,11473.192101,-4443.353888
145.898588,-2664.741391,16136.489536,-2374.896044
145.898897,3552.988522,14878.139434,-2987.772442
145.899207,1184.329507,12213.398043,-9806.022374
145.899516,-7772.162391,14211.954086,-4290.134789
145.899826,592.164754,13545.768739,-1455.581446
145.900135,1924.535449,8734.430116,-7431.126331
145.900445,-2146.597232,7105.977043,2374.896044
145.900754,-3923.091493,6513.812290,9729.412825
145.901064,1480.411884,7920.203579,612.876398
145.901373,9104.533087,11473.192101,-5898.935335
145.901683,-814.226536,8882.471304,-383.047749
145.901992,-4219.173869,10732.986159,4519.963438
145.902302,2294.638420,11029.068536,-6894.859482
145.902611,7031.956449,7402.059420,-12027.699319
145.902921,-444.123565,5477.523971,1608.800546
145.903230,-5699.585753,7402.059420,7584.345430
145.903540,1406.391290,10732.986159,1838.629195
145.903849,666.185348,10140.821405,-689.485948
145.904158,1406.391290,13693.809927,-1378.971896
145.904468,-370.102971,11843.295072,-4673.182538
145.904777,-4885.359217,15396.283594,-5822.325785
145.905087,1776.494261,13619.789333,-3370.820191
145.905397,3404.947333,12065.356855,-7967.393179
145.905706,1702.473667,10510.924376,-2298.286494
145.906016,-2886.803174,6883.915261,9499.584175
145.906325,4441.235652,1554.432478,6052.154434
145.906635,4885.359217,3256.906145,-2374.896044
145.906944,-7031.956449,7254.018232,8197.221829
145.907254,-2960.823768,11843.295072,9422.974625
145.907563,7105.977043,13175.665768,-15015.471761
145.907873,4293.194464,11843.295072,-15321.909960
145.908182,-3330.926739,8956.491898,3217.601092
145.908492,-4811.338623,11029.068536,3140.991542
145.908801,-0.000000,14582.057057,-1302.362347
145.909111,-1702.473667,7179.997637,3907.087040
145.909421,-814.226536,9326.594869,4596.572988
145.909730,2368.659014,13397.727550,-1532.190996
145.910040,666.185348,8142.265362,-229.828649
145.910349,-3330.926739,9844.739029,1838.629195
145.910659,1110.308913,11399.171507,-4136.915689
145.910968,592.164754,9030.512492,-4136.915689
145.911278,-6735.874072,8068.244768,3677.258390
145.911587,4885.359217,8586.388927,-3753.867940
145.911897,4737.318029,8660.409521,-9422.974625
145.912206,-7624.121203,6365.771101,6588.421283
145.912516,-888.247130,9104.533087,7507.735880
145.912826,6143.709319,10658.965565,-9652.803275
145.913135,-1776.494261,12583.501014,-1532.190996
145.913445,-3478.967927,15100.201217,6818.249932
