#time,accel_x,accel_y,accel_z
161.465010,-222.061783,9548.656652,-766.095498
161.465320,592.164754,9400.615463,-1685.410096
161.465630,666.185348,9400.615463,-1455.581446
161.465939,148.041188,9548.656652,-1072.533697
161.466249,-148.041188,9622.677246,-995.924147
161.466558,1184.329507,9400.615463,-3753.867940
161.466868,-74.020594,10436.903782,-919.314598
161.467178,-296.082377,9030.512492,-536.266849
161.467487,222.061783,9400.615463,-1072.533697
161.467797,-0.000000,9474.636058,-689.485948
161.468107,370.102971,9622.677246,1685.410096
161.468416,-0.000000,8882.471304,-1915.238745
161.468726,1480.411884,9104.533087,-2604.724693
161.469035,-592.164754,9326.594869,-1225.752797
161.469345,444.123565,10214.842000,0.000000
161.469655,370.102971,9770.718434,-842.705048
161.469964,-592.164754,7920.203579,-1225.752797
161.470274,740.205942,9400.615463,-1685.410096
161.470584,-148.041188,8882.471304,-1608.800546
161.470893,74.020594,9918.759623,-1915.238745
161.471203,-0.000000,9030.512492,0.000000
161.471513,1110.308913,8586.388927,689.485948
161.471822,1924.535449,7328.038826,1149.143247
161.472132,4219.173869,6735.874072,306.438199
161.472441,3330.926739,4959.379811,6281.983084
161.472751,740.205942,7328.038826,11721.261119
161.473061,-1184.329507,5403.503377,11031.775171
161.473370,8364.327145,8734.430116,4673.182538
161.473680,4219.173869,6291.750507,4979.620737
161.473990,-1554.432478,9252.574275,10418.898773
161.474299,-1110.308913,11843.295072,14709.033562
161.474609,3182.885551,11325.150913,5745.716235
161.474919,1776.494261,11029.068536,4366.744339
161.475228,-3478.967927,13693.809927,11644.651570
161.475538,-2960.823768,11843.295072,12257.527968
161.475847,-15026.180623,19171.333898,3140.991542
161.476157,16580.613101,14804.118840,-4443.353888
161.476467,-296.082377,6587.832884,11874.480219
161.476776,-13545.768739,9178.553681,31869.572717
161.477086,4293.194464,19689.478057,10265.679673
161.477396,-5477.523971,5995.668130,-4290.134789
161.477705,5033.400406,12065.356855,0.000000
161.478015,-16876.695478,-148.041188,16164.615008
161.478324,518.144159,16210.510130,2834.553343
161.478634,666.185348,4515.256246,2604.724693
161.478944,-5995.668130,6291.750507,11338.213370
161.479253,5773.606348,5995.668130,15168.690860
161.479563,-6217.729913,592.164754,11721.261119
161.479873,5477.523971,6957.935855,12104.308868
161.480182,-4959.379811,3997.112087,14096.157163
161.480492,1036.288319,7994.224174,3447.429741
161.480802,-4145.153275,6883.915261,6128.763984
161.481111,1776.494261,16358.551318,1225.752797
161.481421,4589.276840,11029.068536,-4979.620737
161.481730,1406.391290,14063.912898,9346.365076
161.482040,-0.000000,12065.356855,23978.789087
161.482350,1998.556043,1776.494261,19841.873398
161.482659,5255.462188,7920.203579,12257.527968
161.482969,-3108.864956,4219.173869,11721.261119
161.483279,3404.947333,13323.706956,3294.210641
161.483588,6809.894666,12657.521608,-5362.668486
161.483898,2294.638420,17616.901420,-612.876398
161.484208,-2220.617826,14656.077652,14785.643111
161.484517,-7254.018232,12879.583391,16700.881856
161.484827,962.267725,12435.459826,7048.078582
161.485136,3108.864956,5995.668130,-4443.353888
161.485446,4589.276840,7846.182985,-2834.553343
161.485756,-444.123565,7105.977043,8197.221829
161.486065,666.185348,10658.965565,15704.957709
161.486375,-1480.411884,8364.327145,12947.013916
161.486685,6513.812290,5625.565159,3064.381992
161.486994,1850.514855,2886.803174,1838.629195
161.487304,-7698.141797,3330.926739,5975.544884
161.487614,-4293.194464,7254.018232,4519.963438
161.487923,5847.626942,9326.594869,-6818.249932
161.488233,6365.771101,9030.512492,-6281.983084
161.488542,-296.082377,7179.997637,14096.157163
161.488852,-7920.203579,7772.162391,24285.227287
161.489162,-740.205942,11325.150913,12793.794817
161.489471,5329.482782,10436.903782,-1072.533697
161.489781,518.144159,10732.986159,-3447.429741
161.490091,-5995.668130,12583.501014,1608.800546
161.490400,-2072.576638,13841.851115,-2451.505594
161.490710,7476.080014,14952.160028,-6281.983084
161.491019,4293.194464,11473.192101,5898.935335
161.491329,-4811.338623,7402.059420,26123.856482
161.491639,518.144159,5329.482782,24285.227287
161.491948,6069.688724,4367.215058,7124.688131
161.492258,962.267725,6661.853478,2145.067394
161.492568,-148.041188,7179.997637,5592.497135
161.492877,3404.947333,4959.379811,-459.657299
161.493187,3182.885551,8068.244768,1991.848295
161.493497,-2886.803174,11695.253884,16241.224558
161.493806,-7105.977043,17024.736666,24515.055936
161.494116,18061.024985,16580.613101,9269.755526
161.494425,10658.965565,11399.171507,4443.353888
161.494735,-2590.720797,14359.995275,-2068.457845
161.495045,-1258.350101,11695.253884,8273.831378
161.495354,8882.471304,12731.542202,2451.505594
161.495664,1036.288319,15100.201217,2987.772442
161.495974,-6217.729913,13989.892304,24055.398637
161.496283,-592.164754,14434.015869,19765.263848
161.496593,-2442.679609,5403.503377,0.000000
161.496903,6513.812290,15766.386565,3140.991542
161.497212,740.205942,7254.018232,5209.449386
161.497522,-4589.276840,9252.574275,-1991.848295
161.497831,3997.112087,16358.551318,10035.851024
161.498141,888.247130,16062.468941,9729.412825
161.498451,7254.018232,8882.471304,-1302.362347
161.498760,-444.123565,10510.924376,17696.806004
161.499070,-7698.141797,9400.615463,30720.429470
161.499380,3552.988522,2442.679609,13789.718964
161.499689,11695.253884,3923.091493,536.266849
161.499999,-4145.153275,2220.617826,11568.042020
161.500308,2812.782580,7550.100608,11721.261119
161.500618,3182.885551,9622.677246,6741.640382
161.500928,-7920.203579,8882.471304,12334.137518
161.501237,3997.112087,15766.386565,13942.938064
161.501547,666.185348,7328.038826,2221.676944
161.501857,-4737.318029,5329.482782,5975.544884
161.502166,-7994.224174,8808.450710,15398.519510
161.502476,-1850.514855,12361.439231,5439.278036
161.502786,2516.700203,13323.706956,-459.657299
161.503095,5699.585753,15544.324782,3907.087040
161.503405,-2960.823768,13989.892304,13483.280765
161.503714,-5773.606348,10807.006753,11644.651570
161.504024,-74.020594,15248.242405,5669.106685
161.504334,2960.823768,7920.203579,536.266849
161.504643,2886.803174,5921.647536,-1455.581446
161.504953,-7476.080014,5551.544565,6665.030833
161.505263,-888.247130,8068.244768,12487.356617
161.505572,1924.535449,6217.729913,6588.421283
161.505882,7846.182985,4663.297435,6205.373534
161.506192,-1554.432478,5403.503377,13636.499864
161.506501,-11399.171507,666.185348,17620.196454
161.506811,5847.626942,7846.182985,4903.011187
161.507120,8142.265362,6069.688724,-9422.974625
161.507430,4367.215058,9622.677246,1455.581446
161.507740,-6291.750507,13323.706956,19995.092498
161.508049,1110.308913,7179.997637,18079.853753
161.508359,8586.388927,12657.521608,5745.716235
161.508669,-5773.606348,3849.070898,12793.794817
161.508978,-2368.659014,10955.047942,13023.623466
161.509288,296.082377,10807.006753,-4366.744339
161.509598,5033.400406,16802.674883,-14709.033562
161.509907,592.164754,13175.665768,4596.572988
161.510217,-3330.926739,15322.262999,16854.100956
161.510526,5773.606348,9844.739029,8273.831378
161.510836,6069.688724,11991.336260,7584.345430
161.511146,-3775.050304,7179.997637,14402.595362
161.511455,-2812.782580,4663.297435,11568.042020
161.511765,9622.677246,2886.803174,229.828649
161.512075,2516.700203,7846.182985,-2451.505594
161.512384,1406.391290,5033.400406,6588.421283
161.512694,-1110.308913,5699.585753,14325.985813
161.513003,1184.329507,4589.276840,12717.185267
161.513313,-3108.864956,2442.679609,13636.499864
161.513623,-4145.153275,9474.636058,9652.803275
161.513932,2072.576638,8142.265362,-3753.867940
161.514242,-1332.370696,7105.977043,-5592.497135
161.514552,-3404.947333,17098.757260,1225.752797
161.514861,-296.082377,16432.571912,-689.485948
161.515171,-3923.091493,15840.407159,2298.286494
161.515481,-13175.665768,16580.613101,12487.356617
161.515790,-1184.329507,20429.683999,4213.525239
161.516100,6365.771101,12361.439231,-15704.957709
161.516409,-4219.173869,8290.306550,-3140.991542
161.516719,-1406.391290,9474.636058,14325.985813
161.517029,3108.864956,1702.473667,3294.210641
161.517338,9622.677246,2368.659014,-3140.991542
161.517648,-4145.153275,2368.659014,17160.539155
161.517958,-6069.688724,2368.659014,12640.575717
161.518267,10732.986159,2442.679609,-7124.688131
161.518577,-2368.659014,2146.597232,-2757.943793
161.518887,-1628.453072,4811.338623,8580.269578
161.519196,4663.297435,6735.874072,1072.533697
161.519506,-740.205942,10658.965565,306.438199
161.519816,-1850.514855,14285.974681,10035.851024
161.520125,666.185348,13619.789333,459.657299
161.520435,3775.050304,15988.448347,-9269.755526
161.520745,1480.411884,20207.622217,-842.705048
161.521054,222.061783,14211.954086,5592.497135
161.521364,-1776.494261,16062.468941,1149.143247
161.521674,-3849.070898,12435.459826,-153.219100
161.521983,3701.029710,13619.789333,-5439.278036
161.522293,7624.121203,8364.327145,-7354.516781
161.522603,740.205942,10881.027347,-689.485948
161.522913,-1110.308913,11843.295072,14096.157163
161.523222,4441.235652,7624.121203,10725.336972
161.523532,4441.235652,1110.308913,1532.190996
161.523842,-9622.677246,2368.659014,4903.011187
161.524151,-7105.977043,6513.812290,4903.011187
161.524461,518.144159,9474.636058,-17390.367805
161.524771,4737.318029,16210.510130,-19535.435199
161.525081,1850.514855,16432.571912,1532.190996
161.525390,-2442.679609,9326.594869,9806.022374
161.525700,-6587.832884,6143.709319,10801.946522
161.526010,-4441.235652,2072.576638,7584.345430
161.526319,2664.741391,3552.988522,-6281.983084
161.526629,74.020594,9622.677246,-10725.336972
161.526939,-8882.471304,10288.862594,-2911.162892
161.527248,1702.473667,15692.365970,-1225.752797
161.527558,4589.276840,7772.162391,-5898.935335
161.527868,1258.350101,6883.915261,383.047749
161.528178,-2960.823768,4441.235652,12257.527968
161.528487,-740.205942,296.082377,7354.516781
161.528797,4959.379811,5403.503377,3064.381992
161.529107,888.247130,10732.986159,8120.612279
161.529416,13175.665768,12213.398043,0.000000
161.529726,-148.041188,11695.253884,-3524.039291
161.530036,-9548.656652,17542.880825,2221.676944
161.530346,3552.988522,16728.654289,-6971.469032
161.530655,3701.029710,17172.777854,-16011.395908
161.530965,-1184.329507,21910.095883,-459.657299
161.531275,-3034.844362,13989.892304,9806.022374
161.531584,1850.514855,2812.782580,4903.011187
161.531894,-3182.885551,9030.512492,2145.067394
161.532204,-5033.400406,7994.224174,7354.516781
161.532513,7550.100608,2294.638420,-9346.365076
161.532823,888.247130,9992.780217,-13636.499864
161.533133,-2368.659014,12583.501014,7354.516781
161.533443,-1998.556043,5329.482782,11108.384721
161.533752,-3552.988522,5477.523971,-3600.648841
161.534062,-8142.265362,-1776.494261,76.609550
161.534372,-2294.638420,1850.514855,3064.381992
161.534681,3701.029710,10732.986159,-13253.452115
161.534991,-3108.864956,12805.562797,-11951.089769
161.535301,2590.720797,20429.683999,3677.258390
161.535610,74.020594,6513.812290,-1762.019645
161.535920,-5847.626942,3775.050304,-1378.971896
161.536230,-8438.347739,11325.150913,15858.176809
161.536540,-3775.050304,2886.803174,995.924147
161.536849,11251.130318,11621.233289,-22906.255390
161.537159,-0.000000,12805.562797,-9422.974625
161.537469,-3627.009116,10362.883188,6741.640382
161.537778,4293.194464,10881.027347,-4366.744339
161.538088,-1998.556043,6365.771101,-3600.648841
161.538398,3108.864956,6957.935855,10801.946522
161.538708,-1924.535449,6661.853478,4519.963438
161.539017,-7550.100608,2886.803174,-1991.848295
161.539327,11103.089130,14804.118840,153.219100
161.539637,2664.741391,13471.748144,-10572.117872
161.539946,-740.205942,7328.038826,-9729.412825
161.540256,-7846.182985,15100.201217,14325.985813
161.540566,-1406.391290,12805.562797,3447.429741
161.540875,8290.306550,13915.871710,-18999.168350
161.541185,-1184.329507,18505.148550,-3600.648841
161.541495,-6809.894666,10732.986159,8733.488677
161.541805,1036.288319,6069.688724,-8656.879127
161.542114,2368.659014,9400.615463,-8273.831378
161.542424,-1924.535449,5921.647536,4060.306139
161.542734,2960.823768,6957.935855,-2451.505594
161.543043,3627.009116,5033.400406,-919.314598
161.543353,-962.267725,9030.512492,12334.137518
161.543663,-0.000000,5329.482782,7124.688131
161.543973,-1924.535449,74.020594,-3064.381992
161.544282,-962.267725,9326.594869,4903.011187
161.544592,-2220.617826,5921.647536,-1608.800546
161.544902,7328.038826,17987.004391,-23519.131789
161.545211,-2590.720797,16432.571912,-5745.716235
161.545521,-2220.617826,16210.510130,10189.070123
161.545831,-0.000000,12139.377449,-2145.067394
161.546140,-1998.556043,7105.977043,-5286.058936
161.546450,-1554.432478,7179.997637,7124.688131
161.546760,-2146.597232,4145.153275,4749.792088
161.547070,6661.853478,11399.171507,-4903.011187
161.547379,8512.368333,10807.006753,-1532.190996
161.547689,-814.226536,11621.233289,-3753.867940
161.547999,-2368.659014,3256.906145,3600.648841
161.548308,1406.391290,7698.141797,8886.707777
161.548618,1850.514855,7105.977043,-306.438199
161.548928,-4515.256246,5847.626942,-3753.867940
161.549238,740.205942,13915.871710,1455.581446
161.549547,-4219.173869,4737.318029,-3140.991542
161.549857,7920.203579,14730.098246,-13559.890315
161.550167,-4515.256246,16358.551318,-995.924147
161.550476,-5033.400406,12361.439231,8044.002729
161.550786,-0.000000,16358.551318,-4213.525239
161.551096,-4811.338623,9918.759623,-2604.724693
161.551405,4071.132681,17024.736666,-2221.676944
161.551715,-5699.585753,8068.244768,-6281.983084
161.552025,-2960.823768,6513.812290,-2528.115143
161.552335,3034.844362,5181.441594,1838.629195
161.552644,1702.473667,2294.638420,-5975.544884
161.552954,-2812.782580,6365.771101,5209.449386
161.553264,-3775.050304,7846.182985,12104.308868
161.553573,7105.977043,3182.885551,-7201.297681
161.553883,-0.000000,9474.636058,-10495.508323
161.554193,-7105.977043,7402.059420,10572.117872
161.554503,-4145.153275,5995.668130,6128.763984
161.554812,4737.318029,14211.954086,-16088.005458
161.555122,2516.700203,16580.613101,-10342.289223
161.555432,-5921.647536,15100.201217,3370.820191
161.555741,1406.391290,17098.757260,-7354.516781
161.556051,1184.329507,11473.192101,-9652.803275
161.556361,2812.782580,9844.739029,2451.505594
161.556670,-2146.597232,10066.800811,1685.410096
161.556980,296.082377,3552.988522,-3600.648841
161.557290,6809.894666,9474.636058,842.705048
161.557600,4293.194464,3404.947333,76.609550
161.557909,7476.080014,5921.647536,-4979.620737
161.558219,-3478.967927,8660.409521,7814.174080
161.558529,-2146.597232,4589.276840,9499.584175
161.558838,3701.029710,10214.842000,-9806.022374
161.559148,-1924.535449,8808.450710,-7354.516781
161.559458,-2664.741391,11843.295072,1225.752797
161.559768,518.144159,17172.777854,-7890.783629
161.560077,2442.679609,14063.912898,-10955.165621
161.560387,1554.432478,12657.521608,0.000000
161.560697,-4811.338623,12139.377449,3217.601092
161.561006,-2442.679609,9474.636058,-2451.505594
161.561316,3108.864956,8734.430116,-766.095498
161.561626,3552.988522,7550.100608,-3064.381992
161.561935,-7105.977043,2516.700203,-842.705048
161.562245,2442.679609,9622.677246,2834.553343
161.562555,3997.112087,-740.205942,-5209.449386
161.562865,740.205942,4959.379811,-5209.449386
161.563174,-1850.514855,8882.471304,11108.384721
161.563484,-1554.432478,6365.771101,6588.421283
161.563794,3552.988522,14434.015869,-7201.297681
161.564103,-3627.009116,10288.862594,-1838.629195
161.564413,4811.338623,12805.562797,-6052.154434
161.564723,2368.659014,15174.221811,-12563.966167
161.565033,-3775.050304,14359.995275,4673.182538
161.565342,1628.453072,16506.592507,9269.755526
161.565652,7105.977043,7772.162391,-7814.174080
161.565962,-592.164754,9178.553681,-1991.848295
161.566271,-9400.615463,12657.521608,16471.053207
161.566581,1258.350101,7772.162391,-5439.278036
161.566891,8882.471304,7254.018232,-24515.055936
161.567200,444.123565,13619.789333,-4366.744339
161.567510,-6217.729913,1702.473667,12947.013916
161.567820,-444.123565,5773.606348,0.000000
161.568130,-148.041188,7624.121203,2681.334243
161.568439,4293.194464,9474.636058,2221.676944
161.568749,-370.102971,5625.565159,-3830.477490
161.569059,-4293.194464,6587.832884,6511.811733
161.569368,-2294.638420,12879.583391,5132.839837
161.569678,1924.535449,10584.944971,-12640.575717
161.569988,-370.102971,12509.480420,-10265.679673
161.570298,-5699.585753,14359.995275,-1302.362347
161.570607,-888.247130,9918.759623,-11568.042020
161.570917,1554.432478,14434.015869,-10342.289223
161.571227,-4589.276840,13693.809927,11644.651570
161.571536,1480.411884,4293.194464,9193.145976
161.571846,5995.668130,962.267725,-6358.592633
161.572156,-4441.235652,7031.956449,6052.154434
161.572465,-148.041188,5403.503377,7967.393179
161.572775,1184.329507,7476.080014,-11874.480219
161.573085,2294.638420,13841.851115,-9039.926876
161.573395,-1184.329507,15766.386565,536.266849
161.573704,-2960.823768,9252.574275,-5209.449386
161.574014,-4589.276840,9622.677246,459.657299
161.574324,2886.803174,14285.974681,2987.772442
161.574633,5847.626942,7105.977043,-9039.926876
161.574943,4219.173869,8216.285956,-3217.601092
161.575253,-7476.080014,15322.262999,12717.185267
161.575563,-4811.338623,7179.997637,3370.820191
161.575872,6957.935855,10436.903782,-17313.758255
161.576182,-1406.391290,13693.809927,-12257.527968
161.576492,-4737.318029,9844.739029,-6741.640382
161.576801,2812.782580,9400.615463,-6281.983084
161.577111,-740.205942,11325.150913,2911.162892
161.577421,5033.400406,2220.617826,9959.241474
161.577730,1110.308913,-1184.329507,4213.525239
161.578040,-2072.576638,-148.041188,4596.572988
161.578350,-1924.535449,6587.832884,4826.401637
161.578660,3404.947333,9696.697840,-14785.643111
161.578969,6661.853478,14952.160028,-20531.359346
161.579279,-370.102971,18949.272115,-2911.162892
161.579589,-8216.285956,9770.718434,4979.620737
161.579898,-2442.679609,9030.512492,-1762.019645
161.580208,-2220.617826,11843.295072,0.000000
161.580518,4071.132681,10288.862594,-5515.887586
161.580828,4071.132681,10214.842000,-9346.365076
161.581137,-814.226536,11029.068536,2145.067394
161.581447,6291.750507,8364.327145,76.609550
161.581757,5847.626942,5699.585753,-6665.030833
161.582066,-7402.059420,4293.194464,7737.564530
161.582376,-7105.977043,8068.244768,12717.185267
161.582686,4071.132681,6143.709319,-13866.328514
161.582995,4885.359217,10140.821405,-22140.159892
161.583305,2664.741391,15100.201217,1762.019645
161.583615,-2738.761985,7920.203579,9346.365076
161.583925,1776.494261,9030.512492,-689.485948
161.584234,3404.947333,12583.501014,383.047749
161.584544,-1406.391290,4589.276840,459.657299
161.584854,-74.020594,14137.933492,-1915.238745
161.585163,-4293.194464,12657.521608,1378.971896
161.585473,2812.782580,11029.068536,-6894.859482
161.585783,-3034.844362,13471.748144,-11184.994271
161.586093,-3849.070898,5699.585753,-459.657299
161.586402,962.267725,7402.059420,-2528.115143
161.586712,2220.617826,5625.565159,-11797.870669
161.587022,-3701.029710,10510.924376,2068.457845
161.587331,-444.123565,10214.842000,12180.918418
161.587641,4219.173869,1480.411884,-2221.676944
161.587951,740.205942,5329.482782,612.876398
161.588260,-8216.285956,8142.265362,9882.631924
161.588570,-5033.400406,2442.679609,2681.334243
161.588880,6957.935855,15544.324782,-13789.718964
161.589190,3552.988522,20355.663405,-10418.898773
161.589499,-2368.659014,14508.036463,842.705048
161.589809,-5403.503377,14137.933492,229.828649
161.590119,-7846.182985,11769.274478,1455.581446
161.590428,9400.615463,11991.336260,-5592.497135
161.590738,1480.411884,11843.295072,-9652.803275
161.591048,-9030.512492,12435.459826,5209.449386
161.591358,7254.018232,8882.471304,4136.915689
161.591667,6957.935855,5255.462188,-8733.488677
161.591977,-1850.514855,5329.482782,4060.306139
161.592287,-6217.729913,5477.523971,16854.100956
161.592596,-1406.391290,814.226536,383.047749
161.592906,7179.997637,15174.221811,-15551.738609
161.593216,370.102971,13101.645173,-5132.839837
161.593525,-4663.297435,9400.615463,-919.314598
161.593835,-1850.514855,16950.716072,-5056.230287
161.594145,666.185348,10584.944971,-1302.362347
161.594455,1332.370696,6217.729913,-3753.867940
161.594764,-2146.597232,9770.718434,-4060.306139
161.595074,-4515.256246,8512.368333,2451.505594
161.595384,8438.347739,7105.977043,1685.410096
161.595693,1924.535449,12731.542202,-5209.449386
161.596003,-1036.288319,6365.771101,1378.971896
161.596313,1702.473667,9030.512492,1838.629195
161.596623,-2960.823768,7476.080014,-7814.174080
161.596932,444.123565,10510.924376,-6205.373534
161.597242,2368.659014,14285.974681,-1838.629195
161.597552,518.144159,2738.761985,-3217.601092
161.597861,4071.132681,9770.718434,-76.609550
161.598171,-3182.885551,6069.688724,5286.058936
161.598481,-4959.379811,4737.318029,5439.278036
161.598790,4737.318029,15914.427753,-2068.457845
161.599100,2664.741391,11695.253884,-6358.592633
161.599410,7254.018232,11399.171507,-9806.022374
161.599720,-3775.050304,17024.736666,-6511.811733
161.600029,-6143.709319,8512.368333,2911.162892
161.600339,6069.688724,10066.800811,0.000000
161.600649,-3330.926739,9696.697840,-3064.381992
161.600958,-1480.411884,9104.533087,-995.924147
161.601268,1998.556043,9326.594869,-4366.744339
161.601578,-370.102971,7179.997637,-8656.879127
161.601888,-2960.823768,7994.224174,153.219100
161.602197,2960.823768,9622.677246,-2834.553343
161.602507,3997.112087,444.123565,-10342.289223
161.602817,-3701.029710,7846.182985,3447.429741
161.603126,-4811.338623,9104.533087,15628.348159
161.603436,5625.565159,8216.285956,-3983.696590
161.603746,8512.368333,10955.047942,-12027.699319
161.604055,-5107.421000,6439.791695,5822.325785
161.604365,-5107.421000,10362.883188,4443.353888
161.604675,444.123565,11695.253884,-7354.516781
161.604985,814.226536,10584.944971,-13253.452115
161.605294,-1258.350101,16654.633695,-11031.775171
161.605604,-2738.761985,10955.047942,-1378.971896
161.605914,-7031.956449,14063.912898,2528.115143
161.606223,3701.029710,12139.377449,-2068.457845
161.606533,5921.647536,4367.215058,-5439.278036
161.606843,-740.205942,3552.988522,2987.772442
161.607153,-2220.617826,3478.967927,10265.679673
161.607462,6365.771101,6661.853478,2451.505594
161.607772,2220.617826,5403.503377,-2834.553343
161.608082,-6069.688724,5625.565159,1149.143247
161.608391,3478.967927,7254.018232,842.705048
161.608701,740.205942,9622.677246,-7584.345430
161.609011,-4441.235652,11991.336260,-4673.182538
161.609320,-444.123565,14508.036463,3983.696590
161.609630,1702.473667,7179.997637,689.485948
161.609940,518.144159,14730.098246,-3600.648841
161.610250,-5551.544565,13101.645173,0.000000
161.610559,-5625.565159,5921.647536,2911.162892
161.610869,3997.112087,11325.150913,-3677.258390
161.611179,2146.597232,12361.439231,-4749.792088
161.611488,1406.391290,12879.583391,-536.266849
161.611798,-8438.347739,8586.388927,2451.505594
161.612108,-4219.173869,6217.729913,4443.353888
161.612418,8438.347739,5551.544565,-3600.648841
161.612727,2664.741391,8068.244768,-12027.699319
161.613037,148.041188,2072.576638,1608.800546
161.613347,-1110.308913,5477.523971,14402.595362
161.613656,1850.514855,4441.235652,7277.907231
161.613966,-1776.494261,7846.182985,-3753.867940
161.614276,7105.977043,11325.150913,229.828649
161.614585,-3256.906145,7254.018232,-4213.525239
161.614895,5403.503377,12731.542202,-5286.058936
161.615205,2146.597232,18727.210333,3677.258390
161.615515,-2812.782580,12065.356855,3830.477490
161.615824,-3404.947333,15100.201217,-3064.381992
161.616134,-2368.659014,14137.933492,-6511.811733
161.616444,3182.885551,13323.706956,-11644.651570
161.616753,-370.102971,12953.603985,-6281.983084
161.617063,-1628.453072,10955.047942,2298.286494
161.617373,8586.388927,7994.224174,3370.820191
161.617683,-2220.617826,-370.102971,306.438199
161.617992,-3256.906145,962.267725,7277.907231
161.618302,2072.576638,5995.668130,5898.935335
161.618612,6365.771101,1258.350101,-6894.859482
161.618921,3627.009116,12879.583391,-4979.620737
161.619231,1480.411884,14211.954086,7507.735880
161.619540,-888.247130,2294.638420,5209.449386
161.619850,296.082377,11547.212695,-1532.190996
161.620160,-4589.276840,12657.521608,766.095498
161.620469,148.041188,10066.800811,-1378.971896
161.620779,2368.659014,20799.786970,-15628.348159
161.621089,-1036.288319,11325.150913,-12334.137518
161.621398,1406.391290,13767.830521,-2528.115143
161.621708,-4737.318029,9178.553681,-383.047749
161.622017,-2442.679609,7105.977043,3983.696590
161.622327,2368.659014,9622.677246,7354.516781
161.622637,296.082377,8142.265362,-1455.581446
161.622946,7031.956449,7328.038826,-6665.030833
161.623256,444.123565,4663.297435,536.266849
161.623566,-3478.967927,2368.659014,3064.381992
161.623875,-0.000000,6291.750507,612.876398
161.624185,3849.070898,6291.750507,-2298.286494
161.624494,-5107.421000,10140.821405,-5822.325785
161.624804,4293.194464,11473.192101,-3294.210641
161.625114,2886.803174,7624.121203,1608.800546
161.625423,-3330.926739,13989.892304,2451.505594
161.625733,-1850.514855,16432.571912,2757.943793
161.626042,-1850.514855,11547.212695,-1302.362347
161.626352,2368.659014,16876.695478,-12257.527968
161.626662,740.205942,11695.253884,-12563.966167
161.626971,-222.061783,12065.356855,1225.752797
161.627281,-888.247130,15100.201217,3524.039291
161.627591,-74.020594,5107.421000,2834.553343
161.627900,-1554.432478,5847.626942,5209.449386
161.628210,-3701.029710,1702.473667,612.876398
161.628519,814.226536,-0.000000,-5056.230287
161.628829,7846.182985,8364.327145,-5362.668486
161.629139,1110.308913,7179.997637,919.314598
161.629448,518.144159,6809.894666,8656.879127
161.629758,-4811.338623,8068.244768,8273.831378
161.630067,-3923.091493,9474.636058,3294.210641
161.630377,-1258.350101,12435.459826,-2068.457845
161.630687,3404.947333,18505.148550,-7737.564530
161.630996,1406.391290,16654.633695,-13023.623466
161.631306,5551.544565,14211.954086,-9346.365076
161.631616,-7254.018232,10214.842000,3907.087040
161.631925,-4737.318029,11399.171507,7124.688131
161.632235,3478.967927,8734.430116,3524.039291
161.632544,3552.988522,3997.112087,-2298.286494
161.632854,1036.288319,6513.812290,3294.210641
161.633164,-740.205942,296.082377,7584.345430
161.633473,-74.020594,2072.576638,1532.190996
161.633783,-0.000000,9474.636058,-3140.991542
161.634093,-740.205942,6513.812290,-3447.429741
161.634402,1850.514855,8734.430116,-4443.353888
161.634712,-0.000000,12879.583391,-3753.867940
161.635021,-0.000000,14952.160028,-4673.182538
161.635331,3701.029710,14730.098246,0.000000
161.635641,1850.514855,8290.306550,76.609550
161.635950,-6513.812290,8808.450710,4213.525239
161.636260,-296.082377,10066.800811,5362.668486
161.636569,1554.432478,5625.565159,-3294.210641
161.636879,5255.462188,12509.480420,-11951.089769
161.637189,1850.514855,13989.892304,-7737.564530
161.637498,888.247130,7550.100608,-1838.629195
161.637808,-3552.988522,10510.924376,4290.134789
161.638118,-3849.070898,9622.677246,7277.907231
161.638427,3182.885551,4293.194464,229.828649
161.638737,2516.700203,5107.421000,-3447.429741
161.639046,-2368.659014,9696.697840,-612.876398
161.639356,6809.894666,6439.791695,-4903.011187
161.639666,592.164754,8808.450710,-3907.087040
161.639975,-5921.647536,12361.439231,4443.353888
161.640285,-1110.308913,10807.006753,6588.421283
161.640594,592.164754,12879.583391,-5362.668486
161.640904,4367.215058,14582.057057,-10495.508323
161.641214,3256.906145,12805.562797,-5975.544884
161.641523,-2516.700203,5403.503377,306.438199
161.641833,2220.617826,11177.109724,0.000000
161.642143,-888.247130,6513.812290,4826.401637
161.642452,-2812.782580,6735.874072,4903.011187
161.642762,-1554.432478,10510.924376,-2911.162892
161.643071,4219.173869,4441.235652,-7431.126331
161.643381,5477.523971,10140.821405,-6205.373534
161.643691,-2812.782580,6365.771101,-1225.752797
161.644000,-5551.544565,9104.533087,5209.449386
161.644310,1850.514855,10214.842000,3140.991542
161.644620,1702.473667,2294.638420,-3753.867940
161.644929,1628.453072,11917.315666,459.657299
161.645239,-4515.256246,12583.501014,7737.564530
161.645548,-3552.988522,7402.059420,-612.876398
161.645858,1184.329507,13397.727550,-8503.660028
161.646168,-2072.576638,11177.109724,-9116.536426
161.646477,-3478.967927,11695.253884,-5592.497135
161.646787,-4441.235652,12435.459826,-3064.381992
161.647096,3775.050304,8660.409521,-1915.238745
161.647406,5921.647536,7624.121203,0.000000
161.647716,-3108.864956,5181.441594,9193.145976
161.648025,-9326.594869,5033.400406,16317.834107
161.648335,4737.318029,5255.462188,3064.381992
161.648645,4367.215058,5477.523971,-11031.775171
161.648954,-2516.700203,11991.336260,-7507.735880
161.649264,-962.267725,13841.851115,-2374.896044
161.649573,-2590.720797,7328.038826,-7431.126331
161.649883,-3108.864956,11843.295072,-4213.525239
161.650193,-444.123565,13175.665768,2757.943793
161.650502,-0.000000,9548.656652,-2757.943793
161.650812,4885.359217,9030.512492,-1378.971896
161.651122,370.102971,7476.080014,8350.440928
161.651431,-1776.494261,9252.574275,1838.629195
161.651741,518.144159,9104.533087,-4290.134789
161.652050,-962.267725,9918.759623,-4749.792088
161.652360,6069.688724,9992.780217,-5515.887586
161.652670,444.123565,10436.903782,-8733.488677
161.652979,-2590.720797,7105.977043,2374.896044
161.653289,2516.700203,10807.006753,5362.668486
161.653598,74.020594,592.164754,4136.915689
161.653908,-1776.494261,7994.224174,5286.058936
161.654218,-2368.659014,7254.018232,7890.783629
161.654527,222.061783,7772.162391,-3907.087040
161.654837,2738.761985,15248.242405,-8580.269578
161.655147,1258.350101,15618.345376,-5592.497135
161.655456,-4441.235652,14952.160028,-5132.839837
161.655766,-4071.132681,15026.180623,-6052.154434
161.656075,222.061783,9326.594869,-1838.629195
161.656385,5921.647536,11917.315666,-2834.553343
161.656695,-740.205942,6069.688724,0.000000
161.657004,-5107.421000,5625.565159,11184.994271
161.657314,6365.771101,6957.935855,3370.820191
161.657623,5625.565159,814.226536,-8810.098227
161.657933,-3701.029710,5699.585753,2757.943793
161.658243,-3627.009116,8660.409521,8427.050478
161.658552,-666.185348,5773.606348,-4749.792088
161.658862,5107.421000,13989.892304,-11568.042020
161.659172,296.082377,8364.327145,-306.438199
161.659481,-6217.729913,10214.842000,1378.971896
161.659791,-0.000000,17764.942608,-3753.867940
161.660100,3849.070898,11843.295072,-3370.820191
161.660410,-2368.659014,11769.274478,-612.876398
161.660720,-4219.173869,16432.571912,-459.657299
161.661029,1332.370696,11251.130318,-6741.640382
161.661339,2960.823768,9252.574275,-7124.688131
161.661649,-5551.544565,8586.388927,-919.314598
161.661958,-4959.379811,5551.544565,4903.011187
161.662268,4959.379811,6291.750507,-306.438199
161.662577,5477.523971,888.247130,-9116.536426
161.662887,-2368.659014,7031.956449,5515.887586
161.663197,592.164754,5551.544565,12410.747068
161.663506,-3997.112087,3997.112087,-689.485948
161.663816,2294.638420,14137.933492,-3140.991542
161.664125,-2220.617826,9992.780217,-3600.648841
161.664435,-1036.288319,11029.068536,-13636.499864
161.664745,2442.679609,13027.624579,-8273.831378
161.665054,-3108.864956,13693.809927,5209.449386
161.665364,-222.061783,13175.665768,5898.935335
161.665674,-6661.853478,13101.645173,6052.154434
161.665983,-4663.297435,10584.944971,2528.115143
161.666293,4293.194464,11843.295072,-11568.042020
161.666602,9400.615463,9474.636058,-15015.471761
161.666912,-6957.935855,9474.636058,-3753.867940
161.667222,2072.576638,9400.615463,7277.907231
161.667531,666.185348,1554.432478,1685.410096
161.667841,-1924.535449,3034.844362,5362.668486
161.668151,-3330.926739,1258.350101,14709.033562
161.668460,-444.123565,3552.988522,-2757.943793
161.668770,10732.986159,10807.006753,-13942.938064
161.669079,-74.020594,9844.739029,0.000000
161.669389,-6957.935855,15100.201217,4903.011187
161.669699,-7328.038826,16654.633695,-1378.971896
161.670008,3256.906145,16654.633695,-11338.213370
161.670318,962.267725,17764.942608,-14325.985813
161.670627,-1184.329507,11991.336260,-6205.373534
161.670937,-4589.276840,10288.862594,2757.943793
161.671247,1554.432478,7328.038826,995.924147
161.671556,2960.823768,-1110.308913,-229.828649
161.671866,-7105.977043,4219.173869,7737.564530
161.672176,1850.514855,6069.688724,1762.019645
161.672485,5995.668130,7179.997637,-13023.623466
161.672795,5255.462188,5773.606348,-6894.859482
161.673104,-2442.679609,5403.503377,11491.432470
161.673414,-2368.659014,8882.471304,9882.631924
161.673724,-3478.967927,6661.853478,0.000000
161.674033,1036.288319,11547.212695,-7354.516781
161.674343,1628.453072,10955.047942,-10955.165621
161.674652,-2146.597232,10362.883188,-9193.145976
161.674962,-3034.844362,18875.251521,-5362.668486
161.675272,6883.915261,21465.972318,-4366.744339
161.675581,888.247130,11695.253884,-1685.410096
161.675891,-8364.327145,11769.274478,11491.432470
161.676201,-0.000000,8586.388927,9806.022374
161.676510,7772.162391,1924.535449,-10801.946522
161.676820,2146.597232,4515.256246,-10495.508323
161.677129,-3034.844362,5181.441594,5975.544884
161.677439,2664.741391,7772.162391,0.000000
161.677749,370.102971,6587.832884,-5822.325785
161.678058,-4219.173869,11251.130318,4060.306139
161.678368,2516.700203,9030.512492,919.314598
161.678678,2516.700203,4441.235652,-9193.145976
161.678987,-370.102971,9770.718434,-1072.533697
161.679297,518.144159,10955.047942,7354.516781
161.679606,888.247130,7920.203579,-459.657299
161.679916,-1702.473667,13545.768739,2298.286494
161.680226,-2072.576638,14656.077652,4903.011187
161.680535,-666.185348,13767.830521,-7660.954980
161.680845,2368.659014,16358.551318,-13023.623466
161.681154,-5699.585753,14359.995275,-3600.648841
161.681464,-814.226536,11547.212695,-1762.019645
161.681774,-0.000000,7624.121203,-5286.058936
161.682083,-4737.318029,4737.318029,2681.334243
161.682393,-666.185348,6587.832884,3753.867940
161.682703,4737.318029,2220.617826,-6052.154434
161.683012,3627.009116,3182.885551,-3064.381992
161.683322,3478.967927,5033.400406,10801.946522
161.683631,-1406.391290,3923.091493,8886.707777
161.683941,-0.000000,10881.027347,1608.800546
161.684251,1332.370696,6439.791695,-3140.991542
161.684560,-5403.503377,7772.162391,-4979.620737
161.684870,1332.370696,12953.603985,-7967.393179
161.685179,6365.771101,14211.954086,-9193.145976
161.685489,-9252.574275,18505.148550,-3064.381992
161.685799,-8438.347739,19689.478057,4136.915689
161.686108,-666.185348,13619.789333,-5515.887586
161.686418,5181.441594,11769.274478,-15398.519510
161.686728,-2368.659014,9622.677246,-2145.067394
161.687037,-1406.391290,7031.956449,5592.497135
161.687347,7624.121203,5477.523971,612.876398
161.687656,1480.411884,-962.267725,6588.421283
161.687966,-8882.471304,1850.514855,19458.825649
161.688276,3330.926739,2294.638420,3064.381992
161.688585,5699.585753,2516.700203,-12410.747068
161.688895,-3404.947333,8364.327145,-4519.963438
161.689205,-4737.318029,14211.954086,612.876398
161.689514,666.185348,12435.459826,-9959.241474
161.689824,-1332.370696,15766.386565,-8044.002729
161.690133,-3108.864956,13545.768739,2528.115143
161.690443,-1258.350101,11769.274478,-2451.505594
161.690753,-296.082377,15766.386565,-1915.238745
161.691062,-1998.556043,12657.521608,1302.362347
161.691372,7920.203579,14359.995275,-5592.497135
161.691681,888.247130,8512.368333,-6894.859482
161.691991,-7328.038826,10288.862594,7048.078582
161.692301,1036.288319,10214.842000,6128.763984
161.692610,2738.761985,1480.411884,-13176.842566
161.692920,-814.226536,5773.606348,-6665.030833
161.693230,-222.061783,740.205942,6128.763984
161.693539,1406.391290,1258.350101,-1532.190996
161.693849,1406.391290,3404.947333,-306.438199
161.694158,-0.000000,6661.853478,10495.508323
161.694468,-5699.585753,10140.821405,4519.963438
161.694778,-3478.967927,16580.613101,-7354.516781
161.695087,4737.318029,16062.468941,-14402.595362
161.695397,4959.379811,16284.530724,-16317.834107
161.695707,-2368.659014,20133.601622,-4903.011187
161.696016,-7105.977043,16358.551318,8503.660028
161.696326,6291.750507,13545.768739,-4596.572988
161.696635,2960.823768,-592.164754,-8503.660028
161.696945,-8734.430116,4293.194464,11951.089769
161.697255,-1258.350101,3997.112087,8273.831378
161.697564,7994.224174,518.144159,-13330.061665
161.697874,3701.029710,7031.956449,-4903.011187
161.698183,-3849.070898,4219.173869,7737.564530
161.698493,-4663.297435,7031.956449,2068.457845
161.698803,4441.235652,6069.688724,-5515.887586
161.699112,370.102971,9252.574275,-4060.306139
161.699422,888.247130,13101.645173,-306.438199
161.699732,-5107.421000,11695.253884,1838.629195
161.700041,-3627.009116,15026.180623,-995.924147
161.700351,5033.400406,15988.448347,-10801.946522
161.700660,6957.935855,12435.459826,-12180.918418
161.700970,-10658.965565,15174.221811,3370.820191
161.701280,-518.144159,13027.624579,4366.744339
161.701589,2886.803174,5107.421000,-8733.488677
161.701899,222.061783,8068.244768,-5056.230287
161.702208,-740.205942,6217.729913,6894.859482
161.702518,4367.215058,-1110.308913,-2681.334243
161.702828,3182.885551,370.102971,-3600.648841
161.703137,-1036.288319,7476.080014,8580.269578
161.703447,-1776.494261,9992.780217,7584.345430
161.703757,-592.164754,8068.244768,-3753.867940
161.704066,296.082377,13619.789333,-5898.935335
161.704376,962.267725,10881.027347,-6052.154434
161.704685,-2368.659014,14434.015869,-5745.716235
161.704995,-3552.988522,17764.942608,-229.828649
161.705305,1332.370696,19541.436869,-3294.210641
161.705614,4071.132681,12435.459826,-7277.907231
161.705924,-6661.853478,13397.727550,-995.924147
161.706234,-0.000000,10807.006753,766.095498
161.706543,1184.329507,3182.885551,-3524.039291
161.706853,-740.205942,6957.935855,-1838.629195
161.707162,370.102971,3404.947333,3064.381992
161.707472,5921.647536,3034.844362,-229.828649
161.707782,-148.041188,2146.597232,2604.724693
161.708091,740.205942,4589.276840,8580.269578
161.708401,-1258.350101,7846.182985,7354.516781
161.708710,-740.205942,8586.388927,-1225.752797
161.709020,222.061783,11399.171507,-8656.879127
161.709330,2072.576638,12213.398043,-7431.126331
161.709639,296.082377,13471.748144,-5898.935335
161.709949,-6365.771101,19837.519246,-2451.505594
161.710259,-888.247130,19837.519246,-4366.744339
161.710568,-1332.370696,10807.006753,-6741.640382
161.710878,3330.926739,8364.327145,-1072.533697
161.711187,4367.215058,7179.997637,459.657299
161.711497,3182.885551,6513.812290,1532.190996
161.711807,-2738.761985,518.144159,9806.022374
161.712116,666.185348,3404.947333,10112.460574
161.712426,1924.535449,2738.761985,-2145.067394
161.712735,370.102971,6217.729913,-4443.353888
161.713045,888.247130,7846.182985,-5439.278036
161.713355,-74.020594,9622.677246,-7048.078582
161.713664,-962.267725,10140.821405,-3447.429741
161.713974,-7476.080014,13619.789333,2298.286494
161.714284,3256.906145,15322.262999,-766.095498
161.714593,1850.514855,9178.553681,-4366.744339
161.714903,-222.061783,14508.036463,-1455.581446
161.715212,-222.061783,11399.171507,995.924147
161.715522,296.082377,9622.677246,-1991.848295
161.715832,444.123565,10955.047942,-1455.581446
161.716141,4145.153275,8956.491898,-1455.581446
161.716451,-2516.700203,6291.750507,1532.190996
161.716761,-4959.379811,5329.482782,4596.572988
161.717070,-370.102971,9548.656652,689.485948
161.717380,9326.594869,6587.832884,-9959.241474
161.717689,4811.338623,6217.729913,-8580.269578
161.717999,-5181.441594,6291.750507,2987.772442
161.718309,962.267725,6291.750507,6971.469032
161.718618,1406.391290,9030.512492,-766.095498
161.718928,2368.659014,12287.418637,1532.190996
161.719237,-1332.370696,10066.800811,6588.421283
161.719547,-1702.473667,9696.697840,-2987.772442
161.719857,-148.041188,11695.253884,-7814.174080
161.720166,2664.741391,12509.480420,-4979.620737
161.720476,-3997.112087,16654.633695,-4826.401637
161.720786,-1110.308913,15914.427753,-3830.477490
161.721098,-444.123565,7698.141797,-4060.306139
161.721408,1480.411884,5995.668130,-6818.249932
161.721717,-1036.288319,4663.297435,1378.971896
161.722027,-5477.523971,3256.906145,8733.488677
161.722336,8142.265362,7105.977043,-1532.190996
161.722646,7402.059420,3108.864956,-9269.755526
161.722955,-592.164754,5329.482782,2604.724693
161.723265,-962.267725,9326.594869,8350.440928
161.723574,3849.070898,4737.318029,-842.705048
161.723884,740.205942,14211.954086,-536.266849
161.724193,-1628.453072,9918.759623,4366.744339
161.724502,-4515.256246,11547.212695,-2681.334243
161.724812,-592.164754,13175.665768,-8197.221829
161.725121,-296.082377,17468.860231,-9039.926876
161.725431,-4367.215058,16432.571912,-8580.269578
161.725740,-2294.638420,14952.160028,-2298.286494
161.726050,222.061783,13767.830521,-306.438199
161.726359,6587.832884,13175.665768,-5286.058936
161.726669,1998.556043,3182.885551,2528.115143
161.726978,-2442.679609,3256.906145,12717.185267
161.727288,4737.318029,2220.617826,7354.516781
161.727597,3108.864956,-814.226536,-306.438199
161.727906,-2294.638420,2294.638420,3677.258390
161.728216,518.144159,7402.059420,1685.410096
161.728525,296.082377,9844.739029,-9499.584175
161.728835,-0.000000,13323.706956,-6818.249932
161.729144,-3923.091493,16728.654289,-995.924147
161.729454,-222.061783,12361.439231,-4519.963438
161.729763,1332.370696,14804.118840,-3830.477490
161.730073,-1924.535449,14804.118840,0.000000
161.730382,-2960.823768,15100.201217,1302.362347
161.730692,4811.338623,9104.533087,-3217.601092
161.731001,-222.061783,11473.192101,-4290.134789
161.731310,6661.853478,9252.574275,-4443.353888
161.731620,-1332.370696,1110.308913,2681.334243
161.731929,-8068.244768,11251.130318,9039.926876
161.732239,3330.926739,3923.091493,153.219100
161.732548,6661.853478,592.164754,-9806.022374
161.732858,-148.041188,4293.194464,-2604.724693
161.733167,-2368.659014,5329.482782,5286.058936
161.733477,1406.391290,9326.594869,-2451.505594
161.733786,3923.091493,7031.956449,-2604.724693
161.734096,-1110.308913,14952.160028,4443.353888
161.734405,-3256.906145,13545.768739,3600.648841
161.734714,4959.379811,15840.407159,-7201.297681
161.735024,-1110.308913,15396.283594,-2757.943793
161.735333,3182.885551,16802.674883,-5515.887586
161.735643,444.123565,10881.027347,-6665.030833
161.735952,-5847.626942,15174.221811,1838.629195
161.736262,3627.009116,11547.212695,1991.848295
161.736571,3849.070898,3627.009116,-6205.373534
161.736881,-2072.576638,5477.523971,3447.429741
161.737190,-740.205942,4367.215058,11184.994271
161.737500,1702.473667,148.041188,-2757.943793
161.737809,814.226536,3849.070898,-4443.353888
161.738118,1850.514855,8512.368333,2987.772442
161.738428,-1110.308913,10436.903782,-2451.505594
161.738737,-888.247130,12287.418637,-5898.935335
161.739047,1036.288319,13397.727550,-1225.752797
161.739356,3034.844362,15692.365970,-6741.640382
161.739666,1184.329507,15322.262999,-4903.011187
161.739975,-6735.874072,14285.974681,4136.915689
161.740285,518.144159,12657.521608,-612.876398
161.740594,5699.585753,8808.450710,-11338.213370
161.740904,-1110.308913,9696.697840,-1225.752797
161.741213,-222.061783,7698.141797,2451.505594
161.741522,1998.556043,7105.977043,-6128.763984
161.741832,666.185348,3923.091493,919.314598
161.742141,-1998.556043,3923.091493,9882.631924
161.742451,-74.020594,7105.977043,4519.963438
161.742760,3182.885551,5181.441594,-6894.859482
161.743070,-1480.411884,6735.874072,-2987.772442
161.743379,666.185348,10881.027347,-4290.134789
161.743689,2738.761985,10584.944971,-13100.233016
161.743998,-2886.803174,17024.736666,612.876398
161.744308,74.020594,18505.148550,4749.792088
161.744617,2886.803174,10955.047942,-3907.087040
161.744927,2738.761985,10436.903782,2604.724693
161.745236,-1110.308913,7254.018232,6435.202183
161.745545,-3182.885551,9918.759623,-2374.896044
161.745855,-5699.585753,9252.574275,-306.438199
161.746164,1406.391290,13693.809927,-4979.620737
161.746474,6883.915261,13693.809927,-17466.977354
161.746783,2664.741391,9696.697840,-9959.241474
161.747093,-4367.215058,8216.285956,8963.317327
161.747402,-1554.432478,4589.276840,8427.050478
161.747712,10066.800811,2220.617826,4826.401637
161.748021,-2590.720797,4367.215058,10035.851024
161.748331,-592.164754,3923.091493,9116.536426
161.748640,1998.556043,7402.059420,-4826.401637
161.748949,1406.391290,16210.510130,-11874.480219
161.749259,4811.338623,17987.004391,-13483.280765
161.749568,-3256.906145,15988.448347,-9269.755526
161.749878,-8290.306550,16580.613101,1302.362347
161.750187,888.247130,16358.551318,1608.800546
161.750497,5107.421000,11177.109724,-8810.098227
161.750806,-222.061783,3256.906145,-612.876398
161.751116,-1850.514855,1184.329507,12334.137518
161.751425,-0.000000,2220.617826,3217.601092
161.751735,2738.761985,6365.771101,-2528.115143
161.752044,-3404.947333,12879.583391,2757.943793
161.752353,3701.029710,12435.459826,-4979.620737
161.752663,6291.750507,5921.647536,-14325.985813
161.752972,-4515.256246,11843.295072,-1991.848295
161.753282,-1332.370696,6809.894666,6052.154434
161.753591,4959.379811,-74.020594,612.876398
161.753901,-2442.679609,10066.800811,3907.087040
161.754210,1332.370696,7550.100608,6894.859482
161.754520,-740.205942,9622.677246,-1915.238745
161.754829,-222.061783,14878.139434,-3370.820191
161.755139,-0.000000,16358.551318,-2757.943793
161.755448,-1702.473667,16728.654289,-9269.755526
161.755757,-2590.720797,13323.706956,-9422.974625
161.756067,-1258.350101,9548.656652,-3447.429741
161.756376,3849.070898,8438.347739,-7048.078582
161.756686,1332.370696,3849.070898,-1532.190996
161.756995,-4663.297435,3849.070898,13483.280765
161.757305,5699.585753,3923.091493,7660.954980
161.757614,4293.194464,814.226536,-4060.306139
161.757924,-1184.329507,7550.100608,4903.011187
161.758233,1776.494261,10584.944971,229.828649
161.758543,-1628.453072,7402.059420,-12334.137518
161.758852,-740.205942,12287.418637,-3907.087040
161.759161,-3034.844362,12509.480420,-2374.896044
161.759471,1258.350101,13397.727550,-10035.851024
161.759780,3552.988522,16654.633695,-1991.848295
161.760090,-6291.750507,11843.295072,7967.393179
161.760399,1776.494261,13767.830521,1225.752797
161.760709,-0.000000,7179.997637,-2145.067394
161.761018,-1776.494261,10658.965565,-2528.115143
161.761328,5107.421000,6513.812290,-6128.763984
161.761637,888.247130,1702.473667,-8580.269578
161.761947,-9178.553681,9104.533087,7431.126331
161.762256,1480.411884,9696.697840,6741.640382
161.762565,5699.585753,1924.535449,-11338.213370
161.762875,2960.823768,5329.482782,3294.210641
161.763184,-1406.391290,5181.441594,16317.834107
161.763494,-4885.359217,6661.853478,4060.306139
161.763803,-1850.514855,11473.192101,-1378.971896
161.764113,-1258.350101,11917.315666,-3370.820191
161.764422,5255.462188,16062.468941,-18539.511052
161.764732,1258.350101,11695.253884,-16930.710506
161.765041,-6883.915261,12805.562797,2911.162892
161.765351,-2146.597232,15174.221811,5056.230287
161.765660,3182.885551,10955.047942,4136.915689
161.765969,1480.411884,9030.512492,12180.918418
161.766279,444.123565,4885.359217,6971.469032
161.766588,1628.453072,-0.000000,-3753.867940
161.766898,-5995.668130,4071.132681,153.219100
161.767207,1850.514855,11103.089130,-4903.011187
161.767517,666.185348,9918.759623,-15475.129060
161.767826,-2664.741391,11547.212695,-4826.401637
161.768136,-4515.256246,13915.871710,7584.345430
161.768445,5699.585753,6439.791695,-5209.449386
161.768755,3034.844362,740.205942,459.657299
161.769064,-4589.276840,4367.215058,17083.929605
161.769374,-3108.864956,8068.244768,11184.994271
161.769683,2960.823768,12583.501014,-6665.030833
161.769992,-2738.761985,21243.910535,-8963.317327
161.770302,1924.535449,16580.613101,-7048.078582
161.770611,-0.000000,14656.077652,-14172.766713
161.770921,-2442.679609,18061.024985,-10648.727422
161.771230,222.061783,9474.636058,383.047749
161.771540,-2368.659014,2738.761985,6128.763984
161.771849,-2886.803174,2368.659014,11338.213370
161.772159,1850.514855,5699.585753,7277.907231
161.772468,4959.379811,4441.235652,-9116.536426
161.772778,6587.832884,3404.947333,-1302.362347
161.773087,148.041188,9326.594869,5898.935335
161.773396,-3478.967927,13175.665768,612.876398
161.773706,-814.226536,13841.851115,1991.848295
161.774015,-962.267725,12287.418637,-1608.800546
161.774325,-5773.606348,11621.233289,-8350.440928
161.774634,3627.009116,12361.439231,-11874.480219
161.774944,-1332.370696,11399.171507,-13636.499864
161.775253,-592.164754,13693.809927,-6281.983084
161.775563,2664.741391,13397.727550,2451.505594
161.775872,-814.226536,12065.356855,8197.221829
161.776182,2442.679609,7105.977043,6435.202183
161.776491,-2664.741391,2368.659014,1225.752797
161.776800,-4959.379811,-2294.638420,3753.867940
161.777110,3997.112087,3627.009116,-3753.867940
161.777419,1332.370696,7994.224174,-15551.738609
161.777729,-1184.329507,10807.006753,-6588.421283
161.778038,-1480.411884,14285.974681,4213.525239
161.778348,-2294.638420,13841.851115,2911.162892
161.778657,2516.700203,12139.377449,842.705048
161.778967,-3923.091493,7994.224174,-2451.505594
161.779276,-4663.297435,1850.514855,-4519.963438
161.779586,5181.441594,8586.388927,-5975.544884
161.779895,-4737.318029,9474.636058,-4519.963438
161.780204,3849.070898,12805.562797,-1762.019645
161.780514,-1998.556043,14211.954086,-2451.505594
161.780823,1554.432478,11843.295072,306.438199
161.781133,1776.494261,8660.409521,842.705048
161.781442,666.185348,2738.761985,-4826.401637
161.781752,-7402.059420,8068.244768,2221.676944
161.782061,2072.576638,12361.439231,3294.210641
161.782371,222.061783,9918.759623,-11338.213370
161.782680,6661.853478,10066.800811,-7967.393179
161.782990,-3923.091493,7994.224174,-459.657299
161.783299,296.082377,7476.080014,-689.485948
161.783608,4515.256246,4515.256246,4290.134789
161.783918,-5477.523971,6809.894666,10265.679673
161.784227,3404.947333,11547.212695,5975.544884
161.784537,2664.741391,13323.706956,-6281.983084
161.784846,-2442.679609,15618.345376,-5056.230287
161.785156,-444.123565,16802.674883,-4366.744339
161.785465,2886.803174,12287.418637,-18386.291952
161.785775,-3775.050304,10362.883188,-8120.612279
161.786084,-4367.215058,12583.501014,8733.488677
161.786394,2072.576638,8586.388927,-3753.867940
161.786703,6291.750507,8364.327145,-6205.373534
161.787012,-2442.679609,5329.482782,6435.202183
161.787322,5255.462188,-1258.350101,5592.497135
161.787631,6587.832884,518.144159,-689.485948
161.787941,-5921.647536,10658.965565,6588.421283
161.788250,2220.617826,11325.150913,5362.668486
161.788560,1776.494261,9844.739029,-9652.803275
161.788869,-0.000000,8882.471304,-7201.297681
161.789179,-3256.906145,16580.613101,-2528.115143
161.789488,-370.102971,14730.098246,-7431.126331
161.789798,-148.041188,10510.924376,-1149.143247
161.790107,-888.247130,14508.036463,6052.154434
161.790416,-962.267725,11769.274478,-2911.162892
161.790726,-0.000000,8734.430116,-4519.963438
161.791035,296.082377,13027.624579,2145.067394
161.791345,5329.482782,6365.771101,-11338.213370
161.791654,1184.329507,7105.977043,-6205.373534
161.791964,-8660.409521,12361.439231,13713.109414
161.792273,-148.041188,6883.915261,4596.572988
161.792583,8586.388927,6661.853478,-12257.527968
161.792892,-2220.617826,2368.659014,-4366.744339
161.793202,-4737.318029,-2368.659014,6205.373534
161.793511,1628.453072,2294.638420,3370.820191
161.793821,-3775.050304,8512.368333,-4136.915689
161.794130,2738.761985,18505.148550,4903.011187
161.794439,2146.597232,19615.457463,-4290.134789
161.794749,1628.453072,7994.224174,-11568.042020
161.795058,-3034.844362,12805.562797,-2145.067394
161.795368,-2368.659014,10288.862594,1302.362347
161.795677,1776.494261,11473.192101,-5209.449386
161.795987,-2220.617826,18949.272115,-2681.334243
161.796296,-3478.967927,11325.150913,-689.485948
161.796606,4663.297435,9696.697840,-4749.792088
161.796915,4293.194464,12435.459826,-8197.221829
161.797225,296.082377,2368.659014,-4903.011187
161.797534,-1480.411884,2664.741391,5822.325785
161.797843,-4663.297435,444.123565,9882.631924
161.798153,4293.194464,6143.709319,-1225.752797
161.798462,3775.050304,7994.224174,-2374.896044
161.798772,962.267725,4441.235652,995.924147
161.799081,-222.061783,7105.977043,1762.019645
161.799391,-370.102971,14804.118840,-4903.011187
161.799700,-4367.215058,12509.480420,-4213.525239
161.800010,-4737.318029,18357.107362,1838.629195
161.800319,4145.153275,15322.262999,-6128.763984
161.800629,1258.350101,15470.304188,-12717.185267
161.800938,-4589.276840,16284.530724,0.000000
161.801247,1332.370696,5921.647536,-2681.334243
161.801557,3182.885551,6809.894666,-7660.954980
161.801866,-6735.874072,6735.874072,4443.353888
161.802176,-962.267725,7105.977043,9346.365076
161.802485,7179.997637,10658.965565,-5209.449386
161.802795,518.144159,6069.688724,-2911.162892
161.803104,-2368.659014,6809.894666,5898.935335
161.803414,1406.391290,-0.000000,-1608.800546
161.803723,4885.359217,1110.308913,-7048.078582
161.804033,-2368.659014,7328.038826,4366.744339
161.804342,-4145.153275,6439.791695,6971.469032
161.804651,1480.411884,19541.436869,-5592.497135
161.804961,-1924.535449,19911.539840,-11031.775171
161.805270,888.247130,16728.654289,-5898.935335
161.805580,592.164754,11251.130318,-7737.564530
161.805889,-4219.173869,11991.336260,-8810.098227
161.806199,-3330.926739,11251.130318,-766.095498
161.806508,2516.700203,12731.542202,1302.362347
161.806818,-0.000000,7476.080014,-1302.362347
161.807127,2812.782580,6883.915261,4826.401637
161.807437,2960.823768,3997.112087,2374.896044
161.807746,-2294.638420,-3701.029710,3830.477490
161.808055,3997.112087,6513.812290,7660.954980
161.808365,-4663.297435,-1110.308913,1762.019645
161.808674,888.247130,10955.047942,-7431.126331
161.808984,-2886.803174,13841.851115,-2298.286494
161.809293,-2368.659014,17320.819043,-2145.067394
161.809603,-0.000000,12583.501014,-7967.393179
161.809912,-3627.009116,15840.407159,-4596.572988
161.810222,3997.112087,16728.654289,-4673.182538
161.810531,148.041188,11843.295072,-1455.581446
161.810841,222.061783,12953.603985,7584.345430
161.811150,1554.432478,7920.203579,2145.067394
161.811459,3256.906145,8586.388927,-3830.477490
161.811769,-5181.441594,1998.556043,8503.660028
161.812078,-6809.894666,6809.894666,4519.963438
161.812388,4219.173869,5921.647536,-13330.061665
161.812697,4145.153275,5995.668130,-12027.699319
161.813007,-5033.400406,12139.377449,2451.505594
161.813316,-0.000000,5403.503377,3907.087040
161.813626,5107.421000,9326.594869,-3447.429741
161.813935,-5181.441594,9548.656652,7354.516781
161.814245,3404.947333,9992.780217,10955.165621
161.814554,1850.514855,5995.668130,-1302.362347
161.814863,-3997.112087,10955.047942,-2451.505594
161.815173,2738.761985,17764.942608,-4443.353888
161.815482,-962.267725,17024.736666,-13942.938064
161.815792,-6587.832884,13545.768739,-3600.648841
161.816101,-3997.112087,16062.468941,5822.325785
161.816411,3627.009116,18431.127956,-9576.193725
161.816720,-666.185348,3701.029710,-9116.536426
161.817030,-2146.597232,4885.359217,11414.822920
161.817339,962.267725,-3923.091493,4443.353888
161.817649,4811.338623,-1258.350101,-5132.839837
161.817958,-1110.308913,5625.565159,10725.336972
161.818268,-296.082377,2960.823768,9806.022374
161.818577,4737.318029,6513.812290,-4673.182538
161.818886,-2738.761985,13101.645173,-1302.362347
161.819196,-3997.112087,15766.386565,2298.286494
161.819505,2664.741391,16580.613101,-11031.775171
161.819815,-4145.153275,16728.654289,-6588.421283
161.820124,-592.164754,16136.489536,-995.924147
161.820434,1258.350101,15470.304188,-8273.831378
161.820743,-1332.370696,16284.530724,0.000000
161.821053,-3182.885551,11843.295072,8503.660028
161.821362,3701.029710,4441.235652,-2528.115143
161.821672,370.102971,2072.576638,-3064.381992
161.821981,-4885.359217,8068.244768,10648.727422
161.822290,3701.029710,2146.597232,842.705048
161.822600,5107.421000,4885.359217,-10189.070123
161.822909,-5847.626942,8808.450710,2681.334243
161.823219,-1332.370696,8142.265362,4060.306139
161.823528,-592.164754,10510.924376,-13483.280765
161.823838,-74.020594,10140.821405,-3064.381992
161.824148,-3108.864956,14508.036463,2911.162892
161.824457,-148.041188,11251.130318,-9576.193725
161.824767,1850.514855,6661.853478,-5515.887586
161.825076,1850.514855,12509.480420,4826.401637
161.825386,6661.853478,10066.800811,-1225.752797
161.825695,-296.082377,8660.409521,766.095498
161.826005,-5403.503377,13249.686362,11797.870669
161.826315,444.123565,4219.173869,-3524.039291
161.826624,2812.782580,8364.327145,-12563.966167
161.826934,-4515.256246,14211.954086,-3064.381992
161.827243,1554.432478,10955.047942,-5209.449386
161.827553,1628.453072,9178.553681,-12104.308868
161.827862,-2516.700203,11029.068536,4673.182538
161.828172,-4515.256246,11177.109724,7431.126331
161.828481,6143.709319,10436.903782,-3524.039291
161.828791,3849.070898,5255.462188,-766.095498
161.829101,2146.597232,7550.100608,7890.783629
161.829410,740.205942,7698.141797,1991.848295
161.829720,-1406.391290,8956.491898,76.609550
161.830029,1998.556043,9992.780217,3064.381992
161.830339,-1850.514855,10436.903782,-1915.238745
161.830648,-2886.803174,10955.047942,-7431.126331
161.830958,-4663.297435,15248.242405,-4366.744339
161.831268,3404.947333,11251.130318,-9652.803275
161.831577,-3775.050304,9178.553681,-9576.193725
161.831887,-3775.050304,13175.665768,1685.410096
161.832196,-2220.617826,8586.388927,2298.286494
161.832506,7550.100608,12805.562797,-2834.553343
161.832815,6365.771101,7402.059420,1915.238745
161.833125,666.185348,7254.018232,8197.221829
161.833435,2220.617826,5107.421000,5669.106685
161.833744,1702.473667,4515.256246,-612.876398
161.834054,-0.000000,4737.318029,4290.134789
161.834363,-1554.432478,7550.100608,4749.792088
161.834673,-3404.947333,11843.295072,-7124.688131
161.834982,-8438.347739,15840.407159,-9729.412825
161.835292,3627.009116,12805.562797,-12104.308868
161.835601,1702.473667,9030.512492,-12257.527968
161.835911,-2146.597232,14508.036463,-1762.019645
161.836221,-3849.070898,10436.903782,5669.106685
161.836530,2886.803174,8364.327145,7354.516781
161.836840,3775.050304,8142.265362,7048.078582
161.837149,4959.379811,8512.368333,3983.696590
161.837459,2738.761985,8512.368333,-4290.134789
161.837768,1776.494261,1406.391290,-7890.783629
161.838078,-1258.350101,11991.336260,995.924147
161.838388,-518.144159,11325.150913,-5975.544884
161.838697,-370.102971,12065.356855,-8350.440928
161.839007,-2738.761985,13323.706956,1072.533697
161.839316,2072.576638,8364.327145,-2528.115143
161.839626,2220.617826,4441.235652,-5439.278036
161.839935,-4589.276840,5773.606348,4979.620737
161.840245,-1850.514855,5181.441594,3370.820191
161.840554,2368.659014,11473.192101,-4979.620737
161.840864,370.102971,15026.180623,612.876398
161.841174,2294.638420,16728.654289,-766.095498
161.841483,4737.318029,13545.768739,-11568.042020
161.841793,-2738.761985,8216.285956,-383.047749
161.842102,-3997.112087,5773.606348,4826.401637
161.842412,1406.391290,7624.121203,-7660.954980
161.842721,4737.318029,8438.347739,-7890.783629
161.843031,-2220.617826,9918.759623,7201.297681
161.843341,-2368.659014,3627.009116,4903.011187
161.843650,1110.308913,6291.750507,-3830.477490
161.843960,-7105.977043,12731.542202,-1915.238745
161.844269,1406.391290,7846.182985,-7354.516781
161.844579,4367.215058,9474.636058,-9959.241474
161.844888,-0.000000,14211.954086,-3447.429741
161.845198,2738.761985,12953.603985,1072.533697
161.845507,296.082377,12583.501014,-536.266849
161.845817,2294.638420,10436.903782,5056.230287
161.846127,1036.288319,7920.203579,4749.792088
161.846436,222.061783,10436.903782,-2834.553343
161.846746,370.102971,2516.700203,-6818.249932
161.847055,222.061783,6661.853478,-229.828649
161.847365,-3478.967927,5181.441594,-306.438199
161.847674,-2072.576638,8882.471304,-1915.238745
161.847984,-1036.288319,15766.386565,-1455.581446
161.848294,1480.411884,8142.265362,-4060.306139
161.848603,2812.782580,4737.318029,-4826.401637
161.848913,-592.164754,11325.150913,-1915.238745
161.849222,2146.597232,6809.894666,536.266849
161.849532,1110.308913,11695.253884,4826.401637
161.849841,1628.453072,6217.729913,9499.584175
161.850151,962.267725,7402.059420,6205.373534
161.850460,-1406.391290,9104.533087,-383.047749
161.850770,-6809.894666,10066.800811,-5515.887586
161.851080,1480.411884,9252.574275,-8886.707777
161.851389,4959.379811,15396.283594,-15934.786358
161.851699,-1628.453072,16062.468941,-8350.440928
161.852008,-7179.997637,15766.386565,2911.162892
161.852318,1110.308913,13323.706956,4443.353888
161.852627,7920.203579,6587.832884,-4213.525239
161.852937,-2738.761985,4367.215058,3753.867940
161.853247,-1406.391290,2812.782580,8197.221829
161.853556,3034.844362,2072.576638,76.609550
161.853866,4737.318029,3997.112087,-536.266849
161.854175,4145.153275,11843.295072,4443.353888
161.854485,-6143.709319,13693.809927,2221.676944
161.854794,-4885.359217,13471.748144,1072.533697
161.855104,3923.091493,8956.491898,-5056.230287
161.855414,-962.267725,7994.224174,-14938.862211
161.855723,-5995.668130,14137.933492,-9039.926876
161.856033,-6661.853478,15692.365970,-1225.752797
161.856342,8142.265362,6439.791695,-3830.477490
161.856652,7846.182985,9696.697840,-1072.533697
161.856961,-5033.400406,15470.304188,12027.699319
161.857271,148.041188,6217.729913,11568.042020
161.857580,7698.141797,592.164754,-689.485948
161.857890,4737.318029,-0.000000,-689.485948
161.858200,-3552.988522,6513.812290,2834.553343
161.858509,-1998.556043,11399.171507,-4903.011187
161.858819,-2146.597232,9696.697840,-5592.497135
161.859128,2664.741391,16062.468941,-2681.334243
161.859438,-1406.391290,12953.603985,-8120.612279
161.859747,-2146.597232,5699.585753,-4060.306139
161.860057,-3997.112087,8660.409521,5132.839837
161.860367,1036.288319,5107.421000,995.924147
161.860676,-1554.432478,15174.221811,2298.286494
161.860986,-3256.906145,16802.674883,4749.792088
161.861295,7105.977043,11399.171507,-2451.505594
161.861605,1554.432478,8882.471304,-5439.278036
161.861914,-6957.935855,12287.418637,5209.449386
161.862224,-962.267725,11399.171507,-1685.410096
161.862533,7254.018232,9104.533087,-17160.539155
161.862843,-4367.215058,3330.926739,-689.485948
161.863153,-6661.853478,1924.535449,11414.822920
161.863462,296.082377,9696.697840,306.438199
161.863772,6217.729913,5403.503377,-6894.859482
161.864081,-888.247130,6217.729913,5286.058936
161.864391,-1850.514855,5995.668130,2681.334243
161.864700,1924.535449,8364.327145,-5132.839837
161.865010,-1184.329507,18357.107362,-1608.800546
161.865320,2368.659014,10362.883188,-3524.039291
161.865629,2960.823768,8660.409521,-7967.393179
161.865939,-5847.626942,16062.468941,4060.306139
161.866248,-740.205942,15396.283594,3447.429741
161.866558,3404.947333,9252.574275,-12640.575717
161.866867,6143.709319,8216.285956,-7354.516781
161.867177,-2442.679609,8290.306550,7890.783629
161.867486,-9104.533087,13989.892304,4290.134789
161.867796,-2442.679609,8068.244768,3907.087040
161.868106,9474.636058,8882.471304,-2528.115143
161.868415,6883.915261,5255.462188,-8427.050478
161.868725,-3775.050304,9030.512492,-2221.676944
161.869034,-4071.132681,8734.430116,6128.763984
161.869344,3997.112087,2146.597232,0.000000
161.869653,7179.997637,9992.780217,842.705048
161.869963,-2590.720797,12953.603985,6358.592633
161.870273,-6957.935855,10732.986159,5209.449386
161.870582,3330.926739,11177.109724,2221.676944
161.870892,-2812.782580,7402.059420,-7967.393179
161.871201,2886.803174,9548.656652,-13789.718964
161.871511,-5181.441594,16802.674883,-5669.106685
161.871820,-8660.409521,10510.924376,4213.525239
161.872130,3552.988522,12953.603985,-2834.553343
161.872440,5477.523971,13101.645173,-6588.421283
161.872749,1110.308913,7698.141797,2911.162892
161.873059,-1258.350101,-222.061783,10265.679673
161.873368,-814.226536,-2886.803174,8810.098227
161.873678,3701.029710,7031.956449,1378.971896
161.873987,-296.082377,10732.986159,919.314598
161.874297,2442.679609,13693.809927,-5132.839837
161.874606,-5773.606348,10658.965565,-7277.907231
161.874916,-518.144159,12805.562797,-3447.429741
161.875226,8142.265362,13915.871710,-13942.938064
161.875535,-3849.070898,9770.718434,-11108.384721
161.875845,-3256.906145,6735.874072,12257.527968
161.876154,-1406.391290,9770.718434,8350.440928
161.876464,5995.668130,7994.224174,-5669.106685
161.876773,4959.379811,6883.915261,-306.438199
161.877083,-5995.668130,5921.647536,7507.735880
161.877393,-1628.453072,6069.688724,1991.848295
161.877702,74.020594,10881.027347,-2145.067394
161.878012,-3552.988522,16284.530724,-7967.393179
161.878321,5255.462188,11991.336260,-13330.061665
161.878631,-3849.070898,7994.224174,-7660.954980
161.878940,-6217.729913,10436.903782,4749.792088
161.879250,3849.070898,8216.285956,-1532.190996
161.879559,7179.997637,7254.018232,-2681.334243
161.879869,-1332.370696,2072.576638,7967.393179
161.880179,-3404.947333,3404.947333,9422.974625
161.880488,296.082377,11695.253884,-3830.477490
161.880798,666.185348,9326.594869,-7584.345430
161.881107,2812.782580,11103.089130,-4443.353888
161.881417,2516.700203,12731.542202,-10725.336972
161.881726,-6143.709319,9474.636058,-2911.162892
161.882036,-4293.194464,13101.645173,9499.584175
161.882346,6883.915261,8438.347739,-6052.154434
161.882655,3034.844362,6587.832884,-11261.603821
161.882965,-7920.203579,6809.894666,9882.631924
161.883274,-5921.647536,4071.132681,11568.042020
161.883584,5921.647536,11695.253884,-10801.946522
161.883893,-666.185348,7031.956449,-6511.811733
161.884203,-3775.050304,14508.036463,-229.828649
161.884512,-740.205942,14582.057057,-9959.241474
161.884822,3330.926739,7772.162391,-3600.648841
161.885132,2294.638420,12731.542202,3447.429741
161.885441,5847.626942,7698.141797,-612.876398
161.885751,-3552.988522,7031.956449,4673.182538
161.886060,-8142.265362,5107.421000,13483.280765
161.886370,9696.697840,8956.491898,-5056.230287
161.886679,7550.100608,7476.080014,-17850.025103
161.886989,-9992.780217,10214.842000,1608.800546
161.887299,-5699.585753,10214.842000,5515.887586
161.887608,3701.029710,9400.615463,-9806.022374
161.887918,3478.967927,15840.407159,-1378.971896
161.888227,-2590.720797,13175.665768,4903.011187
161.888537,1036.288319,10732.986159,-9806.022374
161.888846,1554.432478,6069.688724,-842.705048
161.889156,-1554.432478,5477.523971,7354.516781
161.889466,148.041188,12435.459826,-3830.477490
161.889775,-222.061783,11399.171507,-4213.525239
161.890085,-4293.194464,9548.656652,5975.544884
161.890394,2220.617826,5033.400406,-1762.019645
161.890704,-0.000000,7772.162391,-10342.289223
161.891013,-5921.647536,10214.842000,-229.828649
161.891323,1628.453072,9992.780217,-3140.991542
161.891632,3552.988522,5921.647536,-6894.859482
161.891942,-1998.556043,9992.780217,8120.612279
161.892252,444.123565,14434.015869,8197.221829
161.892561,4737.318029,7550.100608,-7277.907231
161.892871,1332.370696,7402.059420,0.000000
161.893180,-7179.997637,7846.182985,8197.221829
161.893490,6069.688724,12731.542202,-7814.174080
161.893799,3330.926739,10584.944971,-12487.356617
161.894109,-3404.947333,12139.377449,4290.134789
161.894419,-4515.256246,6365.771101,7507.735880
161.894728,-2368.659014,11399.171507,-2221.676944
161.895038,-4663.297435,12805.562797,153.219100
161.895347,8586.388927,14508.036463,-7967.393179
161.895657,-814.226536,4737.318029,-11721.261119
161.895966,-8290.306550,9992.780217,4060.306139
161.896276,-1036.288319,9992.780217,-1302.362347
161.896585,9474.636058,5995.668130,-13559.890315
161.896895,-2516.700203,4145.153275,5132.839837
161.897205,-6439.791695,12509.480420,17620.196454
161.897514,5181.441594,10288.862594,-3447.429741
161.897824,9400.615463,3034.844362,-7584.345430
161.898133,-6143.709319,7031.956449,7584.345430
161.898443,-4293.194464,8512.368333,-2604.724693
161.898752,-2146.597232,12953.603985,-13636.499864
161.899062,-2072.576638,18209.066173,-4749.792088
161.899372,2368.659014,7920.203579,-6894.859482
161.899681,2368.659014,8882.471304,-9499.584175
161.899991,-3775.050304,14730.098246,6281.983084
161.900300,-3330.926739,4737.318029,9806.022374
161.900610,5699.585753,4885.359217,-1149.143247
161.900919,-0.000000,7179.997637,1302.362347
161.901229,-74.020594,10658.965565,1302.362347
161.901538,-3182.885551,10955.047942,-9729.412825
161.901848,2960.823768,8586.388927,-6358.592633
161.902158,444.123565,13471.748144,-1455.581446
161.902467,1998.556043,9918.759623,-6052.154434
161.902777,-296.082377,7698.141797,-842.705048
161.903086,-8882.471304,5699.585753,7814.174080
161.903396,6291.750507,3923.091493,306.438199
161.903705,4737.318029,5995.668130,-9499.584175
161.904015,-3627.009116,12287.418637,-2451.505594
161.904325,-4589.276840,10288.862594,3447.429741
161.904634,5847.626942,14804.118840,-4903.011187
161.904944,-296.082377,14878.139434,-2757.943793
161.905253,1702.473667,18283.086767,-766.095498
161.905563,-370.102971,9992.780217,-5439.278036
161.905872,-2368.659014,5255.462188,153.219100
161.906182,-1332.370696,6439.791695,2911.162892
161.906492,2368.659014,7476.080014,-7737.564530
161.906801,-148.041188,7476.080014,-3983.696590
161.907111,-4219.173869,10436.903782,8810.098227
161.907420,5107.421000,7772.162391,-766.095498
161.907730,4145.153275,6735.874072,-11184.994271
161.908039,-5403.503377,8142.265362,7431.126331
161.908349,-2368.659014,6587.832884,6052.154434
161.908658,2960.823768,7179.997637,-7048.078582
161.908968,-4663.297435,8734.430116,-1378.971896
161.909278,-1776.494261,13693.809927,0.000000
161.909587,592.164754,15766.386565,-12717.185267
161.909897,1110.308913,9622.677246,-2374.896044
161.910206,-5995.668130,11991.336260,9039.926876
161.910516,2294.638420,14211.954086,-4903.011187
161.910825,2516.700203,8290.306550,-4596.572988
161.911135,-1036.288319,6513.812290,7890.783629
161.911445,370.102971,6735.874072,-1225.752797
161.911754,-1998.556043,6217.729913,-7048.078582
161.912064,-3256.906145,13397.727550,919.314598
161.912373,2738.761985,7550.100608,-5209.449386
161.912683,4515.256246,9178.553681,-8044.002729
161.912992,-4293.194464,11029.068536,5745.716235
161.913302,2368.659014,11251.130318,6588.421283
161.913611,1332.370696,7105.977043,-2681.334243
161.913921,2220.617826,5255.462188,5056.230287
161.914231,-3330.926739,6809.894666,7277.907231
161.914540,1258.350101,13397.727550,-6281.983084
161.914850,-2072.576638,11843.295072,-15628.348159
161.915159,-2590.720797,11843.295072,-3907.087040
161.915469,-962.267725,13841.851115,-9193.145976
161.915778,-2960.823768,15470.304188,-7814.174080
161.916088,-1628.453072,15470.304188,842.705048
161.916398,8142.265362,3034.844362,1991.848295
161.916707,5403.503377,3997.112087,689.485948
161.917017,-5847.626942,2960.823768,12334.137518
161.917326,1554.432478,4885.359217,8656.879127
161.917636,3404.947333,2738.761985,-5056.230287
161.917945,2146.597232,7179.997637,-536.266849
161.918255,-3701.029710,10362.883188,1455.581446
161.918564,-2294.638420,14211.954086,-8350.440928
161.918874,-814.226536,4737.318029,-7584.345430
161.919184,-1702.473667,8808.450710,-3294.210641
161.919493,-4219.173869,14285.974681,-4979.620737
161.919803,-1480.411884,12583.501014,-2987.772442
161.920112,-4737.318029,13175.665768,2987.772442
161.920422,7476.080014,9844.739029,-3983.696590
161.920731,2442.679609,9918.759623,-4749.792088
161.921041,-5033.400406,7179.997637,7584.345430
161.921351,-888.247130,6809.894666,7967.393179
161.921660,3923.091493,8808.450710,-3140.991542
161.921970,-1480.411884,5773.606348,-1455.581446
161.922279,2960.823768,7476.080014,-3524.039291
161.922589,592.164754,6735.874072,-10035.851024
161.922898,2886.803174,2738.761985,-1378.971896
161.923208,-3997.112087,6809.894666,8044.002729
161.923517,-0.000000,7698.141797,4903.011187
161.923827,6809.894666,12065.356855,383.047749
161.924136,-5107.421000,10807.006753,7354.516781
161.924445,-2590.720797,13619.789333,1685.410096
161.924755,3701.029710,13323.706956,-11951.089769
161.925064,-2072.576638,16432.571912,-15092.081311
161.925374,-1998.556043,12361.439231,-6128.763984
161.925683,-3034.844362,11917.315666,459.657299
161.925993,-2294.638420,17394.839637,1991.848295
161.926302,1554.432478,13767.830521,-842.705048
161.926612,3404.947333,7550.100608,-1838.629195
161.926921,-4589.276840,-3330.926739,4903.011187
161.927231,1702.473667,1850.514855,2528.115143
161.927540,2960.823768,6291.750507,-7201.297681
161.927850,7476.080014,1406.391290,-5669.106685
161.928159,-3330.926739,4219.173869,8350.440928
161.928469,-1332.370696,9104.533087,8273.831378
161.928778,4367.215058,9844.739029,-2221.676944
161.929088,74.020594,13397.727550,0.000000
161.929397,962.267725,7105.977043,1455.581446
161.929706,-5477.523971,13397.727550,-3524.039291
161.930016,-3552.988522,20651.745782,-6358.592633
161.930325,518.144159,14359.995275,-12180.918418
161.930635,592.164754,15914.427753,-11184.994271
161.930944,-4663.297435,11103.089130,1149.143247
161.931254,-2590.720797,10066.800811,5362.668486
161.931563,4367.215058,8660.409521,1455.581446
161.931873,3775.050304,1776.494261,3524.039291
161.932182,-2442.679609,4515.256246,6588.421283
161.932492,518.144159,4589.276840,2068.457845
161.932801,1924.535449,4885.359217,-4749.792088
161.933111,1332.370696,8438.347739,-4443.353888
161.933420,3627.009116,5403.503377,0.000000
161.933730,-3034.844362,9474.636058,-1685.410096
161.934039,-4219.173869,14656.077652,6128.763984
161.934349,4885.359217,11695.253884,459.657299
161.934658,2960.823768,8882.471304,-7124.688131
161.934967,962.267725,10510.924376,-1685.410096
161.935277,-6439.791695,8586.388927,5362.668486
161.935586,-3849.070898,17320.819043,-2221.676944
161.935896,3256.906145,15396.283594,-5515.887586
161.936205,370.102971,14804.118840,-11414.822920
161.936515,-3034.844362,13989.892304,-9806.022374
161.936824,-5551.544565,6809.894666,-2451.505594
161.937134,-814.226536,4589.276840,-153.219100
161.937443,8882.471304,-0.000000,-3600.648841
161.937753,4811.338623,3923.091493,1455.581446
161.938062,-5551.544565,2812.782580,16547.662757
161.938372,-814.226536,2664.741391,9806.022374
161.938681,8660.409521,5477.523971,-6971.469032
161.938991,-1406.391290,6957.935855,-6741.640382
161.939300,-888.247130,15470.304188,-4673.182538
161.939610,-1406.391290,15618.345376,-8273.831378
161.939919,1110.308913,14952.160028,-4519.963438
161.940229,-0.000000,14508.036463,-3140.991542
161.940538,-1998.556043,15248.242405,-7431.126331
161.940847,-5329.482782,7476.080014,4826.401637
161.941157,-2072.576638,8956.491898,9193.145976
161.941466,4145.153275,6809.894666,-6665.030833
161.941776,5847.626942,9178.553681,-8580.269578
161.942085,-8586.388927,17024.736666,7660.954980
161.942395,-888.247130,10288.862594,1762.019645
161.942704,4737.318029,8808.450710,-11491.432470
161.943014,-888.247130,10955.047942,-4060.306139
161.943323,666.185348,3849.070898,1532.190996
161.943633,2368.659014,1406.391290,306.438199
161.943942,1628.453072,4293.194464,5439.278036
161.944252,1110.308913,8364.327145,4213.525239
161.944561,3478.967927,12509.480420,-2757.943793
161.944871,-1480.411884,9474.636058,-2451.505594
161.945180,-4589.276840,11917.315666,1072.533697
161.945490,1406.391290,11769.274478,-9806.022374
161.945799,4811.338623,11547.212695,-9269.755526
161.946108,-9252.574275,12435.459826,2298.286494
161.946418,1332.370696,10658.965565,-1378.971896
161.946727,592.164754,12583.501014,-5669.106685
161.947037,-2590.720797,10510.924376,1302.362347
161.947346,1924.535449,4959.379811,2451.505594
161.947656,962.267725,4737.318029,-5592.497135
161.947965,-3997.112087,8808.450710,-1225.752797
161.948275,-592.164754,8734.430116,4903.011187
161.948584,4071.132681,12213.398043,-2911.162892
161.948894,1702.473667,5995.668130,-3753.867940
161.949203,-74.020594,8586.388927,3830.477490
161.949513,-592.164754,5995.668130,766.095498
161.949822,4589.276840,6883.915261,-842.705048
161.950132,-2516.700203,11325.150913,4519.963438
161.950441,740.205942,12435.459826,919.314598
161.950751,-370.102971,11547.212695,-2681.334243
161.951060,-5181.441594,18135.045579,-1762.019645
161.951369,1258.350101,12879.583391,-7584.345430
161.951679,-222.061783,9622.677246,-12257.527968
161.951988,-9548.656652,14804.118840,-4366.744339
161.952298,-2220.617826,12509.480420,-689.485948
161.952607,5477.523971,9326.594869,-6588.421283
161.952917,5847.626942,6143.709319,-153.219100
161.953226,-666.185348,5699.585753,10955.165621
161.953536,-0.000000,7105.977043,6358.592633
161.953845,2072.576638,2220.617826,-383.047749
161.954155,1776.494261,7550.100608,995.924147
161.954464,1480.411884,4737.318029,-2451.505594
161.954774,3182.885551,9548.656652,-3217.601092
161.955083,-3701.029710,10658.965565,306.438199
161.955393,-1184.329507,7698.141797,1225.752797
161.955702,-3849.070898,9474.636058,-612.876398
161.956012,-3552.988522,14804.118840,766.095498
161.956321,5625.565159,14656.077652,2221.676944
161.956631,1036.288319,13915.871710,-6511.811733
161.956940,-5033.400406,13619.789333,1455.581446
161.957249,1406.391290,12953.603985,459.657299
161.957559,148.041188,13397.727550,-6435.202183
161.957868,-0.000000,10214.842000,306.438199
161.958178,-4663.297435,8216.285956,5898.935335
161.958487,2738.761985,8068.244768,-4366.744339
161.958797,7254.018232,4885.359217,-7507.735880
161.959106,-4071.132681,2738.761985,1532.190996
161.959416,-7550.100608,5329.482782,8886.707777
161.959725,4219.173869,6587.832884,766.095498
161.960035,3256.906145,9548.656652,-4519.963438
161.960344,2960.823768,9474.636058,-4060.306139
161.960654,-4885.359217,7254.018232,-229.828649
161.960963,-2442.679609,11695.253884,-1225.752797
161.961273,3627.009116,9844.739029,-6818.249932
161.961582,-666.185348,14804.118840,-4060.306139
161.961892,-5403.503377,10881.027347,8656.879127
161.962201,592.164754,13175.665768,2604.724693
161.962510,4589.276840,9400.615463,-10495.508323
161.962820,2960.823768,5773.606348,-5056.230287
161.963129,-7772.162391,9622.677246,4136.915689
161.963439,-888.247130,6439.791695,0.000000
161.963748,7105.977043,9104.533087,-7354.516781
161.964058,-2664.741391,8068.244768,612.876398
161.964367,-3627.009116,7994.224174,6588.421283
161.964677,1924.535449,6661.853478,229.828649
161.964986,888.247130,4293.194464,-5669.106685
161.965296,6143.709319,9548.656652,-4136.915689
161.965605,-3404.947333,9844.739029,3830.477490
161.965915,2368.659014,13767.830521,3907.087040
161.966224,592.164754,12731.542202,-4673.182538
161.966534,3108.864956,15840.407159,-7507.735880
161.966843,-518.144159,5699.585753,-689.485948
161.967153,-296.082377,6735.874072,766.095498
161.967462,-2664.741391,10140.821405,1685.410096
161.967771,1850.514855,8216.285956,995.924147
161.968081,-3404.947333,9326.594869,1455.581446
161.968390,2368.659014,10066.800811,-3294.210641
161.968700,666.185348,11251.130318,-8427.050478
161.969009,-3849.070898,12287.418637,-7201.297681
161.969319,-3849.070898,11547.212695,-2987.772442
161.969628,-222.061783,11621.233289,-3983.696590
161.969938,-2368.659014,13101.645173,-7890.783629
161.970247,-0.000000,14508.036463,-8733.488677
161.970557,-370.102971,10955.047942,-3753.867940
161.970866,4811.338623,5773.606348,-5669.106685
161.971176,1850.514855,3182.885551,-4136.915689
161.971485,814.226536,5477.523971,0.000000
161.971795,-4293.194464,5847.626942,1915.238745
161.972104,-1480.411884,9622.677246,-5132.839837
161.972414,6143.709319,8586.388927,-16394.443657
161.972723,3552.988522,6439.791695,-16471.053207
161.973033,-5403.503377,6883.915261,-5439.278036
161.973342,-444.123565,6069.688724,-2681.334243
161.973651,1258.350101,6587.832884,-8044.002729
161.973961,2516.700203,8364.327145,-7890.783629
161.974270,-1924.535449,11621.233289,-4673.182538
161.974580,1184.329507,14730.098246,-8733.488677
161.974889,2590.720797,10584.944971,-16854.100956
161.975199,-444.123565,10066.800811,-15475.129060
161.975508,-592.164754,8438.347739,-11261.603821
161.975818,3404.947333,10881.027347,-8044.002729
161.976127,-1110.308913,8216.285956,-4136.915689
161.976437,-148.041188,10807.006753,-1762.019645
161.976746,592.164754,7254.018232,-6971.469032
161.977056,1406.391290,5255.462188,-14862.252661
161.977365,-2516.700203,5477.523971,-15245.300410
161.977675,-2442.679609,6069.688724,-10342.289223
161.977984,1554.432478,9844.739029,-13406.671215
161.978294,1184.329507,12213.398043,-5898.935335
161.978603,-1184.329507,11917.315666,-2068.457845
161.978912,-592.164754,7846.182985,-5592.497135
161.979222,-0.000000,9548.656652,-8044.002729
161.979531,1332.370696,7476.080014,-14402.595362
161.979841,-5181.441594,9992.780217,-13406.671215
161.980150,2294.638420,11769.274478,-11951.089769
161.980460,-1332.370696,15766.386565,-12563.966167
161.980769,1110.308913,13619.789333,-12334.137518
161.981079,-8882.471304,10732.986159,-6205.373534
161.981388,-1036.288319,8216.285956,-8120.612279
161.981698,-370.102971,3256.906145,-16547.662757
161.982007,1184.329507,3478.967927,-16624.272307
161.982317,-3923.091493,5329.482782,-8580.269578
161.982626,-666.185348,9178.553681,-5745.716235
161.982936,4145.153275,9104.533087,-10648.727422
161.983245,7254.018232,10362.883188,-10801.946522
161.983555,-2146.597232,7920.203579,-1302.362347
161.983864,-3404.947333,9400.615463,-2221.676944
161.984173,2368.659014,9622.677246,-14249.376263
161.984483,5625.565159,7994.224174,-24821.494135
161.984792,-1332.370696,12287.418637,-15858.176809
161.985102,-5551.544565,14285.974681,-3524.039291
161.985411,-0.000000,15914.427753,-8886.707777
161.985721,7698.141797,11621.233289,-19535.435199
161.986030,2664.741391,8586.388927,-10572.117872
161.986340,-5181.441594,5773.606348,1838.629195
161.986649,-2960.823768,6587.832884,-1455.581446
161.986959,5033.400406,10881.027347,-16317.834107
161.987268,3034.844362,11399.171507,-20837.797546
161.987578,-4811.338623,10807.006753,-10801.946522
161.987887,-3330.926739,10288.862594,-5898.935335
161.988197,-1924.535449,13915.871710,-12487.356617
161.988506,4219.173869,12879.583391,-16088.005458
161.988816,2220.617826,6069.688724,-10725.336972
161.989125,-3478.967927,4885.359217,-3830.477490
161.989434,1332.370696,2590.720797,-612.876398
161.989744,-1036.288319,6587.832884,-5515.887586
161.990053,444.123565,9326.594869,-8120.612279
161.990363,-3108.864956,11843.295072,-10572.117872
161.990672,-2960.823768,16876.695478,-15858.176809
161.990982,-666.185348,17024.736666,-17466.977354
161.991291,-2886.803174,16506.592507,-15934.786358
161.991601,-1702.473667,14878.139434,-12257.527968
161.991910,-0.000000,9252.574275,-8350.440928
161.992220,1036.288319,5847.626942,-9116.536426
161.992529,4589.276840,5699.585753,-4979.620737
161.992839,3997.112087,2812.782580,-1915.238745
161.993148,-0.000000,4367.215058,-229.828649
161.993458,-3256.906145,9178.553681,-2451.505594
161.993767,444.123565,11769.274478,-11261.603821
161.994077,-1036.288319,11695.253884,-20224.921147
161.994386,-0.000000,16284.530724,-21527.283494
161.994696,-1850.514855,11695.253884,-17466.977354
161.995005,370.102971,10881.027347,-15475.129060
161.995314,-222.061783,8512.368333,-9193.145976
161.995624,740.205942,8882.471304,-2221.676944
161.995933,518.144159,10140.821405,536.266849
161.996243,740.205942,8364.327145,-5822.325785
161.996552,3701.029710,7254.018232,-13866.328514
161.996862,2590.720797,7624.121203,-13866.328514
161.997171,-3701.029710,9252.574275,-10265.679673
161.997481,-2960.823768,11621.233289,-10878.556072
161.997790,444.123565,12361.439231,-11874.480219
161.998100,-1184.329507,10510.924376,-12257.527968
161.998409,-5329.482782,10066.800811,-10342.289223
161.998719,-0.000000,9252.574275,-15015.471761
161.999028,2590.720797,7624.121203,-18999.168350
161.999338,-1554.432478,7105.977043,-12104.308868
161.999647,-2368.659014,7328.038826,-3294.210641
161.999957,2812.782580,9252.574275,-5592.497135
162.000266,4219.173869,8586.388927,-9116.536426
162.000575,-370.102971,5625.565159,-8350.440928
162.000885,-3108.864956,7402.059420,-5975.544884
162.001194,-962.267725,9326.594869,-11261.603821
162.001504,2516.700203,13249.686362,-19305.606550
162.001813,2146.597232,14211.954086,-19995.092498
162.002123,-3256.906145,13545.768739,-8733.488677
162.002432,-1924.535449,13767.830521,-3370.820191
162.002742,1110.308913,10362.883188,-9806.022374
162.003051,2146.597232,5551.544565,-12793.794817
162.003361,-592.164754,3552.988522,-7584.345430
162.003670,-3552.988522,7031.956449,-5439.278036
162.003980,1332.370696,10881.027347,-11338.213370
162.004289,2738.761985,16136.489536,-16854.100956
162.004599,1554.432478,14804.118840,-15245.300410
162.004908,-1628.453072,11251.130318,-13023.623466
162.005218,444.123565,9474.636058,-10725.336972
162.005527,3775.050304,3478.967927,-12257.527968
162.005836,814.226536,-666.185348,-7354.516781
162.006146,-2294.638420,-1480.411884,229.828649
162.006455,-1776.494261,814.226536,-2757.943793
162.006765,-0.000000,7402.059420,-10572.117872
162.007074,1258.350101,13175.665768,-15092.081311
162.007384,-962.267725,15766.386565,-14632.424012
162.007693,-2590.720797,17764.942608,-14249.376263
162.008003,1184.329507,15248.242405,-15398.519510
162.008312,370.102971,12879.583391,-14709.033562
162.008622,-3552.988522,7624.121203,-6818.249932
162.008931,-3627.009116,5847.626942,-2374.896044
162.009241,-518.144159,6957.935855,-8044.002729
162.009550,1776.494261,7772.162391,-14096.157163
162.009860,1110.308913,8438.347739,-14709.033562
162.010169,-1406.391290,10214.842000,-13483.280765
162.010479,296.082377,13397.727550,-10801.946522
162.010788,1924.535449,10288.862594,-11491.432470
162.011098,1332.370696,7772.162391,-8580.269578
162.011407,1480.411884,4145.153275,-3064.381992
162.011716,-444.123565,962.267725,-2451.505594
162.012026,592.164754,4811.338623,-4213.525239
162.012335,1776.494261,7920.203579,-10495.508323
162.012645,-518.144159,11843.295072,-9269.755526
162.012954,-1554.432478,16210.510130,-8733.488677
162.013264,740.205942,18357.107362,-12104.308868
162.013573,1850.514855,16654.633695,-16241.224558
162.013883,-2516.700203,13397.727550,-11108.384721
162.014192,-3404.947333,7846.182985,-8273.831378
162.014502,-0.000000,6883.915261,-9576.193725
162.014811,-444.123565,10140.821405,-8580.269578
162.015121,-666.185348,9474.636058,-4519.963438
162.015430,222.061783,9104.533087,-6511.811733
162.015740,814.226536,7254.018232,-9806.022374
162.016049,148.041188,7994.224174,-9499.584175
162.016359,1332.370696,6143.709319,-6435.202183
162.016668,-0.000000,6883.915261,-4903.011187
162.016977,-1332.370696,5107.421000,-3370.820191
162.017287,370.102971,7920.203579,-4366.744339
162.017596,2146.597232,8438.347739,-8656.879127
162.017906,-666.185348,10362.883188,-7124.688131
162.018215,-3404.947333,11991.336260,-2374.896044
162.018525,-1480.411884,13175.665768,-4749.792088
162.018834,-2590.720797,12287.418637,-10495.508323
162.019144,-3923.091493,10584.944971,-13483.280765
162.019453,-4367.215058,10362.883188,-10801.946522
162.019763,-2812.782580,10362.883188,-14709.033562
162.020072,-2442.679609,12435.459826,-13100.233016
162.020382,-1406.391290,13767.830521,-10495.508323
162.020691,888.247130,14434.015869,-12027.699319
162.021001,666.185348,13841.851115,-11261.603821
162.021310,-1258.350101,13619.789333,-8273.831378
162.021620,-740.205942,11695.253884,-10189.070123
162.021929,-740.205942,10510.924376,-14555.814462
162.022238,740.205942,8364.327145,-17313.758255
162.022548,592.164754,7476.080014,-17543.586904
162.022857,1924.535449,7698.141797,-16164.615008
162.023167,3256.906145,7624.121203,-11414.822920
162.023476,4071.132681,8882.471304,-6741.640382
162.023786,4145.153275,5773.606348,-4213.525239
162.024095,592.164754,4515.256246,-3677.258390
162.024405,2812.782580,8290.306550,-6511.811733
162.024714,-7328.038826,7031.956449,-9576.193725
162.025024,-3404.947333,9326.594869,-19305.606550
162.025333,-3256.906145,13101.645173,-29264.848024
162.025643,-1850.514855,15396.283594,-27119.780629
162.025953,1776.494261,19245.354492,-19535.435199
162.026262,-3849.070898,13619.789333,-11951.089769
162.026572,6217.729913,10584.944971,-9499.584175
162.026881,1258.350101,3997.112087,-3140.991542
162.027191,3404.947333,2516.700203,-4213.525239
162.027500,17024.736666,6809.894666,-6205.373534
162.027810,-740.205942,4515.256246,-229.828649
162.028119,-9696.697840,1924.535449,-14785.643111
162.028429,-5847.626942,3552.988522,-37308.850753
162.028738,-7402.059420,16136.489536,-15321.909960
162.029048,4219.173869,28275.866984,459.657299
162.029357,-10436.903782,14878.139434,-13789.718964
162.029667,2738.761985,3627.009116,-27043.171079
162.029976,-9622.677246,7328.038826,-9039.926876
162.030286,-7698.141797,1702.473667,-7507.735880
162.030595,-1258.350101,8660.409521,-13942.938064
162.030905,2368.659014,14952.160028,-9729.412825
162.031215,12953.603985,18949.272115,-16088.005458
162.031524,-4885.359217,4589.276840,-12410.747068
162.031834,-4071.132681,12583.501014,2221.676944
162.032143,-5995.668130,6883.915261,-3294.210641
162.032453,5107.421000,6809.894666,-30184.162621
162.032762,1110.308913,5181.441594,-23136.084040
162.033072,-6143.709319,7550.100608,-7967.393179
162.033381,-2812.782580,6217.729913,-6435.202183
162.033691,6587.832884,12953.603985,-11797.870669
162.034000,9474.636058,8660.409521,-7201.297681
162.034310,-1554.432478,1702.473667,2911.162892
162.034619,-3256.906145,5477.523971,7354.516781
162.034929,1110.308913,3775.050304,-3907.087040
162.035238,5255.462188,13397.727550,-23902.179538
162.035548,-148.041188,13101.645173,-20991.016645
162.035858,-3182.885551,17468.860231,-12180.918418
162.036167,2294.638420,13989.892304,-11644.651570
162.036477,3108.864956,18949.272115,-14096.157163
162.036786,-2368.659014,12287.418637,-3600.648841
162.037096,-2886.803174,10140.821405,-383.047749
162.037405,962.267725,6883.915261,-9269.755526
162.037715,-3330.926739,6661.853478,-14938.862211
162.038024,1702.473667,5329.482782,-14096.157163
162.038334,962.267725,10807.006753,-8810.098227
162.038643,592.164754,13471.748144,-2221.676944
162.038953,-2368.659014,13545.768739,-383.047749
162.039262,-148.041188,13471.748144,-4443.353888
162.039572,-0.000000,10510.924376,-8963.317327
162.039881,-1036.288319,5181.441594,-10418.898773
162.040191,-5329.482782,2072.576638,-11491.432470
162.040501,-5107.421000,6217.729913,-9499.584175
162.040810,-3182.885551,12657.521608,-9269.755526
162.041120,-2368.659014,15840.407159,-8503.660028
162.041429,3034.844362,13767.830521,-11491.432470
162.041739,2368.659014,11251.130318,-8427.050478
162.042048,-1036.288319,8290.306550,-153.219100
162.042358,-1924.535449,6809.894666,-2451.505594
162.042667,-74.020594,6587.832884,-9806.022374
162.042977,962.267725,14508.036463,-12027.699319
162.043286,1036.288319,12583.501014,-16471.053207
162.043596,1036.288319,13397.727550,-16700.881856
162.043905,-2220.617826,15248.242405,-9806.022374
162.044215,-444.123565,9770.718434,-11951.089769
162.044524,-962.267725,8068.244768,-13789.718964
162.044834,3627.009116,7031.956449,-7737.564530
162.045144,-1036.288319,3330.926739,-6971.469032
162.045453,-2664.741391,7031.956449,-4213.525239
162.045763,3701.029710,8142.265362,-7967.393179
162.046072,-0.000000,11103.089130,-17466.977354
162.046382,2146.597232,12953.603985,-20148.311597
162.046691,-1036.288319,12731.542202,-14479.204912
162.047001,-1702.473667,16062.468941,-10189.070123
162.047310,1702.473667,9474.636058,-16624.272307
162.047620,1258.350101,6365.771101,-18692.730151
162.047929,2664.741391,3849.070898,-11491.432470
162.048239,-3108.864956,3182.885551,-3447.429741
162.048548,1258.350101,10510.924376,-2834.553343
162.048858,5403.503377,11843.295072,-12410.747068
162.049167,7105.977043,12139.377449,-18922.558801
162.049477,-4737.318029,8290.306550,-13023.623466
162.049787,-4663.297435,11621.233289,-7737.564530
162.050096,-5255.462188,8438.347739,-15015.471761
162.050406,5477.523971,10807.006753,-22369.988542
162.050715,-2442.679609,9918.759623,-16241.224558
162.051025,-1110.308913,3997.112087,-3447.429741
162.051334,-5329.482782,9548.656652,-612.876398
162.051644,2886.803174,9474.636058,-10189.070123
162.051953,-1480.411884,12065.356855,-13942.938064
162.052263,-5403.503377,12287.418637,-11338.213370
162.052572,-0.000000,14730.098246,-13023.623466
162.052882,222.061783,13027.624579,-20607.968896
162.053191,5181.441594,10955.047942,-21910.331243
162.053501,-1924.535449,8438.347739,-10495.508323
162.053810,-4145.153275,9252.574275,1149.143247
162.054120,666.185348,5699.585753,-1302.362347
162.054429,6439.791695,7254.018232,-10112.460574
162.054739,5181.441594,5551.544565,-17160.539155
162.055049,-74.020594,2442.679609,-5745.716235
162.055358,-1998.556043,7328.038826,-4979.620737
162.055668,-1184.329507,9474.636058,-12257.527968
162.055977,-74.020594,10807.006753,-10265.679673
162.056287,2220.617826,9918.759623,-10418.898773
162.056596,-888.247130,7476.080014,-12257.527968
162.056906,-222.061783,8808.450710,-10648.727422
162.057215,2294.638420,7328.038826,-5056.230287
162.057525,4885.359217,7772.162391,-3140.991542
162.057834,1480.411884,6217.729913,229.828649
162.058144,-7105.977043,9178.553681,3753.867940
162.058453,4293.194464,10881.027347,-3983.696590
162.058763,3108.864956,9918.759623,-13942.938064
162.059072,-1110.308913,15766.386565,-10801.946522
162.059382,-4515.256246,13545.768739,-8044.002729
162.059692,3034.844362,10436.903782,-11568.042020
162.060001,4515.256246,11843.295072,-9499.584175
162.060311,370.102971,8068.244768,2911.162892
162.060620,-2220.617826,5921.647536,10035.851024
162.060930,1258.350101,8216.285956,5132.839837
162.061239,518.144159,4811.338623,4749.792088
162.061549,-1702.473667,8586.388927,995.924147
162.061858,592.164754,9770.718434,-7201.297681
162.062168,-1406.391290,16802.674883,-10265.679673
162.062477,-4737.318029,13101.645173,-7201.297681
162.062787,-1776.494261,17320.819043,-7584.345430
162.063096,888.247130,17172.777854,-5056.230287
162.063406,-4737.318029,11991.336260,-1532.190996
162.063715,-1184.329507,11547.212695,2834.553343
162.064025,2072.576638,5255.462188,1455.581446
162.064335,740.205942,6809.894666,2451.505594
162.064644,-2442.679609,6809.894666,3294.210641
162.064954,5255.462188,13767.830521,-6665.030833
162.065263,2368.659014,11621.233289,-10112.460574
162.065573,-444.123565,11917.315666,-1991.848295
162.065882,-370.102971,9992.780217,-2068.457845
162.066192,2886.803174,8586.388927,-7660.954980
162.066501,3923.091493,5329.482782,-306.438199
162.066811,-2072.576638,2590.720797,7737.564530
162.067120,-1110.308913,6513.812290,7048.078582
162.067430,-2516.700203,9030.512492,1225.752797
162.067739,6143.709319,10140.821405,-6741.640382
162.068049,-0.000000,9474.636058,-12487.356617
162.068358,-4071.132681,13027.624579,-2911.162892
162.068668,-3775.050304,11695.253884,2451.505594
162.068978,-592.164754,12953.603985,-2451.505594
162.069287,6069.688724,13841.851115,-7201.297681
162.069597,2368.659014,11843.295072,-1608.800546
162.069906,-1036.288319,9178.553681,842.705048
162.070216,666.185348,9770.718434,-3140.991542
162.070525,5995.668130,8512.368333,-4060.306139
162.070835,1628.453072,10807.006753,-1149.143247
162.071144,592.164754,10214.842000,-306.438199
162.071454,-3478.967927,11547.212695,1532.190996
162.071763,2368.659014,10658.965565,-3447.429741
162.072073,666.185348,6365.771101,-7967.393179
162.072382,-2146.597232,6439.791695,-5286.058936
162.072692,962.267725,9474.636058,536.266849
162.073001,-1480.411884,14063.912898,-2374.896044
162.073311,-2220.617826,11769.274478,3753.867940
162.073620,592.164754,10584.944971,3677.258390
162.073930,1332.370696,4811.338623,-3294.210641
162.074240,-1628.453072,5107.421000,-3064.381992
162.074549,-3330.926739,9104.533087,1685.410096
162.074859,-444.123565,5773.606348,-6358.592633
162.075168,1924.535449,12435.459826,-10112.460574
162.075478,1184.329507,14952.160028,-5209.449386
162.075787,2738.761985,13175.665768,-6128.763984
162.076097,-1110.308913,9696.697840,-76.609550
162.076406,1110.308913,5847.626942,4903.011187
162.076716,1406.391290,4441.235652,842.705048
162.077025,1998.556043,3997.112087,-4290.134789
162.077335,1036.288319,5033.400406,2145.067394
162.077644,2072.576638,3182.885551,2451.505594
162.077954,1776.494261,5329.482782,-4903.011187
162.078263,-1776.494261,14434.015869,-4749.792088
162.078573,3997.112087,11325.150913,-2757.943793
162.078883,148.041188,9400.615463,-3907.087040
162.079192,-3182.885551,11917.315666,-766.095498
162.079502,2738.761985,9474.636058,995.924147
162.079811,2516.700203,7920.203579,-3677.258390
162.080121,-0.000000,6365.771101,306.438199
162.080430,-4959.379811,9104.533087,12870.404366
162.080740,1480.411884,13915.871710,3370.820191
162.081049,4811.338623,14582.057057,-8656.879127
162.081359,-1332.370696,15396.283594,-1532.190996
162.081668,-1332.370696,11325.150913,1915.238745
162.081978,-2738.761985,10658.965565,-4903.011187
162.082287,1998.556043,16062.468941,-4060.306139
162.082597,4145.153275,11843.295072,-2604.724693
162.082906,2146.597232,7402.059420,-4366.744339
162.083216,-5847.626942,2738.761985,2911.162892
162.083526,-3552.988522,8956.491898,13176.842566
162.083835,1554.432478,9622.677246,689.485948
162.084145,4737.318029,4589.276840,-4673.182538
162.084454,-2368.659014,7846.182985,3294.210641
162.084764,2368.659014,4663.297435,-383.047749
162.085073,-666.185348,9104.533087,-5515.887586
162.085383,-222.061783,8068.244768,1072.533697
162.085692,-74.020594,9030.512492,5592.497135
162.086002,-3034.844362,12213.398043,2451.505594
162.086311,148.041188,11991.336260,0.000000
162.086621,-888.247130,11769.274478,-3524.039291
162.086930,4441.235652,7550.100608,-7431.126331
162.087240,-2220.617826,7328.038826,-2451.505594
162.087549,-2738.761985,14137.933492,5898.935335
162.087859,-1554.432478,11843.295072,4060.306139
162.088169,2886.803174,11029.068536,-2451.505594
162.088478,1850.514855,12065.356855,-1455.581446
162.088788,1110.308913,10066.800811,-6665.030833
162.089097,-0.000000,7179.997637,-9959.241474
162.089407,-888.247130,5255.462188,2834.553343
162.089716,1406.391290,9252.574275,6511.811733
162.090026,-370.102971,10955.047942,2145.067394
162.090335,-1110.308913,11991.336260,1991.848295
162.090645,-666.185348,5995.668130,-5132.839837
162.090954,1924.535449,6069.688724,-11414.822920
162.091264,518.144159,6735.874072,-8273.831378
162.091573,-592.164754,10955.047942,-1991.848295
162.091883,-888.247130,13323.706956,5056.230287
162.092192,4663.297435,12065.356855,7354.516781
162.092502,-2590.720797,13841.851115,3294.210641
162.092812,-2368.659014,11325.150913,-4749.792088
162.093121,-1110.308913,6291.750507,-6511.811733
162.093431,-962.267725,8586.388927,-6511.811733
162.093740,666.185348,12139.377449,-9346.365076
162.094050,-148.041188,16580.613101,-6511.811733
162.094359,-2072.576638,13175.665768,995.924147
162.094669,1776.494261,7624.121203,3524.039291
162.094978,2516.700203,6735.874072,0.000000
162.095288,-2516.700203,4293.194464,5975.544884
162.095597,-3256.906145,3404.947333,6511.811733
162.095907,-740.205942,8660.409521,-2911.162892
162.096216,9030.512492,10658.965565,-10725.336972
162.096526,-1258.350101,15766.386565,-7354.516781
162.096835,1554.432478,12583.501014,-4903.011187
162.097145,-2368.659014,7994.224174,-612.876398
162.097454,-1036.288319,9992.780217,2451.505594
162.097764,1184.329507,5033.400406,229.828649
162.098074,-2072.576638,9030.512492,766.095498
162.098383,-74.020594,7105.977043,3907.087040
162.098693,-0.000000,8364.327145,-2298.286494
162.099002,1776.494261,13397.727550,-4979.620737
162.099312,-3182.885551,14804.118840,-4519.963438
162.099621,-1036.288319,8882.471304,306.438199
162.099931,-1776.494261,13323.706956,612.876398
162.100240,370.102971,13471.748144,-1608.800546
162.100550,2220.617826,9696.697840,-4366.744339
162.100859,-0.000000,5181.441594,842.705048
162.101169,-1332.370696,5995.668130,4136.915689
162.101478,-2368.659014,5329.482782,4136.915689
162.101788,666.185348,11769.274478,-2374.896044
162.102097,2516.700203,10214.842000,-3907.087040
162.102407,-3701.029710,9770.718434,-3064.381992
162.102717,592.164754,10955.047942,-3907.087040
162.103026,518.144159,7772.162391,-4749.792088
162.103336,1406.391290,9548.656652,-12257.527968
162.103645,1628.453072,5033.400406,2987.772442
162.103955,-1628.453072,8512.368333,6435.202183
162.104264,-962.267725,9844.739029,7048.078582
162.104574,1924.535449,12213.398043,-229.828649
162.104883,3552.988522,11399.171507,-7124.688131
162.105193,-1332.370696,9696.697840,-3983.696590
162.105502,-6883.915261,15100.201217,-1072.533697
162.105812,-3552.988522,13323.706956,-3600.648841
162.106121,6809.894666,12805.562797,-2911.162892
162.106431,-1184.329507,10066.800811,-1608.800546
162.106740,-2220.617826,8808.450710,1991.848295
162.107050,-370.102971,9400.615463,2604.724693
162.107360,8068.244768,4885.359217,-383.047749
162.107669,4293.194464,1184.329507,1378.971896
162.107979,-8956.491898,7550.100608,11491.432470
162.108288,-148.041188,10510.924376,5592.497135
162.108598,4589.276840,8438.347739,-12640.575717
162.108907,6217.729913,8290.306550,-9346.365076
162.109217,-4441.235652,5773.606348,3370.820191
162.109526,-4811.338623,7624.121203,3677.258390
162.109836,-2590.720797,13323.706956,-2757.943793
162.110145,5403.503377,13027.624579,-1378.971896
162.110455,1184.329507,11843.295072,-153.219100
162.110764,-2664.741391,11547.212695,153.219100
162.111074,-444.123565,9622.677246,-5362.668486
162.111383,3627.009116,6957.935855,-7277.907231
162.111693,-2294.638420,7920.203579,612.876398
162.112003,-7994.224174,15100.201217,6435.202183
162.112312,4737.318029,10362.883188,-1608.800546
162.112622,4219.173869,3478.967927,-6818.249932
162.112931,-1554.432478,-148.041188,3064.381992
162.113241,-2886.803174,5995.668130,4596.572988
162.113550,148.041188,6291.750507,-3447.429741
162.113860,2886.803174,12953.603985,-3524.039291
162.114169,3108.864956,14804.118840,-306.438199
162.114479,814.226536,11991.336260,-3983.696590
162.114788,740.205942,11399.171507,-3447.429741
162.115098,1850.514855,11695.253884,2681.334243
162.115407,-3552.988522,9548.656652,6052.154434
162.115717,-4737.318029,9622.677246,4290.134789
162.116026,2886.803174,16432.571912,-5439.278036
162.116336,4071.132681,8734.430116,-15015.471761
162.116646,-1110.308913,12583.501014,-6052.154434
162.116955,-2960.823768,12065.356855,7048.078582
162.117265,962.267725,8364.327145,-612.876398
162.117574,-2072.576638,5773.606348,-459.657299
162.117884,-666.185348,10066.800811,6358.592633
162.118193,2072.576638,2368.659014,2987.772442
162.118503,-1554.432478,5847.626942,-5362.668486
162.118812,-518.144159,3404.947333,-3064.381992
162.119122,1850.514855,4885.359217,459.657299
162.119431,1702.473667,10362.883188,-1532.190996
162.119741,-1850.514855,13841.851115,842.705048
162.120050,-2664.741391,16432.571912,1991.848295
162.120360,-666.185348,10807.006753,-2757.943793
162.120669,1998.556043,5107.421000,-7890.783629
162.120979,2368.659014,8216.285956,-5669.106685
162.121288,-740.205942,9474.636058,-2757.943793
162.121598,-7328.038826,7179.997637,4979.620737
162.121908,-1702.473667,13989.892304,7890.783629
162.122217,8068.244768,8290.306550,-4903.011187
162.122527,-740.205942,7402.059420,-4213.525239
162.122836,-5773.606348,6587.832884,7354.516781
162.123146,1110.308913,7994.224174,-1225.752797
162.123455,2886.803174,5995.668130,-10801.946522
162.123765,666.185348,12287.418637,842.705048
162.124074,-3478.967927,10288.862594,2834.553343
162.124384,3108.864956,10732.986159,-3217.601092
162.124693,6957.935855,8882.471304,-2681.334243
162.125003,-2664.741391,14582.057057,4366.744339
162.125313,-7254.018232,11991.336260,1991.848295
162.125622,1110.308913,12139.377449,-995.924147
162.125932,6291.750507,11991.336260,-9193.145976
162.126241,592.164754,12139.377449,-11108.384721
162.126551,-4145.153275,13915.871710,-3524.039291
162.126860,2664.741391,9696.697840,536.266849
162.127170,4293.194464,4219.173869,1225.752797
162.127480,-2072.576638,5107.421000,7737.564530
162.127789,-4589.276840,7624.121203,7737.564530
162.128099,3404.947333,4515.256246,-3983.696590
162.128408,5551.544565,6439.791695,-8886.707777
162.128718,-444.123565,8142.265362,-4903.011187
162.129027,-1406.391290,11399.171507,-4366.744339
162.129337,-592.164754,9844.739029,229.828649
162.129646,3923.091493,13545.768739,6665.030833
162.129956,-8882.471304,15618.345376,6971.469032
162.130266,-2960.823768,13915.871710,-1608.800546
162.130575,3552.988522,9326.594869,-14019.547613
162.130885,4811.338623,6217.729913,-16394.443657
162.131194,-3627.009116,8438.347739,-1532.190996
162.131504,-6587.832884,11177.109724,7124.688131
162.131813,1628.453072,15396.283594,1991.848295
162.132123,8142.265362,6809.894666,1838.629195
162.132432,-2516.700203,1702.473667,2757.943793
162.132742,-3034.844362,296.082377,1072.533697
162.133052,3627.009116,7254.018232,-3907.087040
162.133361,3552.988522,3108.864956,-4519.963438
162.133671,-1258.350101,11029.068536,1455.581446
162.133980,-2886.803174,18653.189738,4596.572988
162.134290,2368.659014,14508.036463,-3064.381992
162.134599,814.226536,10362.883188,-4673.182538
162.134909,-4737.318029,11399.171507,1991.848295
162.135218,-4885.359217,8586.388927,919.314598
162.135528,-666.185348,12583.501014,-6281.983084
162.135838,1184.329507,13397.727550,-8197.221829
162.136147,1998.556043,11177.109724,-3140.991542
162.136457,-296.082377,12435.459826,536.266849
162.136766,2886.803174,7254.018232,0.000000
162.137076,592.164754,6587.832884,4136.915689
162.137385,-2442.679609,2812.782580,7431.126331
162.137695,1554.432478,3404.947333,1225.752797
162.138005,2738.761985,9178.553681,-6128.763984
162.138314,592.164754,5107.421000,-3907.087040
162.138624,-5107.421000,6513.812290,842.705048
162.138933,1036.288319,11917.315666,0.000000
162.139243,2368.659014,15322.262999,-6358.592633
162.139552,-5181.441594,15470.304188,-842.705048
162.139862,-5921.647536,16210.510130,2528.115143
162.140171,1406.391290,12583.501014,-9499.584175
162.140481,-2664.741391,8808.450710,-15858.176809
162.140791,148.041188,9474.636058,-5209.449386
162.141100,666.185348,7698.141797,-919.314598
162.141410,-1332.370696,2516.700203,2528.115143
162.141719,1554.432478,7179.997637,10725.336972
162.142029,2368.659014,6217.729913,4903.011187
162.142338,-962.267725,4219.173869,-2987.772442
162.142648,-1924.535449,962.267725,306.438199
162.142957,1924.535449,9918.759623,-8580.269578
162.143267,-222.061783,9104.533087,-12717.185267
162.143577,-1554.432478,10584.944971,-1532.190996
162.143886,-296.082377,15174.221811,4826.401637
162.144196,-0.000000,16062.468941,-3064.381992
162.144505,-3108.864956,16728.654289,-1455.581446
162.144815,296.082377,8364.327145,2374.896044
162.145124,2738.761985,10214.842000,-8273.831378
162.145434,-5255.462188,9178.553681,-2757.943793
162.145743,-1628.453072,13693.809927,2145.067394
162.146053,5403.503377,10214.842000,-4673.182538
162.146363,6217.729913,5033.400406,-7507.735880
162.146672,-6587.832884,6365.771101,9806.022374
162.146982,-3182.885551,5625.565159,5286.058936
162.147291,6365.771101,-74.020594,-8503.660028
162.147601,3182.885551,4737.318029,-995.924147
162.147910,1554.432478,11473.192101,1915.238745
162.148220,-666.185348,5181.441594,-3830.477490
162.148529,-0.000000,14656.077652,3677.258390
162.148839,-2960.823768,13841.851115,6511.811733
162.149149,2294.638420,19615.457463,-5439.278036
162.149458,-2664.741391,16580.613101,-6818.249932
162.149768,-2886.803174,11991.336260,-4519.963438
162.150077,-2590.720797,15100.201217,-8733.488677
162.150387,-1776.494261,12213.398043,-12410.747068
162.150696,4589.276840,8660.409521,-5975.544884
162.151006,-2516.700203,7846.182985,1762.019645
162.151316,-2812.782580,4663.297435,11338.213370
162.151625,2442.679609,-1850.514855,11414.822920
162.151935,3478.967927,5477.523971,-1685.410096
162.152244,2960.823768,3552.988522,-4979.620737
162.152554,-1924.535449,3478.967927,-2374.896044
162.152863,888.247130,7328.038826,-4596.572988
162.153173,6069.688724,13101.645173,-5975.544884
162.153482,-2368.659014,16432.571912,2987.772442
162.153792,-3478.967927,15692.365970,6435.202183
162.154102,-1332.370696,16062.468941,-612.876398
162.154411,-1036.288319,13989.892304,-3140.991542
162.154721,-2812.782580,11547.212695,-9806.022374
162.155030,-888.247130,15618.345376,-10725.336972
162.155340,1628.453072,12953.603985,-6818.249932
162.155649,222.061783,8512.368333,0.000000
162.155959,-3997.112087,14211.954086,3600.648841
162.156268,3034.844362,7846.182985,4136.915689
162.156578,2664.741391,4737.318029,0.000000
162.156888,5107.421000,-1258.350101,1685.410096
162.157197,1332.370696,2812.782580,919.314598
162.157507,-5255.462188,5551.544565,6588.421283
162.157816,2812.782580,9474.636058,4060.306139
162.158126,5329.482782,9622.677246,153.219100
162.158435,-5847.626942,15766.386565,-383.047749
162.158745,-5551.544565,16950.716072,-3217.601092
162.159054,-370.102971,17542.880825,-14709.033562
162.159364,1702.473667,12879.583391,-15781.567259
162.159674,-3404.947333,10732.986159,-2145.067394
162.159983,-6661.853478,14582.057057,4136.915689
162.160293,-518.144159,12139.377449,459.657299
162.160602,5033.400406,2442.679609,1685.410096
162.160912,1850.514855,7624.121203,2757.943793
162.161221,-0.000000,3923.091493,-1532.190996
162.161531,-592.164754,1554.432478,76.609550
162.161841,3182.885551,5477.523971,1762.019645
162.162150,2368.659014,7402.059420,-3600.648841
162.162460,370.102971,8290.306550,-1915.238745
162.162769,-888.247130,6661.853478,3294.210641
162.163079,1036.288319,11843.295072,-1378.971896
162.163388,-2738.761985,13619.789333,-4979.620737
162.163698,-3775.050304,12509.480420,-4826.401637
162.164007,3404.947333,19023.292709,-8810.098227
162.164317,2072.576638,10584.944971,-7431.126331
162.164627,-4367.215058,8142.265362,1685.410096
162.164936,-2886.803174,12287.418637,7584.345430
162.165246,814.226536,10140.821405,919.314598
162.165555,-222.061783,4663.297435,-2834.553343
162.165865,518.144159,5773.606348,-2221.676944
162.166174,3701.029710,6809.894666,-9499.584175
162.166484,3330.926739,7105.977043,-7737.564530
162.166793,-444.123565,8068.244768,2834.553343
162.167103,3404.947333,5847.626942,7277.907231
162.167413,-6069.688724,9770.718434,6818.249932
162.167722,-0.000000,10510.924376,3140.991542
162.168032,7846.182985,9844.739029,-8350.440928
162.168341,2368.659014,8216.285956,-10878.556072
162.168651,-9474.636058,12509.480420,306.438199
162.168960,-2146.597232,17542.880825,1838.629195
162.169270,8586.388927,11843.295072,-10648.727422
162.169579,1776.494261,10658.965565,-383.047749
162.169889,-7624.121203,16654.633695,11031.775171
162.170199,740.205942,8956.491898,-3064.381992
162.170508,6217.729913,962.267725,-8427.050478
162.170818,296.082377,3108.864956,-1762.019645
162.171127,-1110.308913,3256.906145,2145.067394
162.171437,-3627.009116,7476.080014,3064.381992
162.171746,3552.988522,11251.130318,8120.612279
162.172056,2960.823768,10362.883188,2145.067394
162.172366,1776.494261,11325.150913,-5286.058936
162.172675,-4441.235652,11325.150913,-5056.230287
162.172985,4737.318029,11843.295072,-8580.269578
162.173294,-0.000000,11399.171507,-8044.002729
162.173604,-370.102971,10214.842000,2451.505594
162.173913,-4885.359217,11695.253884,8427.050478
162.174223,-148.041188,7031.956449,1685.410096
162.174532,5403.503377,11843.295072,-5209.449386
162.174842,-0.000000,9178.553681,-1762.019645
162.175152,962.267725,8068.244768,-1072.533697
162.175461,-296.082377,6365.771101,-995.924147
162.175771,-1110.308913,11473.192101,995.924147
162.176080,-0.000000,13915.871710,3064.381992
162.176390,4071.132681,10955.047942,-2451.505594
162.176699,592.164754,10214.842000,-3753.867940
162.177009,1480.411884,7328.038826,842.705048
162.177318,-3034.844362,6957.935855,2681.334243
162.177628,-888.247130,12583.501014,1532.190996
162.177938,1406.391290,11991.336260,-3983.696590
162.178247,666.185348,11029.068536,-4979.620737
162.178557,-2368.659014,10288.862594,-383.047749
162.178866,1406.391290,12287.418637,-2834.553343
162.179176,4663.297435,8068.244768,-6971.469032
162.179485,-2294.638420,7846.182985,-536.266849
162.179795,-6883.915261,6143.709319,7967.393179
162.180104,2442.679609,12509.480420,-1149.143247
162.180414,7031.956449,8068.244768,-7124.688131
162.180724,888.247130,9474.636058,-3830.477490
162.181033,-3552.988522,9844.739029,2911.162892
162.181343,-1258.350101,7846.182985,0.000000
162.181652,3404.947333,7772.162391,-1685.410096
162.181962,3182.885551,15544.324782,-3140.991542
162.182271,-1332.370696,9770.718434,-2374.896044
162.182581,-5181.441594,8734.430116,2145.067394
162.182891,3256.906145,10658.965565,-1302.362347
162.183200,5995.668130,11177.109724,-13100.233016
162.183510,-1554.432478,10362.883188,-7431.126331
162.183819,-6735.874072,9844.739029,6588.421283
162.184129,962.267725,11621.233289,-2068.457845
162.184438,5107.421000,10807.006753,-8733.488677
162.184748,2886.803174,5329.482782,229.828649
162.185057,296.082377,7920.203579,5362.668486
162.185367,-2220.617826,6143.709319,2298.286494
162.185677,2812.782580,7105.977043,-689.485948
162.185986,1036.288319,12657.521608,-5822.325785
162.186296,3034.844362,13101.645173,-6435.202183
162.186605,-3849.070898,8586.388927,-919.314598
162.186915,-5403.503377,11769.274478,-2145.067394
162.187224,4441.235652,9326.594869,-7660.954980
162.187534,666.185348,4071.132681,-5056.230287
162.187843,-1850.514855,4441.235652,5132.839837
162.188153,-370.102971,6143.709319,2528.115143
162.188463,-3404.947333,9844.739029,1149.143247
162.188772,4515.256246,11843.295072,2451.505594
162.189082,8882.471304,13693.809927,-2911.162892
162.189391,-1406.391290,11251.130318,-689.485948
162.189701,-9696.697840,11621.233289,5898.935335
162.190010,-1554.432478,14063.912898,-6818.249932
162.190320,2368.659014,9326.594869,-19228.997000
162.190629,-2294.638420,11621.233289,-9269.755526
162.190939,2368.659014,10584.944971,-995.924147
162.191249,666.185348,4071.132681,-1532.190996
162.191558,-1406.391290,4959.379811,12487.356617
162.191868,740.205942,5625.565159,18539.511052
162.192177,7550.100608,3256.906145,-4136.915689
162.192487,3552.988522,8068.244768,-8427.050478
162.192796,962.267725,11029.068536,-1915.238745
162.193106,4441.235652,11621.233289,-5822.325785
162.193416,1406.391290,13841.851115,-3524.039291
162.193725,-4737.318029,14211.954086,6971.469032
162.194035,-5551.544565,15914.427753,4596.572988
162.194344,-0.000000,10955.047942,-5209.449386
162.194654,4737.318029,12361.439231,-13636.499864
162.194963,-296.082377,10214.842000,-10189.070123
162.195273,-5847.626942,6809.894666,1378.971896
162.195582,-2738.761985,6291.750507,5515.887586
162.195892,888.247130,8142.265362,2298.286494
162.196202,4145.153275,6217.729913,0.000000
162.196511,2368.659014,9918.759623,2834.553343
162.196821,3404.947333,4293.194464,2221.676944
162.197130,3627.009116,1554.432478,-153.219100
162.197440,-2812.782580,5921.647536,1225.752797
162.197749,-74.020594,11473.192101,2374.896044
162.198059,3627.009116,13767.830521,-1608.800546
162.198368,-3256.906145,14878.139434,-536.266849
162.198678,-6957.935855,14508.036463,536.266849
162.198988,814.226536,15988.448347,-7507.735880
162.199297,1850.514855,11991.336260,-13789.718964
162.199607,-1184.329507,10362.883188,-3140.991542
162.199916,-4293.194464,9474.636058,4673.182538
162.200226,962.267725,6883.915261,76.609550
162.200535,3478.967927,8956.491898,1072.533697
162.200845,3923.091493,7105.977043,1608.800546
162.201154,1924.535449,-3256.906145,-229.828649
162.201464,-2220.617826,3256.906145,3830.477490
162.201774,2368.659014,5773.606348,4290.134789
162.202083,2960.823768,10140.821405,-2834.553343
162.202393,-74.020594,13249.686362,-5439.278036
162.202702,-592.164754,12657.521608,-4596.572988
162.203012,-222.061783,15618.345376,-8044.002729
162.203321,-444.123565,10140.821405,-4290.134789
162.203631,-666.185348,11843.295072,-766.095498
162.203941,592.164754,12361.439231,-612.876398
162.204250,-2664.741391,9770.718434,306.438199
162.204560,2886.803174,8882.471304,4060.306139
162.204869,2886.803174,6291.750507,-1072.533697
162.205179,-740.205942,2516.700203,-3753.867940
162.205488,-2664.741391,9548.656652,1685.410096
162.205798,740.205942,6587.832884,383.047749
162.206107,4367.215058,6291.750507,-1991.848295
162.206417,222.061783,13915.871710,-1378.971896
162.206727,222.061783,10214.842000,-2221.676944
162.207036,3182.885551,11473.192101,-1991.848295
162.207346,-5403.503377,7476.080014,1532.190996
162.207655,-3182.885551,8660.409521,-383.047749
162.207965,5181.441594,7772.162391,-5056.230287
162.208274,-1628.453072,5255.462188,-1532.190996
162.208584,-6587.832884,9104.533087,7737.564530
162.208893,-222.061783,14730.098246,3983.696590
162.209203,3923.091493,10362.883188,-12180.918418
162.209513,-0.000000,7550.100608,-1838.629195
162.209822,-5329.482782,7328.038826,6128.763984
162.210132,-222.061783,7476.080014,-2145.067394
162.210441,-1110.308913,12953.603985,-1225.752797
162.210751,1628.453072,10066.800811,2451.505594
162.211060,4071.132681,7772.162391,-2757.943793
162.211370,-2368.659014,7476.080014,-2374.896044
162.211679,-5107.421000,9844.739029,1915.238745
162.211989,3923.091493,9474.636058,-5362.668486
162.212299,4737.318029,6143.709319,-7201.297681
162.212608,-3849.070898,9178.553681,4213.525239
162.212918,-1184.329507,10066.800811,4903.011187
162.213227,1776.494261,8956.491898,-3140.991542
162.213537,-0.000000,10362.883188,0.000000
162.213846,222.061783,12139.377449,1378.971896
162.214156,3627.009116,11547.212695,-7201.297681
162.214465,1998.556043,12583.501014,-5132.839837
162.214775,-1184.329507,11769.274478,3600.648841
162.215085,2072.576638,12287.418637,3677.258390
162.215394,-6291.750507,14285.974681,-842.705048
162.215704,-74.020594,8586.388927,-3294.210641
162.216013,3849.070898,9992.780217,-4826.401637
162.216323,-1406.391290,4811.338623,-4213.525239
162.216632,-1776.494261,5255.462188,2221.676944
162.216942,888.247130,7402.059420,3983.696590
162.217252,-1628.453072,7402.059420,2451.505594
162.217561,-1480.411884,4589.276840,3370.820191
162.217871,-0.000000,10362.883188,1608.800546
162.218180,2294.638420,7920.203579,-7354.516781
162.218490,-2886.803174,6587.832884,-1225.752797
162.218799,-2368.659014,10584.944971,2145.067394
162.219109,3404.947333,14804.118840,-8733.488677
162.219418,-3330.926739,14434.015869,-3524.039291
162.219728,-888.247130,15766.386565,4290.134789
162.220038,2442.679609,15766.386565,-3294.210641
162.220347,2220.617826,9696.697840,-7277.907231
162.220657,1406.391290,3182.885551,383.047749
162.220966,-3404.947333,2368.659014,2987.772442
162.221276,1554.432478,2664.741391,1685.410096
162.221585,2664.741391,5329.482782,459.657299
162.221895,1184.329507,11029.068536,3370.820191
162.222204,370.102971,9474.636058,0.000000
162.222514,-2368.659014,8882.471304,-1915.238745
162.222824,2442.679609,10955.047942,-1762.019645
162.223133,2072.576638,10510.924376,-4979.620737
162.223443,-5921.647536,14656.077652,-1455.581446
162.223752,-0.000000,18579.169144,-766.095498
162.224062,7105.977043,12879.583391,-5669.106685
162.224371,-1776.494261,11769.274478,-2757.943793
162.224681,-4441.235652,8216.285956,5362.668486
162.224990,-3627.009116,9030.512492,-153.219100
162.225300,444.123565,9104.533087,-9116.536426
162.225610,5625.565159,7846.182985,-8350.440928
162.225919,-1480.411884,5625.565159,-1532.190996
162.226229,-2146.597232,5995.668130,-1149.143247
162.226538,518.144159,6365.771101,1302.362347
162.226848,5551.544565,8142.265362,3753.867940
162.227157,5699.585753,2368.659014,3217.601092
162.227467,-5773.606348,6069.688724,6435.202183
162.227776,-4663.297435,12953.603985,5286.058936
162.228086,7698.141797,12953.603985,-13636.499864
162.228395,2072.576638,15174.221811,-13713.109414
162.228705,-7105.977043,11473.192101,4749.792088
162.229015,-1628.453072,14285.974681,-919.314598
162.229324,740.205942,12879.583391,-9959.241474
162.229634,-1924.535449,12361.439231,612.876398
162.229943,-2294.638420,12953.603985,4213.525239
162.230253,2072.576638,2590.720797,-4366.744339
162.230562,-74.020594,5477.523971,-2681.334243
162.230872,-1406.391290,6439.791695,3907.087040
162.231181,4737.318029,1258.350101,1762.019645
162.231491,-3034.844362,8216.285956,5286.058936
162.231800,-1924.535449,11547.212695,6435.202183
162.232110,888.247130,6587.832884,-5439.278036
162.232419,2220.617826,9844.739029,-11184.994271
162.232729,-2664.741391,8216.285956,-2757.943793
162.233039,-5403.503377,5625.565159,-2604.724693
162.233348,-2442.679609,12287.418637,-5975.544884
162.233658,148.041188,13915.871710,-1455.581446
