#time,accel_x,accel_y,accel_z
88.448421,148.041188,9548.656652,-3907.087040
88.448730,296.082377,9770.718434,-536.266849
88.449040,-0.000000,9474.636058,-1072.533697
88.449350,-0.000000,9104.533087,-1072.533697
88.449659,-148.041188,9030.512492,-1302.362347
88.449969,518.144159,10658.965565,383.047749
88.450279,-0.000000,9548.656652,-1149.143247
88.450589,-74.020594,9548.656652,-1532.190996
88.450898,296.082377,9474.636058,-1762.019645
88.451208,-0.000000,9326.594869,-995.924147
88.451518,740.205942,7698.141797,76.609550
88.451827,-0.000000,9770.718434,-1915.238745
88.452137,-0.000000,8808.450710,-1378.971896
88.452447,-0.000000,9844.739029,-1072.533697
88.452757,-1628.453072,8956.491898,-1149.143247
88.453066,-222.061783,9622.677246,-1378.971896
88.453376,222.061783,10066.800811,-1149.143247
88.453686,-0.000000,9030.512492,-1608.800546
88.453996,-0.000000,9622.677246,-1149.143247
88.454305,-3701.029710,10436.903782,153.219100
88.454615,518.144159,9548.656652,-1302.362347
88.454925,-370.102971,9844.739029,-995.924147
88.455234,-222.061783,9622.677246,-1302.362347
88.455544,148.041188,8734.430116,-1991.848295
88.455854,1184.329507,9622.677246,-2834.553343
88.456164,-592.164754,9622.677246,-536.266849
88.456473,296.082377,9548.656652,229.828649
88.456783,296.082377,8956.491898,-383.047749
88.457093,1628.453072,7550.100608,-612.876398
88.457402,1036.288319,8290.306550,-2221.676944
88.457712,-0.000000,8956.491898,-1915.238745
88.458022,592.164754,9844.739029,-612.876398
88.458332,-0.000000,8438.347739,536.266849
88.458641,814.226536,8734.430116,2987.772442
88.458951,1776.494261,6439.791695,459.657299
88.459261,5107.421000,6513.812290,995.924147
88.459571,2368.659014,6439.791695,7967.393179
88.459880,148.041188,6365.771101,13789.718964
88.460190,-814.226536,6143.709319,12410.747068
88.460500,7254.018232,9104.533087,7277.907231
88.460809,4737.318029,5699.585753,1685.410096
88.461119,-1332.370696,8956.491898,8963.317327
88.461429,-4589.276840,12805.562797,12717.185267
88.461739,1702.473667,11473.192101,6665.030833
88.462048,1332.370696,12065.356855,6818.249932
88.462358,-1480.411884,12213.398043,12563.966167
88.462668,-5181.441594,12583.501014,11568.042020
88.462977,-4737.318029,18949.272115,2451.505594
88.463287,11843.295072,9696.697840,-1608.800546
88.463597,888.247130,12657.521608,10955.165621
88.463907,-15470.304188,9696.697840,28728.581175
88.464216,4811.338623,20577.725188,7431.126331
88.464526,-518.144159,6217.729913,-3830.477490
88.464836,1924.535449,12509.480420,995.924147
88.465146,-15100.201217,3997.112087,14938.862211
88.465455,740.205942,12657.521608,4749.792088
88.465765,3775.050304,4293.194464,-612.876398
88.466075,-4737.318029,5551.544565,12640.575717
88.466384,3478.967927,5921.647536,16241.224558
88.466694,-6217.729913,-1258.350101,13330.061665
88.467004,4811.338623,6809.894666,10725.336972
88.467314,-4293.194464,4959.379811,13023.623466
88.467623,1480.411884,7105.977043,-459.657299
88.467933,-2442.679609,8660.409521,3907.087040
88.468243,296.082377,14656.077652,4519.963438
88.468552,6957.935855,11991.336260,1072.533697
88.468862,3478.967927,10955.047942,11491.432470
88.469172,-1406.391290,9844.739029,25204.541884
88.469482,-2368.659014,3701.029710,22140.159892
88.469791,5699.585753,7772.162391,7890.783629
88.470101,296.082377,7328.038826,2451.505594
88.470411,2812.782580,14508.036463,1072.533697
88.470721,3627.009116,13545.768739,-306.438199
88.471030,-0.000000,17987.004391,4519.963438
88.471340,-3034.844362,13175.665768,18079.853753
88.471650,-5847.626942,11695.253884,13253.452115
88.471959,1480.411884,11547.212695,1991.848295
88.472269,3849.070898,8364.327145,-4519.963438
88.472579,2146.597232,8956.491898,-459.657299
88.472889,-2960.823768,9770.718434,14402.595362
88.473198,-1554.432478,11177.109724,15475.129060
88.473508,-0.000000,8734.430116,7124.688131
88.473818,4219.173869,7031.956449,-1838.629195
88.474127,-3849.070898,4293.194464,-76.609550
88.474437,-8438.347739,6883.915261,3294.210641
88.474747,-2368.659014,9844.739029,-4443.353888
88.475057,4663.297435,10658.965565,-13100.233016
88.475366,4737.318029,9770.718434,-6588.421283
88.475676,-1554.432478,6439.791695,7124.688131
88.475986,-6291.750507,7476.080014,15321.909960
88.476295,296.082377,9104.533087,10035.851024
88.476605,5551.544565,8882.471304,-5745.716235
88.476915,-1850.514855,8956.491898,-9193.145976
88.477225,1998.556043,11695.253884,-3907.087040
88.477534,-10955.047942,4959.379811,-4290.134789
88.477844,222.061783,17394.839637,-5898.935335
88.478154,3701.029710,12065.356855,-2604.724693
88.478464,4737.318029,9400.615463,-383.047749
88.478773,-1998.556043,2516.700203,8580.269578
88.479083,-7105.977043,1924.535449,15245.300410
88.479393,12213.398043,3627.009116,1225.752797
88.479702,2072.576638,-666.185348,-6128.763984
88.480012,-1924.535449,11621.233289,459.657299
88.480322,-1480.411884,7105.977043,2451.505594
88.480632,7105.977043,12213.398043,-11951.089769
88.480941,6365.771101,13693.809927,-3447.429741
88.481251,-1998.556043,8956.491898,11721.261119
88.481561,-1924.535449,8290.306550,13559.890315
88.481870,1702.473667,9474.636058,4213.525239
88.482180,3256.906145,11325.150913,-4749.792088
88.482490,-444.123565,11769.274478,-4673.182538
88.482800,-1332.370696,16876.695478,-1762.019645
88.483109,-0.000000,19837.519246,-8273.831378
88.483419,2664.741391,17690.922014,-12257.527968
88.483729,-0.000000,14804.118840,2911.162892
88.484039,-5773.606348,11917.315666,15475.129060
88.484348,-2072.576638,6957.935855,11261.603821
88.484658,4071.132681,7772.162391,229.828649
88.484968,1924.535449,8290.306550,-5669.106685
88.485277,-3478.967927,11769.274478,-4290.134789
88.485587,-2886.803174,12509.480420,-2528.115143
88.485897,2738.761985,13841.851115,-7890.783629
88.486207,4219.173869,13397.727550,-5975.544884
88.486516,-9622.677246,3849.070898,13406.671215
88.486826,-8512.368333,-148.041188,21757.112143
88.487136,4293.194464,-4441.235652,1302.362347
88.487445,5625.565159,3330.926739,-12793.794817
88.487755,-7328.038826,8142.265362,2987.772442
88.488065,-3923.091493,14582.057057,2911.162892
88.488375,11103.089130,13545.768739,-17926.634653
88.488684,6735.874072,11991.336260,-9499.584175
88.488994,-9844.739029,6957.935855,19458.825649
88.489304,-10066.800811,2812.782580,24361.836836
88.489614,4737.318029,2368.659014,1302.362347
88.489923,3701.029710,2960.823768,-2451.505594
88.490233,-1036.288319,12287.418637,-1072.533697
88.490543,-1110.308913,12657.521608,-6665.030833
88.490852,6069.688724,17838.963202,-13023.623466
88.491162,6809.894666,17838.963202,-5286.058936
88.491472,-3997.112087,11843.295072,6511.811733
88.491782,-5921.647536,9252.574275,17313.758255
88.492091,-1332.370696,7105.977043,9346.365076
88.492401,2146.597232,9178.553681,-8503.660028
88.492711,814.226536,9474.636058,-10189.070123
88.493020,-3923.091493,13767.830521,-8503.660028
88.493330,3552.988522,16580.613101,-12104.308868
88.493640,6365.771101,16876.695478,-13023.623466
88.493950,-4811.338623,12879.583391,3983.696590
88.494259,-8660.409521,8882.471304,15704.957709
88.494569,518.144159,1776.494261,4366.744339
88.494879,5995.668130,-518.144159,-14249.376263
88.495189,-1702.473667,2960.823768,-9269.755526
88.495498,-1998.556043,9030.512492,-4136.915689
88.495808,4737.318029,11769.274478,-10572.117872
88.496118,8364.327145,12287.418637,-8427.050478
88.496427,-1998.556043,9992.780217,8733.488677
88.496737,-3997.112087,1332.370696,14709.033562
88.497047,1702.473667,-0.000000,3524.039291
88.497357,1850.514855,1036.288319,-6052.154434
88.497666,1850.514855,8438.347739,-7890.783629
88.497976,-2146.597232,12657.521608,-9806.022374
88.498286,3923.091493,17024.736666,-13636.499864
88.498595,13323.706956,16284.530724,-13789.718964
88.498905,-888.247130,11769.274478,1762.019645
88.499215,-7105.977043,7920.203579,19688.654299
88.499525,-2516.700203,3923.091493,13253.452115
88.499834,9326.594869,4589.276840,-9806.022374
88.500144,4663.297435,7550.100608,-8886.707777
88.500454,-3701.029710,10732.986159,-5209.449386
88.500763,592.164754,13397.727550,-9882.631924
88.501073,5921.647536,16654.633695,-11568.042020
88.501383,2146.597232,14582.057057,306.438199
88.501693,-6735.874072,9770.718434,15858.176809
88.502002,-4811.338623,5403.503377,12487.356617
88.502312,1554.432478,2960.823768,-2681.334243
88.502622,-740.205942,6661.853478,-9652.803275
88.502932,-6587.832884,8364.327145,-3983.696590
88.503241,814.226536,15026.180623,-9422.974625
88.503551,8660.409521,17320.819043,-16854.100956
88.503861,-2664.741391,15174.221811,-1072.533697
88.504170,-11621.233289,12213.398043,22293.378992
88.504480,-2146.597232,2960.823768,16930.710506
88.504790,6809.894666,-1628.453072,-7048.078582
88.505100,-2442.679609,-148.041188,-1378.971896
88.505409,-6291.750507,6883.915261,5669.106685
88.505719,-0.000000,10658.965565,-7967.393179
88.505959,12287.418637,17616.901420,-17466.977354
88.506268,370.102971,17616.901420,536.266849
88.506578,-11547.212695,10658.965565,20914.407095
88.506887,-2738.761985,5995.668130,16471.053207
88.507197,2738.761985,1332.370696,-1455.581446
88.507506,1480.411884,4145.153275,-6205.373534
88.507816,-6513.812290,9178.553681,-1762.019645
88.508125,-1184.329507,14730.098246,-8503.660028
88.508435,11917.315666,21169.889941,-15321.909960
88.508744,4145.153275,15470.304188,-4903.011187
88.509054,-8808.450710,10214.842000,18616.120601
88.509363,-7920.203579,4737.318029,22140.159892
88.509673,6217.729913,2738.761985,-306.438199
88.509982,1554.432478,2738.761985,-9346.365076
88.510292,-4441.235652,9178.553681,-3600.648841
88.510601,-2886.803174,12731.542202,-6435.202183
88.510911,8586.388927,16506.592507,-16011.395908
88.511220,5403.503377,19097.313304,-4443.353888
88.511530,-8808.450710,13545.768739,15398.519510
88.511839,-8734.430116,7698.141797,19612.044749
88.512149,-148.041188,4219.173869,-306.438199
88.512458,2294.638420,5699.585753,-12793.794817
88.512768,-6365.771101,9474.636058,-10035.851024
88.513077,-1258.350101,15174.221811,-9269.755526
88.513387,10732.986159,15692.365970,-18692.730151
88.513696,5255.462188,14137.933492,-6128.763984
88.514006,-8438.347739,9474.636058,20531.359346
88.514315,-6957.935855,3701.029710,22063.550342
88.514625,5773.606348,-1776.494261,-1532.190996
88.514934,3775.050304,-1036.288319,-9729.412825
88.515244,-2812.782580,2664.741391,-2681.334243
88.515553,2294.638420,11769.274478,-2145.067394
88.515863,7476.080014,13841.851115,-12947.013916
88.516172,7179.997637,15026.180623,-6588.421283
88.516482,-2442.679609,12287.418637,12793.794817
88.516791,-8808.450710,7772.162391,22216.769442
88.517101,888.247130,5403.503377,6281.983084
88.517410,5847.626942,8290.306550,-11951.089769
88.517720,-518.144159,10066.800811,-12870.404366
88.518029,-2812.782580,15174.221811,-9039.926876
88.518339,6291.750507,17246.798449,-15168.690860
88.518648,5847.626942,20059.581028,-10265.679673
88.518958,-3108.864956,15396.283594,12334.137518
88.519267,-4515.256246,8142.265362,21144.235745
88.519577,-592.164754,592.164754,6435.202183
88.519886,4441.235652,-370.102971,-4519.963438
88.520196,-2368.659014,1776.494261,-8656.879127
88.520505,-962.267725,8956.491898,-10648.727422
88.520815,4811.338623,14285.974681,-11874.480219
88.521124,1776.494261,16506.592507,-5975.544884
88.521434,-3256.906145,13915.871710,7048.078582
88.521743,-8586.388927,8142.265362,18692.730151
88.522053,-5921.647536,4293.194464,8886.707777
88.522362,2812.782580,4071.132681,-9499.584175
88.522672,-814.226536,6143.709319,-15168.690860
88.522981,-6883.915261,13323.706956,-8963.317327
88.523291,6661.853478,18653.189738,-13406.671215
88.523600,9770.718434,17172.777854,-14249.376263
88.523910,-6587.832884,13323.706956,12717.185267
88.524219,-9030.512492,7105.977043,28268.923876
88.524529,1184.329507,-962.267725,6358.592633
88.524838,6143.709319,-1332.370696,-10342.289223
88.525148,-0.000000,5403.503377,-4366.744339
88.525457,-2738.761985,8512.368333,-7124.688131
88.525767,6587.832884,15322.262999,-14172.766713
88.526076,6217.729913,17616.901420,-4903.011187
88.526386,-1406.391290,15396.283594,9499.584175
88.526695,-8290.306550,10436.903782,19458.825649
88.527005,-6069.688724,6735.874072,16547.662757
88.527314,7105.977043,5847.626942,-9269.755526
88.527624,2294.638420,6957.935855,-17620.196454
88.527933,-6217.729913,12213.398043,-7201.297681
88.528243,2960.823768,16728.654289,-7048.078582
88.528552,11251.130318,20281.642811,-13406.671215
88.528862,-1776.494261,14582.057057,4519.963438
88.529171,-12213.398043,8216.285956,26889.951980
88.529481,-740.205942,1110.308913,13176.842566
88.529790,5107.421000,-2072.576638,-11644.651570
88.530100,370.102971,2294.638420,-11491.432470
88.530409,-6735.874072,7698.141797,-3983.696590
88.530719,3478.967927,12731.542202,-9806.022374
88.531028,5403.503377,15322.262999,-7584.345430
88.531338,2072.576638,17468.860231,5056.230287
88.531647,-8512.368333,9548.656652,18079.853753
88.531957,-6143.709319,3923.091493,9039.926876
88.532266,1998.556043,4219.173869,-6665.030833
88.532576,-666.185348,7402.059420,-14862.252661
88.532885,-1850.514855,11991.336260,-13176.842566
88.533195,3552.988522,15100.201217,-11721.261119
88.533504,8956.491898,16580.613101,-9422.974625
88.533814,-740.205942,14211.954086,7124.688131
88.534123,-6439.791695,7179.997637,22523.207641
88.534433,-3478.967927,740.205942,12257.527968
88.534742,5255.462188,740.205942,-10418.898773
88.535051,7550.100608,3775.050304,-15321.909960
88.535361,-814.226536,7402.059420,-8120.612279
88.535670,1850.514855,13471.748144,-6971.469032
88.535980,5773.606348,13619.789333,-3830.477490
88.536289,3627.009116,14952.160028,3907.087040
88.536599,-7105.977043,10362.883188,16547.662757
88.536908,-5773.606348,6809.894666,14096.157163
88.537218,4589.276840,9326.594869,-8120.612279
88.537527,4737.318029,6587.832884,-24668.275036
88.537837,-4293.194464,11103.089130,-14555.814462
88.538146,-1850.514855,13767.830521,-5362.668486
88.538456,6809.894666,14656.077652,-11568.042020
88.538765,2442.679609,17320.819043,1838.629195
88.539075,-5625.565159,7994.224174,20607.968896
88.539384,-7402.059420,-0.000000,14709.033562
88.539694,6069.688724,-2146.597232,-8044.002729
88.540003,1776.494261,-1776.494261,-13866.328514
88.540313,-5107.421000,7476.080014,-6205.373534
88.540622,1924.535449,11473.192101,-4903.011187
88.540932,7402.059420,13767.830521,-9499.584175
88.541241,-0.000000,14508.036463,4749.792088
88.541551,-7254.018232,12953.603985,17696.806004
88.541860,-7402.059420,2294.638420,10342.289223
88.542170,2738.761985,4367.215058,-7507.735880
88.542479,740.205942,6439.791695,-15398.519510
88.542789,-4959.379811,10955.047942,-11414.822920
88.543098,962.267725,18135.045579,-7277.907231
88.543408,5329.482782,16876.695478,-9806.022374
88.543717,2368.659014,16062.468941,842.705048
88.544027,-7328.038826,9030.512492,17926.634653
88.544336,-3849.070898,4293.194464,11031.775171
88.544646,5181.441594,888.247130,-6358.592633
88.544955,4737.318029,1924.535449,-12027.699319
88.545265,-2368.659014,8068.244768,-5898.935335
88.545574,-2664.741391,10807.006753,-1608.800546
88.545884,7105.977043,14952.160028,-6511.811733
88.546193,2294.638420,15322.262999,-2911.162892
88.546503,-5625.565159,10436.903782,15475.129060
88.546812,-6143.709319,7254.018232,14709.033562
88.547122,962.267725,6513.812290,-9499.584175
88.547431,4885.359217,7994.224174,-16777.491406
88.547741,-10510.924376,10362.883188,-5975.544884
88.548050,-1850.514855,13471.748144,-4673.182538
88.548360,6735.874072,17987.004391,-13942.938064
88.548669,1554.432478,18283.086767,-5898.935335
88.548979,-6143.709319,10214.842000,17773.415554
88.549288,-5329.482782,3108.864956,14632.424012
88.549598,5921.647536,-666.185348,-4903.011187
88.549907,5033.400406,-296.082377,-7967.393179
88.550217,-4737.318029,3182.885551,-383.047749
88.550526,444.123565,9104.533087,-1072.533697
88.550836,10140.821405,15988.448347,-8580.269578
88.551145,6957.935855,15692.365970,-4826.401637
88.551455,-4293.194464,12361.439231,11491.432470
88.551764,-10510.924376,6661.853478,19918.482948
88.552074,1332.370696,5477.523971,0.000000
88.552383,7772.162391,8216.285956,-15781.567259
88.552693,-4737.318029,11843.295072,-8427.050478
88.553002,-3552.988522,16062.468941,-1072.533697
88.553312,8586.388927,21169.889941,-13176.842566
88.553621,9030.512492,18949.272115,-11031.775171
88.553931,-7846.182985,13767.830521,12487.356617
88.554240,-4515.256246,3997.112087,19765.263848
88.554550,2960.823768,1036.288319,1225.752797
88.554859,4959.379811,1702.473667,-8733.488677
88.555169,-1406.391290,3478.967927,-2068.457845
88.555478,-1998.556043,8808.450710,-842.705048
88.555788,5921.647536,11843.295072,-6588.421283
88.556097,5995.668130,13397.727550,-9576.193725
88.556407,-3404.947333,10955.047942,4749.792088
88.556716,-12361.439231,7698.141797,16624.272307
88.557026,-1110.308913,4145.153275,5822.325785
88.557335,5255.462188,7105.977043,-14249.376263
88.557645,-4589.276840,10881.027347,-8886.707777
88.557954,-5921.647536,14656.077652,-1302.362347
88.558264,4293.194464,14508.036463,-11951.089769
88.558573,5329.482782,15396.283594,-14555.814462
88.558883,-5255.462188,10436.903782,8580.269578
88.559192,-10362.883188,6587.832884,18692.730151
88.559502,3552.988522,4145.153275,2221.676944
88.559811,5847.626942,1184.329507,-7354.516781
88.560121,-4145.153275,1036.288319,-2681.334243
88.560430,-3923.091493,8956.491898,-383.047749
88.560740,4737.318029,11251.130318,-9576.193725
88.561049,9844.739029,13619.789333,-10189.070123
88.561359,-1850.514855,11103.089130,7124.688131
88.561668,-6439.791695,7254.018232,17160.539155
88.561978,-3404.947333,5107.421000,8580.269578
88.562287,5329.482782,8882.471304,-8656.879127
88.562597,3034.844362,11029.068536,-11874.480219
88.562906,-7328.038826,12879.583391,-4979.620737
88.563216,4367.215058,17838.963202,-10801.946522
88.563525,10955.047942,16654.633695,-17007.320056
88.563835,-2590.720797,12657.521608,842.705048
88.564144,-7994.224174,8734.430116,16164.615008
88.564454,-0.000000,1850.514855,8886.707777
88.564763,6365.771101,-0.000000,-7201.297681
88.565073,-2220.617826,1554.432478,-2221.676944
88.565382,-3034.844362,5921.647536,-1991.848295
88.565692,6217.729913,10066.800811,-11644.651570
88.566001,9178.553681,13545.768739,-11338.213370
88.566311,296.082377,11843.295072,4290.134789
88.566620,-5995.668130,9918.759623,17466.977354
88.566930,-3256.906145,7105.977043,10878.556072
88.567239,1480.411884,5329.482782,-4366.744339
88.567549,-2442.679609,10584.944971,-7814.174080
88.567858,-4515.256246,10288.862594,-7354.516781
88.568167,4885.359217,15766.386565,-16547.662757
88.568477,10362.883188,16654.633695,-15781.567259
88.568786,-3775.050304,15544.324782,3370.820191
88.569096,-8660.409521,10658.965565,20378.140247
88.569405,-296.082377,4293.194464,10878.556072
88.569715,6513.812290,592.164754,-3524.039291
88.570024,-3627.009116,1998.556043,-2145.067394
88.570334,-3775.050304,7031.956449,-2374.896044
88.570643,3775.050304,7846.182985,-12947.013916
88.570953,11695.253884,15840.407159,-14862.252661
88.571262,1702.473667,11769.274478,-4060.306139
88.571572,-8142.265362,9622.677246,20531.359346
88.571881,-3701.029710,7994.224174,16164.615008
88.572191,2368.659014,4737.318029,-3983.696590
88.572500,2072.576638,8882.471304,-10418.898773
88.572810,-4885.359217,10288.862594,-9269.755526
88.573119,148.041188,15396.283594,-14172.766713
88.573429,10066.800811,21169.889941,-16547.662757
88.573738,1776.494261,16802.674883,-2604.724693
88.574048,-7179.997637,7476.080014,15321.909960
88.574357,-4071.132681,5699.585753,16624.272307
88.574667,3108.864956,74.020594,-2298.286494
88.574976,-0.000000,1924.535449,-5822.325785
88.575286,-1110.308913,7550.100608,-4519.963438
88.575595,2590.720797,11325.150913,-11568.042020
88.575905,11177.109724,13471.748144,-15245.300410
88.576214,2368.659014,13989.892304,-459.657299
88.576524,-9326.594869,10362.883188,17850.025103
88.576833,-5847.626942,8068.244768,18769.339701
88.577143,2442.679609,4737.318029,-1838.629195
88.577452,1110.308913,5625.565159,-12104.308868
88.577762,-3256.906145,9918.759623,-9652.803275
88.578071,-3775.050304,13175.665768,-9882.631924
88.578381,10362.883188,19171.333898,-12257.527968
88.578690,6291.750507,18209.066173,-8197.221829
88.579000,-11547.212695,8068.244768,14325.985813
88.579309,-7254.018232,7179.997637,21757.112143
88.579619,1554.432478,2294.638420,306.438199
88.579928,2664.741391,2294.638420,-8044.002729
88.580238,-2886.803174,6587.832884,-5056.230287
88.580547,-370.102971,8808.450710,-8503.660028
88.580857,6957.935855,11547.212695,-13406.671215
88.581166,6735.874072,14878.139434,-1302.362347
88.581476,-7476.080014,11917.315666,16624.272307
88.581785,-5921.647536,8290.306550,22063.550342
88.582095,-0.000000,5255.462188,2911.162892
88.582404,1554.432478,5181.441594,-11414.822920
88.582714,962.267725,12583.501014,-16547.662757
88.583023,-5181.441594,11917.315666,-11721.261119
88.583333,5847.626942,18949.272115,-11951.089769
88.583642,7550.100608,18357.107362,-6358.592633
88.583952,-5255.462188,11621.233289,12104.308868
88.584261,-7698.141797,7105.977043,20684.578446
88.584571,-1850.514855,-74.020594,5515.887586
88.584880,4737.318029,1406.391290,-10878.556072
88.585190,-1406.391290,5107.421000,-10572.117872
88.585499,-740.205942,9696.697840,-11644.651570
88.585809,7179.997637,10584.944971,-11491.432470
88.586118,6883.915261,13545.768739,-3753.867940
88.586428,-4219.173869,10140.821405,15628.348159
88.586737,-6661.853478,7772.162391,24515.055936
88.587047,-1480.411884,2146.597232,6588.421283
88.587356,5033.400406,5625.565159,-11797.870669
88.587666,2146.597232,11621.233289,-14249.376263
88.587975,-4219.173869,10732.986159,-12487.356617
88.588285,5699.585753,18357.107362,-8656.879127
88.588594,8142.265362,20429.683999,-9269.755526
88.588904,-4589.276840,12287.418637,9422.974625
88.589213,-6809.894666,7846.182985,24744.884585
88.589523,-3404.947333,1184.329507,9576.193725
88.589832,6143.709319,6291.750507,-13942.938064
88.590142,2960.823768,7328.038826,-13330.061665
88.590451,-1406.391290,7328.038826,-10342.289223
88.590761,5699.585753,11547.212695,-9116.536426
88.591070,7476.080014,14063.912898,-4749.792088
88.591380,-2812.782580,9992.780217,10035.851024
88.591689,-8660.409521,8290.306550,25817.418283
88.591999,-2368.659014,888.247130,10572.117872
88.592308,6143.709319,2072.576638,-11414.822920
88.592618,3627.009116,9474.636058,-13253.452115
88.592927,-7179.997637,10955.047942,-8350.440928
88.593237,5107.421000,17394.839637,-10189.070123
88.593546,7994.224174,18875.251521,-10801.946522
88.593856,-4441.235652,15618.345376,6741.640382
88.594165,-15248.242405,11917.315666,21757.112143
88.594475,-3849.070898,3849.070898,7124.688131
88.594784,5033.400406,3034.844362,-10878.556072
88.595094,1998.556043,6661.853478,-11338.213370
88.595403,-1924.535449,8438.347739,-6971.469032
88.595713,2960.823768,10732.986159,-8656.879127
88.596022,7328.038826,14952.160028,-2987.772442
88.596332,-1924.535449,10214.842000,8197.221829
88.596641,-7624.121203,6439.791695,21527.283494
88.596951,-3108.864956,-1776.494261,15475.129060
88.597260,3404.947333,4367.215058,-9806.022374
88.597570,2590.720797,10066.800811,-16011.395908
88.597879,-5921.647536,11695.253884,-9193.145976
88.598189,1406.391290,17616.901420,-8273.831378
88.598498,8068.244768,17838.963202,-9193.145976
88.598808,-592.164754,13693.809927,2528.115143
88.599117,-10288.862594,8586.388927,21910.331243
88.599427,-3034.844362,4145.153275,13023.623466
88.599736,4737.318029,2886.803174,-7124.688131
88.600046,3108.864956,7105.977043,-11338.213370
88.600355,518.144159,7846.182985,-9806.022374
88.600665,2368.659014,9030.512492,-7124.688131
88.600974,10436.903782,15840.407159,-4903.011187
88.601284,-3108.864956,9178.553681,6281.983084
88.601593,-7402.059420,8956.491898,21450.673944
88.601902,-3627.009116,3404.947333,14709.033562
88.602212,3256.906145,2590.720797,-9039.926876
88.602521,5995.668130,10066.800811,-15704.957709
88.602831,-4811.338623,9918.759623,-6818.249932
88.603140,148.041188,15100.201217,-6205.373534
88.603450,10510.924376,19319.375086,-10112.460574
88.603759,-222.061783,15100.201217,1072.533697
88.604069,-11843.295072,10214.842000,19535.435199
88.604378,-5255.462188,5847.626942,12257.527968
88.604688,6143.709319,3256.906145,-8503.660028
88.604997,4441.235652,5995.668130,-12410.747068
88.605307,-1628.453072,7179.997637,-6205.373534
88.605616,296.082377,8956.491898,-3753.867940
88.605926,7698.141797,14211.954086,-3830.477490
88.606235,-1184.329507,11843.295072,3064.381992
88.606545,-7772.162391,10140.821405,15781.567259
88.606854,-4885.359217,5773.606348,14785.643111
88.607164,4367.215058,4071.132681,-10189.070123
88.607473,3256.906145,10066.800811,-14249.376263
88.607783,-4811.338623,10140.821405,-5822.325785
88.608092,296.082377,14508.036463,-4979.620737
88.608402,5625.565159,16580.613101,-8503.660028
88.608711,2812.782580,11917.315666,229.828649
88.609021,-10510.924376,7920.203579,17620.196454
88.609330,-3627.009116,4885.359217,13023.623466
88.609640,4219.173869,2294.638420,-7584.345430
88.609950,3404.947333,4293.194464,-10725.336972
88.610259,-2072.576638,7402.059420,-4979.620737
88.610569,-1406.391290,9474.636058,-4443.353888
88.610878,6587.832884,14582.057057,-7354.516781
88.611188,2368.659014,14063.912898,-5439.278036
88.611497,-6513.812290,11547.212695,13713.109414
88.611807,-3997.112087,8956.491898,14249.376263
88.612116,2368.659014,3997.112087,-5822.325785
88.612426,4959.379811,8734.430116,-12793.794817
88.612735,-2516.700203,9474.636058,-5286.058936
88.613045,-1554.432478,12879.583391,-4290.134789
88.613354,8586.388927,14952.160028,-8886.707777
88.613664,4885.359217,13693.809927,-4366.744339
88.613973,-8956.491898,10288.862594,15858.176809
88.614283,-5773.606348,6439.791695,15015.471761
88.614592,2146.597232,1332.370696,-4519.963438
88.614902,2442.679609,2368.659014,-11261.603821
88.615211,-222.061783,9548.656652,-6358.592633
88.615521,-2738.761985,11621.233289,-5209.449386
88.615830,5625.565159,13027.624579,-6511.811733
88.616140,1998.556043,13767.830521,0.000000
88.616449,-6291.750507,11029.068536,10725.336972
88.616759,-5255.462188,7624.121203,12180.918418
88.617068,518.144159,6513.812290,-3140.991542
88.617378,4737.318029,8364.327145,-13176.842566
88.617687,-1628.453072,8734.430116,-8886.707777
88.617997,-4145.153275,11917.315666,-3830.477490
88.618307,5625.565159,13545.768739,-7354.516781
88.618616,4885.359217,13471.748144,-5362.668486
88.618926,-6809.894666,9252.574275,11644.651570
88.619235,-6809.894666,6513.812290,17160.539155
88.619545,518.144159,4885.359217,-459.657299
88.619854,6957.935855,6735.874072,-13866.328514
88.620164,370.102971,8290.306550,-8120.612279
88.620473,-5255.462188,10214.842000,-1072.533697
88.620783,5773.606348,13989.892304,-5592.497135
88.621092,4811.338623,13545.768739,-5745.716235
88.621402,-5699.585753,13175.665768,8963.317327
88.621711,-7328.038826,9030.512492,17620.196454
88.622021,1850.514855,5033.400406,-1149.143247
88.622330,4737.318029,7254.018232,-12180.918418
88.622640,-1924.535449,8290.306550,-7737.564530
88.622949,-4589.276840,9104.533087,-4673.182538
88.623259,6587.832884,14211.954086,-10342.289223
88.623568,5255.462188,14211.954086,-9499.584175
88.623878,-4811.338623,11103.089130,9116.536426
88.624187,-5773.606348,7179.997637,20531.359346
88.624497,962.267725,3256.906145,4673.182538
88.624806,6291.750507,3108.864956,-8656.879127
88.625116,1406.391290,7254.018232,-7277.907231
88.625425,-5181.441594,7179.997637,-4443.353888
88.625735,6217.729913,14137.933492,-7584.345430
88.626044,7105.977043,14656.077652,-9193.145976
88.626354,-4441.235652,11991.336260,4749.792088
88.626664,-7179.997637,10140.821405,17850.025103
88.626973,-592.164754,4811.338623,4060.306139
88.627283,5551.544565,5699.585753,-11414.822920
88.627592,-0.000000,10732.986159,-7431.126331
88.627902,-5329.482782,8142.265362,-3064.381992
88.628211,5699.585753,12953.603985,-9269.755526
88.628521,9696.697840,13545.768739,-10189.070123
88.628830,-4293.194464,9844.739029,6128.763984
88.629140,-10066.800811,8586.388927,21450.673944
88.629449,148.041188,4145.153275,7660.954980
88.629759,5477.523971,3627.009116,-9882.631924
88.630068,666.185348,7920.203579,-7354.516781
88.630378,-6217.729913,8512.368333,-1378.971896
88.630687,3552.988522,12879.583391,-7048.078582
88.630997,8660.409521,16062.468941,-10418.898773
88.631306,-4219.173869,10362.883188,3983.696590
88.631616,-8290.306550,12213.398043,18462.901502
88.631925,-888.247130,9474.636058,5822.325785
88.632235,3108.864956,6661.853478,-10878.556072
88.632544,-1332.370696,9474.636058,-10418.898773
88.632854,-6217.729913,9104.533087,-3907.087040
88.633163,1924.535449,11473.192101,-9039.926876
88.633473,9030.512492,14656.077652,-12410.747068
88.633782,-2590.720797,12435.459826,1838.629195
88.634092,-6735.874072,9400.615463,21374.064394
88.634401,-2146.597232,4663.297435,14479.204912
88.634711,5921.647536,-370.102971,-8197.221829
88.635021,2738.761985,1406.391290,-12563.966167
88.635330,-6069.688724,6957.935855,-1685.410096
88.635640,-222.061783,12361.439231,-2451.505594
88.635949,9326.594869,15174.221811,-13023.623466
88.636259,1480.411884,13767.830521,-2451.505594
88.636568,-10658.965565,13545.768739,19152.387450
88.636878,-4293.194464,9622.677246,14019.547613
88.637187,5181.441594,7105.977043,-10342.289223
88.637497,1332.370696,10955.047942,-10418.898773
88.637806,-3849.070898,9548.656652,-4673.182538
88.638116,962.267725,11917.315666,-9959.241474
88.638425,7994.224174,15544.324782,-13406.671215
88.638735,370.102971,12435.459826,0.000000
88.639044,-7105.977043,10510.924376,17850.025103
88.639354,-2368.659014,3775.050304,15628.348159
88.639663,5921.647536,666.185348,-842.705048
88.639973,3849.070898,740.205942,-9039.926876
88.640282,-3330.926739,5699.585753,-3830.477490
88.640592,-666.185348,11251.130318,-3294.210641
88.640901,9474.636058,14137.933492,-11031.775171
88.641211,-370.102971,18357.107362,-6205.373534
88.641520,-9918.759623,13989.892304,15858.176809
88.641830,-4663.297435,11547.212695,16011.395908
88.642139,3701.029710,6365.771101,-7584.345430
88.642449,3701.029710,9622.677246,-15015.471761
88.642758,-6439.791695,9104.533087,-4749.792088
88.643068,-1998.556043,10140.821405,-7277.907231
88.643378,8586.388927,13915.871710,-14325.985813
88.643687,2294.638420,14359.995275,-1225.752797
88.643997,-5329.482782,12065.356855,20148.311597
88.644306,-3182.885551,3627.009116,16547.662757
88.644616,4219.173869,592.164754,-2528.115143
88.644925,3997.112087,-1110.308913,-9729.412825
88.645235,-4959.379811,4959.379811,-6818.249932
88.645544,-1480.411884,10732.986159,-2451.505594
88.645854,7772.162391,16062.468941,-10418.898773
88.646163,5551.544565,15248.242405,-5822.325785
88.646473,-7254.018232,16210.510130,12180.918418
88.646782,-8364.327145,8586.388927,18922.558801
88.647092,-296.082377,3775.050304,-2068.457845
88.647401,6291.750507,10066.800811,-13559.890315
88.647711,-3923.091493,8660.409521,-9346.365076
88.648020,-3627.009116,10584.944971,-5669.106685
88.648330,9474.636058,13027.624579,-9729.412825
88.648639,5181.441594,14730.098246,-6052.154434
88.648949,-4885.359217,11177.109724,14709.033562
88.649258,-5773.606348,5329.482782,19918.482948
88.649568,2368.659014,1850.514855,689.485948
88.649877,5107.421000,2072.576638,-9882.631924
88.650187,-2886.803174,3997.112087,-7507.735880
88.650496,-3552.988522,7994.224174,-3753.867940
88.650806,6735.874072,15248.242405,-8886.707777
88.651115,5255.462188,14878.139434,-6205.373534
88.651425,-6143.709319,15544.324782,11108.384721
88.651734,-7624.121203,9548.656652,17466.977354
88.652044,-296.082377,7031.956449,-153.219100
88.652354,6661.853478,8438.347739,-13406.671215
88.652663,-4071.132681,8660.409521,-14096.157163
88.652973,-4441.235652,9844.739029,-7354.516781
88.653282,6069.688724,15766.386565,-9882.631924
88.653592,4737.318029,13619.789333,-5822.325785
88.653901,-4737.318029,11769.274478,12257.527968
88.654211,-7031.956449,7328.038826,20224.921147
88.654520,2220.617826,2146.597232,3447.429741
88.654830,6661.853478,666.185348,-12717.185267
88.655139,-962.267725,3330.926739,-9269.755526
88.655449,-5847.626942,9474.636058,-2374.896044
88.655758,4811.338623,13619.789333,-4903.011187
88.656068,4959.379811,17616.901420,-7890.783629
88.656377,-3256.906145,17912.983796,5745.716235
88.656687,-8364.327145,9622.677246,16011.395908
88.656996,-740.205942,7994.224174,-1685.410096
88.657306,7179.997637,8216.285956,-15015.471761
88.657615,-2516.700203,9474.636058,-11644.651570
88.657925,-6365.771101,10066.800811,-2911.162892
88.658234,3256.906145,12065.356855,-9729.412825
88.658544,6661.853478,13841.851115,-7507.735880
88.658853,-1332.370696,10807.006753,9499.584175
88.659163,-7179.997637,5477.523971,18462.901502
88.659472,1184.329507,-296.082377,3217.601092
88.659782,10066.800811,-0.000000,-9193.145976
88.660091,-2812.782580,3478.967927,-7201.297681
88.660401,-4811.338623,9030.512492,-383.047749
88.660711,4515.256246,13397.727550,-7660.954980
88.661020,7476.080014,14508.036463,-10495.508323
88.661330,-888.247130,18209.066173,3677.258390
88.661639,-9844.739029,11843.295072,15475.129060
88.661949,-1110.308913,7698.141797,3217.601092
88.662258,7550.100608,7031.956449,-12793.794817
88.662568,1258.350101,7550.100608,-8733.488677
88.662877,-6365.771101,10955.047942,-842.705048
88.663187,2146.597232,14137.933492,-4826.401637
88.663496,9178.553681,14656.077652,-11797.870669
88.663806,-1850.514855,10732.986159,2374.896044
88.664115,-6069.688724,5921.647536,18616.120601
88.664425,1110.308913,1332.370696,5669.106685
88.664734,8882.471304,518.144159,-10495.508323
88.665044,-148.041188,4367.215058,-5669.106685
88.665353,-6957.935855,7105.977043,3830.477490
88.665663,1480.411884,10732.986159,-2834.553343
88.665972,8660.409521,16062.468941,-11261.603821
88.666282,-518.144159,14804.118840,-306.438199
88.666591,-7698.141797,13027.624579,13483.280765
88.666901,-4589.276840,8660.409521,8044.002729
88.667210,5921.647536,7476.080014,-10572.117872
88.667520,-148.041188,8586.388927,-10955.165621
88.667829,-8438.347739,9030.512492,-153.219100
88.668139,-74.020594,12657.521608,-2374.896044
88.668448,6291.750507,15396.283594,-9499.584175
88.668758,370.102971,13397.727550,-306.438199
88.669068,-7031.956449,8512.368333,13789.718964
88.669377,-2368.659014,3182.885551,6818.249932
88.669687,9844.739029,-296.082377,-4979.620737
88.669996,-2146.597232,2442.679609,-6894.859482
88.670306,-7476.080014,7105.977043,6052.154434
88.670615,740.205942,11917.315666,-766.095498
88.670925,8364.327145,14804.118840,-12870.404366
88.671234,-148.041188,14730.098246,-1838.629195
88.671544,-6883.915261,11473.192101,12180.918418
88.671853,-2220.617826,9178.553681,6358.592633
88.672163,3701.029710,9104.533087,-8197.221829
88.672472,-518.144159,9178.553681,-9269.755526
88.672782,-6513.812290,9400.615463,-229.828649
88.673091,-1480.411884,13841.851115,-3677.258390
88.673401,5995.668130,15470.304188,-11414.822920
88.673710,3182.885551,12879.583391,-3830.477490
88.674020,-6069.688724,10066.800811,16088.005458
88.674329,-3034.844362,5699.585753,9116.536426
88.674639,8586.388927,1406.391290,-6435.202183
88.674948,1036.288319,1924.535449,-5515.887586
88.675258,-8216.285956,5921.647536,6358.592633
88.675567,592.164754,9696.697840,1762.019645
88.675877,9400.615463,12287.418637,-12487.356617
88.676186,2294.638420,14656.077652,-6052.154434
88.676496,-5033.400406,11917.315666,10495.508323
88.676805,-4885.359217,8956.491898,5439.278036
88.677115,5181.441594,9178.553681,-9346.365076
88.677425,888.247130,9474.636058,-8120.612279
88.677734,-6957.935855,10584.944971,1378.971896
88.678044,-2664.741391,13249.686362,-3064.381992
88.678353,6143.709319,14285.974681,-18386.291952
88.678663,5699.585753,14211.954086,-6511.811733
88.678972,-4589.276840,9918.759623,9422.974625
88.679282,-3849.070898,5107.421000,11184.994271
88.679591,5477.523971,2516.700203,-2451.505594
88.679901,4441.235652,-1110.308913,-4673.182538
88.680210,-8512.368333,4441.235652,4979.620737
88.680520,-4367.215058,8808.450710,4903.011187
88.680829,7994.224174,13323.706956,-12717.185267
88.681139,6291.750507,15544.324782,-14096.157163
88.681448,-4589.276840,13693.809927,6818.249932
88.681758,-6143.709319,10214.842000,12257.527968
88.682067,1628.453072,8586.388927,-3294.210641
88.682377,2220.617826,9400.615463,-9422.974625
88.682686,-7698.141797,12139.377449,-1608.800546
88.682996,-3997.112087,11843.295072,-1838.629195
88.683305,6439.791695,14730.098246,-13023.623466
88.683615,7254.018232,14359.995275,-9806.022374
88.683924,-4959.379811,9622.677246,10572.117872
88.684234,-3182.885551,4441.235652,13176.842566
88.684543,4219.173869,-740.205942,2374.896044
88.684853,2664.741391,1110.308913,-3447.429741
88.685162,-5847.626942,3701.029710,2911.162892
88.685472,-3256.906145,5033.400406,-1302.362347
88.685782,6809.894666,11769.274478,-11644.651570
88.686091,7920.203579,14878.139434,-15551.738609
88.686401,-2294.638420,13101.645173,1378.971896
88.686710,-8290.306550,11473.192101,13636.499864
88.687020,-666.185348,9030.512492,4136.915689
88.687329,3627.009116,10807.006753,-6588.421283
88.687639,-4071.132681,9918.759623,-2068.457845
88.687948,-6217.729913,10881.027347,-1149.143247
88.688258,3330.926739,16580.613101,-14402.595362
88.688567,8290.306550,13693.809927,-14709.033562
88.688877,-444.123565,10584.944971,1608.800546
88.689186,-5551.544565,6661.853478,14862.252661
88.689496,1998.556043,1554.432478,6665.030833
88.689805,1406.391290,-296.082377,383.047749
88.690115,-5329.482782,3701.029710,4213.525239
88.690424,-5107.421000,6957.935855,3753.867940
88.690734,6735.874072,11621.233289,-12410.747068
88.691043,9252.574275,14878.139434,-17313.758255
88.691353,-4367.215058,14582.057057,1302.362347
88.691662,-6439.791695,12361.439231,14096.157163
88.691972,592.164754,9474.636058,5669.106685
88.692281,2442.679609,7179.997637,-3447.429741
88.692591,-1776.494261,8364.327145,-1762.019645
88.692900,-7031.956449,9770.718434,-3677.258390
88.693210,3849.070898,12213.398043,-14172.766713
88.693519,7772.162391,15840.407159,-15551.738609
88.693829,-74.020594,13249.686362,-612.876398
88.694139,-5847.626942,9474.636058,14632.424012
88.694448,-222.061783,2072.576638,9499.584175
88.694758,4293.194464,-370.102971,-1455.581446
88.695067,-3182.885551,2738.761985,2374.896044
88.695377,-7920.203579,7031.956449,6128.763984
88.695686,4737.318029,9992.780217,-10189.070123
88.695996,11399.171507,12805.562797,-18462.901502
88.696305,-814.226536,15988.448347,-3447.429741
88.696615,-9252.574275,11177.109724,14019.547613
88.696924,-1850.514855,9474.636058,8580.269578
88.697234,2294.638420,7698.141797,-4213.525239
88.697543,-2146.597232,9400.615463,-3370.820191
88.697853,-5625.565159,9030.512492,-1685.410096
88.698162,814.226536,12879.583391,-12487.356617
88.698472,10881.027347,14656.077652,-17466.977354
88.698781,1702.473667,13619.789333,-2911.162892
88.699091,-6365.771101,10881.027347,14632.424012
88.699400,-148.041188,4589.276840,12257.527968
88.699710,6439.791695,-74.020594,-1149.143247
88.700019,-1850.514855,2294.638420,-229.828649
88.700329,-7994.224174,6217.729913,6281.983084
88.700638,3775.050304,9474.636058,-8350.440928
88.700948,12953.603985,13323.706956,-21986.940793
88.701257,1554.432478,14804.118840,-4826.401637
88.701567,-7994.224174,12731.542202,15628.348159
88.701876,962.267725,10362.883188,10189.070123
88.702186,2442.679609,6291.750507,-2374.896044
88.702495,-3404.947333,7698.141797,-1532.190996
88.702805,-6291.750507,8956.491898,-1991.848295
88.703115,-0.000000,13249.686362,-12870.404366
88.703424,10510.924376,16654.633695,-18233.072852
88.703734,4737.318029,15988.448347,-6435.202183
88.704043,-6809.894666,7994.224174,16854.100956
88.704353,-4367.215058,2960.823768,17466.977354
88.704662,6217.729913,-1998.556043,766.095498
88.704972,-296.082377,-0.000000,-3370.820191
88.705281,-9252.574275,4885.359217,4903.011187
88.705591,592.164754,10510.924376,-4903.011187
88.705900,11843.295072,15840.407159,-22140.159892
88.706210,2294.638420,17542.880825,-9806.022374
88.706519,-9178.553681,14211.954086,13330.061665
88.706829,-3701.029710,9030.512492,14785.643111
88.707138,4367.215058,7846.182985,-2145.067394
88.707448,-1406.391290,7994.224174,-3524.039291
88.707757,-5625.565159,9992.780217,-459.657299
88.708067,-2220.617826,10362.883188,-7660.954980
88.708376,8290.306550,12509.480420,-13483.280765
88.708686,5477.523971,15100.201217,-7507.735880
88.708995,-4737.318029,9474.636058,9806.022374
88.709305,-6365.771101,3997.112087,16011.395908
88.709615,3701.029710,1480.411884,2068.457845
88.709924,2442.679609,962.267725,-7201.297681
88.710234,-9326.594869,6365.771101,4290.134789
88.710543,-3256.906145,11843.295072,1685.410096
88.710853,11177.109724,12657.521608,-18309.682402
88.711162,7994.224174,12435.459826,-16011.395908
88.711472,-7179.997637,13397.727550,12104.308868
88.711781,-6957.935855,10140.821405,17543.586904
88.712091,3627.009116,7328.038826,229.828649
88.712400,2072.576638,6735.874072,-5822.325785
88.712710,-6439.791695,7476.080014,-842.705048
88.713019,-5847.626942,9400.615463,-4903.011187
88.713329,7179.997637,16062.468941,-15934.786358
88.713638,10066.800811,17468.860231,-15245.300410
88.713948,-2738.761985,11621.233289,6128.763984
88.714257,-7328.038826,5477.523971,19305.606550
88.714567,2294.638420,444.123565,6358.592633
88.714877,2368.659014,-814.226536,-6511.811733
88.715186,-4441.235652,4737.318029,2911.162892
88.715496,-4737.318029,11029.068536,1991.848295
88.715805,10658.965565,14952.160028,-16471.053207
88.716115,11029.068536,15248.242405,-15934.786358
88.716424,-5403.503377,14063.912898,7507.735880
88.716734,-8216.285956,9400.615463,17083.929605
88.717043,1776.494261,6439.791695,2145.067394
88.717353,1332.370696,6587.832884,-6665.030833
88.717662,-5255.462188,10584.944971,-2528.115143
88.717972,-5551.544565,11917.315666,-2987.772442
88.718281,4959.379811,16506.592507,-12257.527968
88.718591,9474.636058,16950.716072,-15015.471761
88.718900,-444.123565,12065.356855,3677.258390
88.719210,-9104.533087,5107.421000,19305.606550
88.719519,888.247130,1184.329507,7967.393179
88.719829,6439.791695,666.185348,-6128.763984
88.720139,-5255.462188,4515.256246,2528.115143
88.720448,-7550.100608,8216.285956,5439.278036
88.720758,6957.935855,10807.006753,-14402.595362
88.721067,12805.562797,12583.501014,-20914.407095
88.721377,-3701.029710,11917.315666,3524.039291
88.721686,-9474.636058,8882.471304,15168.690860
88.721996,1998.556043,7550.100608,2911.162892
88.722305,1776.494261,7698.141797,-5515.887586
88.722615,-7994.224174,10881.027347,-306.438199
88.722924,-6365.771101,10510.924376,-1225.752797
88.723234,6439.791695,13545.768739,-14325.985813
88.723543,9844.739029,16506.592507,-16547.662757
88.723853,1110.308913,14285.974681,1302.362347
88.724162,-8216.285956,7179.997637,15168.690860
88.724472,-962.267725,1406.391290,9346.365076
88.724781,3775.050304,-222.061783,-3217.601092
88.725091,-3997.112087,4441.235652,76.609550
88.725401,-7994.224174,8586.388927,-2374.896044
88.725710,7402.059420,13397.727550,-12334.137518
88.726020,12583.501014,15544.324782,-19382.216099
88.726329,-1406.391290,14582.057057,-612.876398
88.726639,-8808.450710,10658.965565,16547.662757
88.726948,-0.000000,7698.141797,7431.126331
88.727258,3256.906145,8660.409521,-4060.306139
88.727567,-3849.070898,9770.718434,76.609550
88.727877,-6513.812290,10214.842000,306.438199
88.728186,4663.297435,15988.448347,-15015.471761
88.728496,9992.780217,14285.974681,-18156.463303
88.728805,1332.370696,10881.027347,-2604.724693
88.729115,-9844.739029,7550.100608,15321.909960
88.729424,-3478.967927,814.226536,11414.822920
88.729734,3552.988522,1702.473667,-4443.353888
88.730043,-3997.112087,5551.544565,-1072.533697
88.730353,-6957.935855,8068.244768,4519.963438
88.730663,5255.462188,12213.398043,-8350.440928
88.730972,11325.150913,14285.974681,-18922.558801
88.731282,-74.020594,15174.221811,-3447.429741
88.731591,-10658.965565,11843.295072,13559.890315
88.731901,-2590.720797,7402.059420,6588.421283
88.732210,2812.782580,7550.100608,-4366.744339
88.732520,-3627.009116,11251.130318,306.438199
88.732829,-7179.997637,9030.512492,-689.485948
88.733139,2886.803174,12805.562797,-9959.241474
88.733448,10955.047942,13397.727550,-18079.853753
88.733758,3182.885551,12583.501014,-6511.811733
88.734067,-6513.812290,9696.697840,13789.718964
88.734377,-3997.112087,3552.988522,13942.938064
88.734686,6217.729913,1554.432478,229.828649
88.734996,-2072.576638,5773.606348,-1838.629195
88.735305,-8438.347739,8216.285956,4749.792088
88.735615,1702.473667,12657.521608,-6588.421283
88.735925,13693.809927,15248.242405,-21297.454844
88.736234,2886.803174,14582.057057,-11797.870669
88.736544,-9326.594869,12805.562797,11797.870669
88.736853,-3552.988522,9474.636058,9499.584175
88.737163,3552.988522,5107.421000,-2145.067394
88.737472,1480.411884,9400.615463,-3370.820191
88.737782,-7624.121203,11251.130318,2911.162892
88.738091,296.082377,10066.800811,-5209.449386
88.738401,11843.295072,13101.645173,-16241.224558
88.738710,6143.709319,13027.624579,-11338.213370
88.739020,-7328.038826,9326.594869,10035.851024
88.739329,-5921.647536,1924.535449,15475.129060
88.739639,5329.482782,4811.338623,1149.143247
88.739948,1776.494261,3034.844362,-3217.601092
88.740258,-7624.121203,6069.688724,6358.592633
88.740567,-1184.329507,9622.677246,-459.657299
88.740877,10436.903782,13693.809927,-18769.339701
88.741187,2664.741391,15322.262999,-12027.699319
88.741496,-7476.080014,11843.295072,6894.859482
88.741806,-3478.967927,10436.903782,10725.336972
88.742115,1480.411884,10732.986159,0.000000
88.742425,1110.308913,9104.533087,-1532.190996
88.742734,-6217.729913,10362.883188,4443.353888
88.743044,-1998.556043,10732.986159,-3140.991542
88.743353,7920.203579,12065.356855,-16624.272307
88.743663,7328.038826,12583.501014,-12793.794817
88.743972,-4663.297435,9844.739029,4519.963438
88.744282,-5477.523971,4071.132681,14019.547613
88.744591,296.082377,3775.050304,5209.449386
88.744901,814.226536,2664.741391,-229.828649
88.745210,-5699.585753,5255.462188,3140.991542
88.745520,-3404.947333,6809.894666,-919.314598
88.745829,8660.409521,15174.221811,-16317.834107
88.746139,8068.244768,14211.954086,-15704.957709
88.746449,-6069.688724,14878.139434,2911.162892
88.746758,-7031.956449,8364.327145,9959.241474
88.747068,-518.144159,6365.771101,4443.353888
88.747377,148.041188,8142.265362,-1149.143247
88.747687,-6957.935855,9252.574275,2987.772442
88.747996,-1850.514855,11843.295072,-3524.039291
88.748306,7624.121203,12583.501014,-20991.016645
88.748615,8808.450710,11103.089130,-18233.072852
88.748925,-4589.276840,11325.150913,5822.325785
88.749234,-4737.318029,5551.544565,17313.758255
88.749544,2812.782580,4071.132681,7431.126331
88.749853,3775.050304,4663.297435,1225.752797
88.750163,-7698.141797,4811.338623,5822.325785
88.750472,-3627.009116,10066.800811,-1302.362347
88.750782,8808.450710,14285.974681,-19918.482948
88.751091,7254.018232,13989.892304,-23136.084040
88.751401,-3182.885551,14359.995275,2911.162892
88.751711,-5403.503377,12361.439231,12257.527968
88.752020,2072.576638,8512.368333,4290.134789
88.752330,-740.205942,7994.224174,842.705048
88.752639,-5551.544565,7994.224174,7048.078582
88.752949,-2072.576638,8364.327145,-3064.381992
88.753258,6735.874072,12287.418637,-18922.558801
88.753568,7402.059420,13915.871710,-18233.072852
88.753877,-518.144159,11399.171507,0.000000
88.754187,-6217.729913,5995.668130,13559.890315
88.754496,-0.000000,4145.153275,10878.556072
88.754806,2072.576638,3330.926739,3753.867940
88.755115,-5403.503377,3701.029710,4136.915689
88.755425,-1184.329507,4811.338623,-2298.286494
88.755734,7328.038826,12287.418637,-14325.985813
88.756044,7772.162391,14730.098246,-20607.968896
88.756353,-666.185348,14656.077652,-2987.772442
88.756663,-7994.224174,13323.706956,11108.384721
88.756973,-1628.453072,10066.800811,6205.373534
88.757282,1702.473667,9918.759623,842.705048
88.757592,-5921.647536,9030.512492,2834.553343
88.757901,-3256.906145,11843.295072,-1838.629195
88.758211,7476.080014,10066.800811,-18156.463303
88.758520,7624.121203,11695.253884,-19458.825649
88.758830,1480.411884,11325.150913,-1225.752797
88.759139,-4885.359217,6809.894666,13789.718964
88.759449,-2220.617826,3627.009116,12870.404366
88.759758,5107.421000,1554.432478,6052.154434
88.760068,-2368.659014,4219.173869,919.314598
88.760377,-7920.203579,5995.668130,1149.143247
88.760687,4515.256246,11399.171507,-11184.994271
88.760996,12361.439231,15322.262999,-25357.760984
88.761306,518.144159,15840.407159,-9806.022374
88.761616,-9400.615463,12731.542202,14785.643111
88.761925,-3849.070898,10436.903782,11951.089769
88.762235,3552.988522,10436.903782,-2298.286494
88.762544,-4145.153275,10066.800811,-1915.238745
88.762854,-4293.194464,11325.150913,-229.828649
88.763163,5107.421000,11177.109724,-15704.957709
88.763473,9548.656652,9474.636058,-21833.721693
88.763782,3404.947333,7031.956449,-1838.629195
88.764092,-7624.121203,3701.029710,18462.901502
88.764401,-2146.597232,2738.761985,15934.786358
88.764711,5625.565159,3997.112087,3600.648841
88.765020,-2664.741391,3478.967927,-229.828649
88.765330,-9474.636058,7550.100608,2451.505594
88.765639,3701.029710,11917.315666,-10112.460574
88.765949,13175.665768,15914.427753,-25281.151434
88.766258,444.123565,14211.954086,-8810.098227
88.766568,-10658.965565,13693.809927,17083.929605
88.766878,-2590.720797,9474.636058,10418.898773
88.767187,2960.823768,7402.059420,0.000000
88.767497,-2886.803174,10288.862594,3294.210641
88.767806,-7105.977043,10732.986159,2451.505594
88.768116,3775.050304,12139.377449,-15934.786358
88.768425,8364.327145,11843.295072,-24055.398637
88.768735,3256.906145,13027.624579,-9269.755526
88.769044,-6291.750507,8438.347739,9959.241474
88.769354,-4885.359217,4367.215058,17007.320056
88.769663,2664.741391,4219.173869,9346.365076
88.769973,-962.267725,2294.638420,536.266849
88.770282,-7402.059420,4663.297435,1991.848295
88.770592,1554.432478,9400.615463,-5898.935335
88.770901,12139.377449,14211.954086,-22829.645840
88.771211,4589.276840,14804.118840,-17160.539155
88.771520,-9770.718434,14359.995275,12717.185267
88.771830,-4515.256246,9918.759623,16471.053207
88.772140,888.247130,8068.244768,306.438199
88.772449,-1628.453072,11621.233289,-1762.019645
88.772759,-8068.244768,12287.418637,2068.457845
88.773068,4071.132681,11473.192101,-14862.252661
88.773378,10584.944971,13249.686362,-25817.418283
88.773687,4515.256246,13027.624579,-9959.241474
88.773997,-5255.462188,7105.977043,15858.176809
88.774306,-3775.050304,2664.741391,17083.929605
88.774616,4293.194464,2812.782580,10342.289223
88.774925,518.144159,1998.556043,4596.572988
88.775235,-4663.297435,2516.700203,2145.067394
88.775544,-1480.411884,9030.512492,-5209.449386
88.775854,11029.068536,13989.892304,-20761.187996
88.776163,8142.265362,14878.139434,-18309.682402
88.776473,-5921.647536,13693.809927,5515.887586
88.776782,-8808.450710,11399.171507,19075.777900
88.777092,740.205942,10732.986159,6435.202183
88.777402,148.041188,10288.862594,-3064.381992
88.777711,-6513.812290,12509.480420,-612.876398
88.778021,1110.308913,11399.171507,-9116.536426
88.778330,10362.883188,10807.006753,-22829.645840
88.778640,7179.997637,11621.233289,-14402.595362
88.778949,-3256.906145,7920.203579,9652.803275
88.779259,-7846.182985,2294.638420,20531.359346
88.779568,1702.473667,4885.359217,12563.966167
88.779878,3330.926739,3552.988522,2604.724693
88.780187,-5551.544565,2960.823768,153.219100
88.780497,-2146.597232,7624.121203,-4290.134789
88.780806,8586.388927,12583.501014,-17696.806004
88.781116,7105.977043,16062.468941,-19228.997000
88.781425,-6217.729913,15470.304188,3524.039291
88.781735,-9918.759623,13175.665768,16011.395908
88.782044,-888.247130,11769.274478,5669.106685
88.782354,296.082377,11251.130318,-2987.772442
88.782664,-6809.894666,9474.636058,2451.505594
88.782973,-592.164754,10214.842000,-5132.839837
88.783283,8660.409521,10362.883188,-21603.893044
88.783592,7402.059420,7550.100608,-14172.766713
88.783902,-6883.915261,8364.327145,10265.679673
88.784211,-9030.512492,2664.741391,18003.244203
88.784521,3182.885551,2368.659014,9959.241474
88.784830,1480.411884,3997.112087,842.705048
88.785140,-6439.791695,4515.256246,153.219100
88.785449,-4145.153275,7402.059420,-4290.134789
88.785759,10288.862594,11843.295072,-19228.997000
88.786068,9696.697840,14656.077652,-20378.140247
88.786378,-5773.606348,12435.459826,4213.525239
88.786687,-8882.471304,10658.965565,21067.626195
88.786997,1480.411884,8734.430116,10189.070123
88.787306,2072.576638,11547.212695,-2374.896044
88.787616,-6513.812290,12583.501014,1378.971896
88.787926,-1332.370696,12731.542202,-7048.078582
88.788235,9326.594869,12213.398043,-23595.741338
88.788545,8290.306550,12879.583391,-18999.168350
88.788854,-3923.091493,11917.315666,4060.306139
88.789164,-5181.441594,6217.729913,16164.615008
88.789473,1036.288319,3404.947333,12563.966167
88.789783,4885.359217,1628.453072,3983.696590
88.790092,-2368.659014,3849.070898,3140.991542
88.790402,-2442.679609,6439.791695,-536.266849
88.790711,9326.594869,11473.192101,-13789.718964
88.791021,6809.894666,14582.057057,-21297.454844
88.791330,-3552.988522,15026.180623,-1915.238745
88.791640,-9992.780217,8364.327145,17007.320056
88.791949,-592.164754,10510.924376,10265.679673
88.792259,2590.720797,10732.986159,-1378.971896
88.792568,-5329.482782,14656.077652,2604.724693
88.792878,-2738.761985,11991.336260,-1762.019645
88.793188,5699.585753,10658.965565,-18156.463303
88.793497,9030.512492,11029.068536,-20148.311597
88.793807,-3108.864956,9770.718434,-2221.676944
88.794116,-8586.388927,7994.224174,13253.452115
88.794426,-370.102971,3923.091493,12180.918418
88.794735,5847.626942,3404.947333,2987.772442
88.795045,-2220.617826,4663.297435,1532.190996
88.795354,-7402.059420,4589.276840,2911.162892
88.795664,2738.761985,8734.430116,-8044.002729
88.795973,11917.315666,10732.986159,-21144.235745
88.796283,1406.391290,12213.398043,-7660.954980
88.796592,-8882.471304,10658.965565,14096.157163
88.796902,-1332.370696,9770.718434,12334.137518
88.797211,4293.194464,11473.192101,-1378.971896
88.797521,-4737.318029,12879.583391,-1378.971896
88.797830,-4811.338623,13101.645173,-2451.505594
88.798140,3330.926739,12287.418637,-17237.148705
88.798450,9400.615463,13619.789333,-22369.988542
88.798759,1258.350101,13693.809927,-4060.306139
88.799069,-8290.306550,9178.553681,16930.710506
88.799378,-1036.288319,5477.523971,14709.033562
88.799688,5551.544565,2812.782580,7124.688131
88.799997,518.144159,4071.132681,2528.115143
88.800307,-5699.585753,3849.070898,3447.429741
88.800616,3108.864956,8068.244768,-9346.365076
88.800926,11843.295072,10436.903782,-20378.140247
88.801235,3330.926739,10510.924376,-9422.974625
88.801545,-8734.430116,8956.491898,12563.966167
88.801854,-5477.523971,7994.224174,16241.224558
88.802164,4885.359217,9474.636058,4213.525239
88.802473,-518.144159,13397.727550,-536.266849
88.802783,-6365.771101,12953.603985,-995.924147
88.803092,2368.659014,13397.727550,-12947.013916
88.803402,8734.430116,13545.768739,-23825.569988
88.803712,2886.803174,13249.686362,-9959.241474
88.804021,-4811.338623,9696.697840,12717.185267
88.804331,-4811.338623,5255.462188,16854.100956
88.804640,4811.338623,3034.844362,6358.592633
88.804950,2590.720797,1850.514855,4136.915689
88.805259,-7105.977043,3182.885551,6052.154434
88.805569,592.164754,8068.244768,-4596.572988
88.805878,9474.636058,11177.109724,-18999.168350
88.806188,5477.523971,13693.809927,-15704.957709
88.806497,-6957.935855,11251.130318,5822.325785
88.806807,-5921.647536,11251.130318,16777.491406
88.807116,1998.556043,12583.501014,4366.744339
88.807426,-0.000000,13767.830521,-1838.629195
88.807735,-6143.709319,13693.809927,1915.238745
88.808045,1184.329507,12065.356855,-8427.050478
88.808354,9252.574275,9178.553681,-23442.522239
88.808664,3701.029710,11251.130318,-13023.623466
88.808974,-3627.009116,10658.965565,7507.735880
88.809283,-4737.318029,4293.194464,13330.061665
88.809592,370.102971,3182.885551,8733.488677
88.809902,2294.638420,888.247130,6358.592633
88.810211,-6439.791695,2516.700203,4060.306139
88.810521,-1258.350101,6957.935855,-4060.306139
88.810830,10436.903782,9622.677246,-20454.749797
88.811140,5699.585753,12435.459826,-19305.606550
88.811449,-4663.297435,13397.727550,4903.011187
88.811758,-7105.977043,12657.521608,16700.881856
88.812068,3478.967927,12361.439231,7048.078582
88.812377,1554.432478,12435.459826,536.266849
88.812687,-8216.285956,9918.759623,3677.258390
88.812996,666.185348,9622.677246,-6281.983084
88.813306,7624.121203,10436.903782,-23289.303139
88.813615,6883.915261,14211.954086,-18845.949251
88.813924,-2960.823768,9918.759623,5975.544884
88.814234,-6143.709319,7550.100608,13253.452115
88.814543,1702.473667,5921.647536,9499.584175
88.814853,5403.503377,4071.132681,5975.544884
88.815162,-3552.988522,1184.329507,3677.258390
88.815472,-4071.132681,3552.988522,919.314598
88.815781,7550.100608,8808.450710,-12180.918418
88.816091,9326.594869,9474.636058,-20837.797546
88.816400,-1554.432478,13767.830521,-1762.019645
88.816709,-8956.491898,10510.924376,19612.044749
88.817019,1258.350101,9918.759623,11031.775171
88.817328,3627.009116,12805.562797,-3677.258390
88.817638,-7179.997637,12435.459826,612.876398
88.817947,-5477.523971,13471.748144,-3217.601092
88.818257,7920.203579,12435.459826,-22599.817191
88.818566,7624.121203,10881.027347,-21680.502593
88.818875,-4515.256246,14063.912898,1608.800546
88.819185,-5551.544565,9030.512492,16088.005458
88.819494,1332.370696,2368.659014,11031.775171
88.819804,2442.679609,4515.256246,7584.345430
88.820113,-2664.741391,2886.803174,6665.030833
88.820423,-5773.606348,4293.194464,-536.266849
88.820732,5477.523971,8882.471304,-14632.424012
88.821041,7476.080014,10140.821405,-22216.769442
88.821351,-296.082377,10436.903782,-7201.297681
88.821660,-9548.656652,8882.471304,13713.109414
88.821970,-3849.070898,10807.006753,14402.595362
88.822279,3404.947333,13841.851115,919.314598
88.822589,-2516.700203,14730.098246,-4519.963438
88.822898,-4811.338623,12435.459826,-4060.306139
88.823208,7179.997637,12139.377449,-18309.682402
88.823517,8290.306550,10288.862594,-21910.331243
88.823826,74.020594,12287.418637,-1991.848295
88.824136,-5551.544565,8438.347739,16624.272307
88.824445,-1628.453072,4737.318029,14402.595362
88.824755,3997.112087,4145.153275,7048.078582
88.825064,-1850.514855,5255.462188,4366.744339
88.825374,-5773.606348,6143.709319,-1532.190996
88.825683,2368.659014,9178.553681,-16088.005458
88.825992,11843.295072,10288.862594,-22982.864940
88.826302,666.185348,11695.253884,-7354.516781
88.826611,-8660.409521,10658.965565,15245.300410
88.826921,-2886.803174,12657.521608,16854.100956
88.827230,5033.400406,10807.006753,2987.772442
88.827540,-3478.967927,8438.347739,383.047749
88.827849,-3849.070898,11473.192101,76.609550
88.828158,4441.235652,10658.965565,-16394.443657
88.828468,7476.080014,10807.006753,-24668.275036
88.828777,1776.494261,14137.933492,-5515.887586
88.829087,-6291.750507,10436.903782,13483.280765
88.829396,-3404.947333,5033.400406,15245.300410
88.829706,4737.318029,4885.359217,7737.564530
88.830015,-1776.494261,4145.153275,2911.162892
88.830325,-4589.276840,4663.297435,-306.438199
88.830634,3997.112087,7179.997637,-11644.651570
88.830943,10362.883188,11251.130318,-23289.303139
88.831253,2960.823768,14137.933492,-10418.898773
88.831562,-8512.368333,12805.562797,13866.328514
88.831872,-5551.544565,11399.171507,18692.730151
88.832181,3627.009116,9178.553681,5822.325785
88.832491,-2664.741391,7994.224174,2374.896044
88.832800,-4737.318029,12435.459826,-1149.143247
88.833109,3108.864956,11991.336260,-17620.196454
88.833419,6587.832884,11547.212695,-26966.561530
88.833728,3330.926739,13693.809927,-9039.926876
88.834038,-6587.832884,11251.130318,12793.794817
88.834347,-5033.400406,5995.668130,16700.881856
88.834657,2442.679609,4737.318029,10112.460574
88.834966,-444.123565,4145.153275,2145.067394
88.835275,-5921.647536,3108.864956,0.000000
88.835585,3034.844362,4885.359217,-8120.612279
88.835894,12139.377449,10140.821405,-21910.331243
88.836204,5625.565159,11103.089130,-12793.794817
88.836513,-9178.553681,12287.418637,13483.280765
88.836823,-6661.853478,8660.409521,22982.864940
88.837132,4663.297435,9918.759623,5286.058936
88.837441,-1628.453072,10288.862594,-3294.210641
88.837751,-8142.265362,11103.089130,-1608.800546
88.838060,3997.112087,11251.130318,-14172.766713
88.838370,7846.182985,9178.553681,-25664.199183
88.838679,4811.338623,15840.407159,-12793.794817
88.838989,-7772.162391,12139.377449,11184.994271
88.839298,-5699.585753,8216.285956,18616.120601
88.839608,2886.803174,5995.668130,12640.575717
88.839917,4663.297435,3775.050304,1455.581446
88.840226,-4959.379811,4663.297435,-689.485948
88.840536,370.102971,5921.647536,-7201.297681
88.840845,8364.327145,6661.853478,-19612.044749
88.841155,6957.935855,9918.759623,-16088.005458
88.841464,-5625.565159,12361.439231,7354.516781
88.841774,-9548.656652,10214.842000,19075.777900
88.842083,3182.885551,10140.821405,8427.050478
88.842392,444.123565,9770.718434,-3830.477490
88.842702,-7920.203579,10436.903782,-689.485948
88.843011,-444.123565,14211.954086,-8886.707777
88.843321,8512.368333,10362.883188,-24438.446386
88.843630,5699.585753,15396.283594,-17313.758255
88.843940,-7476.080014,12657.521608,9039.926876
88.844249,-8364.327145,9030.512492,19305.606550
88.844558,814.226536,5625.565159,9652.803275
88.844868,2812.782580,4293.194464,1302.362347
88.845177,-4071.132681,4515.256246,-1149.143247
88.845487,-2220.617826,5403.503377,-7048.078582
88.845796,5625.565159,7105.977043,-17466.977354
88.846106,6735.874072,10140.821405,-15781.567259
88.846415,-4811.338623,9918.759623,4903.011187
88.846725,-7476.080014,6957.935855,20454.749797
88.847034,148.041188,11843.295072,11951.089769
88.847343,3627.009116,10658.965565,-2374.896044
88.847653,-4219.173869,9844.739029,-2911.162892
88.847962,-1258.350101,12435.459826,-8886.707777
88.848272,9474.636058,11251.130318,-22753.036291
88.848581,4071.132681,12731.542202,-16854.100956
88.848891,-3923.091493,13989.892304,5975.544884
88.849200,-7254.018232,7179.997637,15704.957709
88.849509,1480.411884,7698.141797,8273.831378
88.849819,1776.494261,4293.194464,3524.039291
88.850128,-2072.576638,5551.544565,1149.143247
88.850438,-222.061783,6661.853478,-5056.230287
88.850747,5699.585753,6957.935855,-16930.710506
88.851057,8734.430116,8438.347739,-14632.424012
88.851366,-3108.864956,12435.459826,2451.505594
88.851675,-9104.533087,10881.027347,17390.367805
88.851985,-444.123565,10066.800811,11951.089769
88.852294,4589.276840,12213.398043,-1991.848295
88.852604,-5033.400406,7772.162391,-2145.067394
88.852913,-1924.535449,12657.521608,-5056.230287
88.853223,5921.647536,10881.027347,-18616.120601
88.853532,7772.162391,10658.965565,-19765.263848
88.853842,-2664.741391,15026.180623,2451.505594
88.854151,-7328.038826,7179.997637,17313.758255
88.854460,-0.000000,5995.668130,14249.376263
88.854770,3627.009116,4811.338623,2528.115143
88.855079,-814.226536,5773.606348,-2757.943793
88.855389,-5033.400406,5921.647536,-3907.087040
88.855698,3404.947333,6735.874072,-12257.527968
88.856008,7254.018232,10436.903782,-17083.929605
88.856317,-2368.659014,12805.562797,-919.314598
88.856626,-8734.430116,11399.171507,17543.586904
88.856936,-2516.700203,9992.780217,9806.022374
88.857245,6365.771101,12583.501014,-2911.162892
88.857555,-5699.585753,10732.986159,-2987.772442
88.857864,-3701.029710,11917.315666,-3524.039291
88.858174,592.164754,12213.398043,-13253.452115
88.858483,5847.626942,10362.883188,-18692.730151
88.858792,1258.350101,13027.624579,306.438199
88.859102,-6661.853478,8216.285956,14479.204912
88.859411,-740.205942,7254.018232,12180.918418
88.859721,5255.462188,2960.823768,4519.963438
88.860030,-1258.350101,5551.544565,383.047749
88.860340,-3775.050304,6217.729913,-2528.115143
88.860649,2664.741391,6587.832884,-12104.308868
88.860958,5773.606348,10436.903782,-16164.615008
88.861268,-222.061783,14656.077652,-5898.935335
88.861577,-8956.491898,13915.871710,12717.185267
88.861887,-2146.597232,12805.562797,12180.918418
88.862196,4885.359217,10510.924376,-1225.752797
88.862506,-2664.741391,11547.212695,-3830.477490
88.862815,-5477.523971,10881.027347,842.705048
88.863125,4219.173869,8364.327145,-13713.109414
88.863434,9252.574275,8956.491898,-20224.921147
88.863743,-0.000000,11621.233289,-3217.601092
88.864053,-5921.647536,7624.121203,13713.109414
88.864362,-4145.153275,6069.688724,14249.376263
88.864672,4515.256246,6809.894666,5056.230287
88.864981,1702.473667,6291.750507,-2068.457845
88.865291,-4589.276840,6217.729913,-1532.190996
88.865600,1036.288319,7698.141797,-8656.879127
88.865909,5699.585753,9992.780217,-15781.567259
88.866219,2738.761985,13323.706956,-9346.365076
88.866528,-6735.874072,13323.706956,10418.898773
88.866838,-3775.050304,13397.727550,14632.424012
88.867147,5107.421000,10436.903782,1532.190996
88.867457,-1036.288319,9474.636058,-766.095498
88.867766,-4959.379811,11103.089130,1991.848295
88.868075,2368.659014,9770.718434,-7507.735880
88.868385,7994.224174,8364.327145,-20914.407095
88.868694,740.205942,12361.439231,-7660.954980
88.869004,-5625.565159,11917.315666,8733.488677
88.869313,-3034.844362,8216.285956,12717.185267
88.869623,2220.617826,5921.647536,8656.879127
88.869932,666.185348,6069.688724,0.000000
88.870242,-5107.421000,4885.359217,76.609550
88.870551,-0.000000,7550.100608,-5745.716235
88.870860,6883.915261,8956.491898,-16700.881856
88.871170,4219.173869,13471.748144,-11491.432470
88.871479,-5551.544565,11621.233289,8427.050478
88.871789,-5551.544565,10362.883188,14172.766713
88.872098,2960.823768,11547.212695,2068.457845
88.872408,-1850.514855,11695.253884,383.047749
88.872717,-5773.606348,9918.759623,306.438199
88.873026,888.247130,8438.347739,-8886.707777
88.873336,5847.626942,9474.636058,-19535.435199
88.873645,5329.482782,10732.986159,-11414.822920
88.873955,-3997.112087,9474.636058,9729.412825
88.874264,-5699.585753,8142.265362,16547.662757
88.874574,2812.782580,7550.100608,10955.165621
88.874883,2812.782580,6661.853478,76.609550
88.875192,-4885.359217,6143.709319,2145.067394
88.875502,-2220.617826,7698.141797,-3370.820191
88.875811,5625.565159,10288.862594,-16930.710506
88.876121,5181.441594,13027.624579,-17313.758255
88.876430,-3108.864956,14508.036463,2145.067394
88.876740,-7698.141797,10362.883188,14709.033562
88.877049,4811.338623,9696.697840,6818.249932
88.877359,1850.514855,7698.141797,-689.485948
88.877668,-7105.977043,9548.656652,2987.772442
88.877977,-2220.617826,9474.636058,-3753.867940
88.878287,8364.327145,6735.874072,-19765.263848
88.878596,7105.977043,10881.027347,-17160.539155
88.878906,-3404.947333,11547.212695,4826.401637
88.879215,-6069.688724,9474.636058,15704.957709
88.879525,1850.514855,7328.038826,8120.612279
88.879834,1406.391290,5773.606348,3983.696590
88.880143,-4367.215058,6069.688724,1378.971896
88.880453,-1332.370696,5921.647536,-5439.278036
88.880762,6069.688724,9104.533087,-16547.662757
88.881072,2960.823768,12287.418637,-18462.901502
88.881381,-3997.112087,15766.386565,766.095498
88.881691,-6735.874072,12953.603985,12793.794817
88.882000,1998.556043,11547.212695,7584.345430
88.882309,1406.391290,10066.800811,-76.609550
88.882619,-5847.626942,9770.718434,612.876398
88.882928,-1036.288319,10140.821405,-4826.401637
88.883238,6365.771101,7105.977043,-18616.120601
88.883547,5181.441594,9770.718434,-15168.690860
88.883857,-4441.235652,11917.315666,2451.505594
88.884166,-3627.009116,7105.977043,13406.671215
88.884476,592.164754,5847.626942,12257.527968
88.884785,444.123565,8808.450710,4979.620737
88.885094,-1628.453072,5033.400406,-689.485948
88.885404,-4663.297435,6217.729913,-6588.421283
88.885713,3478.967927,11251.130318,-15934.786358
88.886023,7550.100608,9992.780217,-19382.216099
88.886332,-814.226536,14211.954086,-3064.381992
88.886642,-8512.368333,14730.098246,16547.662757
88.886951,1332.370696,10807.006753,13253.452115
88.887260,2590.720797,8142.265362,842.705048
88.887570,-7179.997637,10955.047942,3370.820191
88.887879,-1184.329507,11103.089130,-2298.286494
88.888189,6513.812290,8882.471304,-20071.702048
88.888498,7105.977043,8216.285956,-22599.817191
88.888808,-962.267725,12139.377449,0.000000
88.889117,-4885.359217,7994.224174,15321.909960
88.889426,-0.000000,7328.038826,15704.957709
88.889736,3997.112087,5033.400406,9882.631924
88.890045,-1776.494261,3182.885551,3294.210641
88.890355,-4219.173869,2664.741391,-1149.143247
88.890664,3849.070898,8956.491898,-13253.452115
88.890974,6809.894666,13323.706956,-21910.331243
88.891283,592.164754,17024.736666,-6511.811733
88.891592,-7772.162391,13841.851115,12870.404366
88.891902,-4515.256246,11917.315666,12947.013916
88.892211,5255.462188,11325.150913,2221.676944
88.892521,-5551.544565,8956.491898,1378.971896
88.892830,-4811.338623,11917.315666,-2451.505594
88.893140,5477.523971,7105.977043,-17466.977354
88.893449,6513.812290,7920.203579,-21680.502593
88.893759,740.205942,11029.068536,-2298.286494
88.894068,-6143.709319,8142.265362,14632.424012
88.894377,-2738.761985,7920.203579,15934.786358
88.894687,4515.256246,6513.812290,8197.221829
88.894996,-740.205942,5033.400406,-1608.800546
88.895306,-5255.462188,4145.153275,-3370.820191
88.895615,2368.659014,8660.409521,-10189.070123
88.895925,6661.853478,9918.759623,-19765.263848
88.896234,2738.761985,15618.345376,-10648.727422
88.896543,-5255.462188,14952.160028,12180.918418
88.896853,-5403.503377,13101.645173,15551.738609
88.897162,3034.844362,11991.336260,2681.334243
88.897472,-2590.720797,11325.150913,-536.266849
88.897781,-5181.441594,11103.089130,-2604.724693
88.898091,5329.482782,6513.812290,-14172.766713
88.898400,6735.874072,5995.668130,-22523.207641
88.898709,2368.659014,9992.780217,-5975.544884
88.899019,-4959.379811,9326.594869,13176.842566
88.899328,-2220.617826,6365.771101,18616.120601
88.899638,962.267725,7624.121203,13483.280765
88.899947,-592.164754,4737.318029,1991.848295
88.900257,-4071.132681,5625.565159,-4443.353888
88.900566,2072.576638,8808.450710,-11951.089769
88.900876,6069.688724,10584.944971,-20684.578446
88.901185,2146.597232,15840.407159,-12793.794817
88.901494,-7105.977043,14804.118840,9882.631924
88.901804,-3849.070898,12435.459826,16394.443657
88.902113,3849.070898,11325.150913,4903.011187
88.902423,-3034.844362,8142.265362,1685.410096
88.902732,-5033.400406,10732.986159,689.485948
88.903042,2146.597232,6957.935855,-13789.718964
88.903351,7772.162391,7031.956449,-24132.008187
88.903660,3627.009116,10288.862594,-9269.755526
88.903970,-5847.626942,10436.903782,10189.070123
88.904279,-5995.668130,8290.306550,17696.806004
88.904589,5181.441594,4441.235652,11797.870669
88.904898,1480.411884,3108.864956,1455.581446
88.905208,-7105.977043,6809.894666,0.000000
88.905517,1850.514855,8364.327145,-7660.954980
88.905826,6661.853478,9844.739029,-19995.092498
88.906136,3923.091493,15766.386565,-13713.109414
88.906445,-5995.668130,16950.716072,7507.735880
88.906755,-4737.318029,14952.160028,15245.300410
88.907064,4811.338623,12583.501014,4596.572988
88.907374,-740.205942,8142.265362,-1915.238745
88.907683,-7328.038826,10584.944971,229.828649
88.907993,370.102971,7031.956449,-8044.002729
88.908302,6735.874072,5625.565159,-21297.454844
88.908611,6661.853478,9030.512492,-11721.261119
88.908921,-3404.947333,9252.574275,8810.098227
88.909230,-5995.668130,7328.038826,18079.853753
88.909540,1850.514855,6883.915261,9499.584175
88.909849,3108.864956,4737.318029,459.657299
88.910159,-5329.482782,7254.018232,-2911.162892
88.910468,-2220.617826,9030.512492,-5822.325785
88.910777,6809.894666,10362.883188,-18922.558801
88.911087,5551.544565,13101.645173,-18539.511052
88.911396,-3256.906145,16062.468941,5822.325785
88.911706,-5995.668130,13249.686362,17313.758255
88.912015,1554.432478,12361.439231,7967.393179
88.912325,1628.453072,9474.636058,-1838.629195
88.912634,-3701.029710,9178.553681,-536.266849
88.912944,-1036.288319,9400.615463,-8886.707777
88.913253,4663.297435,6217.729913,-18003.244203
88.913562,6217.729913,9474.636058,-14555.814462
88.913872,-2442.679609,7624.121203,4290.134789
88.914181,-4959.379811,8512.368333,16547.662757
88.914491,1036.288319,8956.491898,14862.252661
88.914800,5477.523971,5181.441594,2068.457845
88.915110,-2812.782580,4885.359217,-1838.629195
88.915419,-3701.029710,5699.585753,-3294.210641
88.915729,6291.750507,6365.771101,-14019.547613
88.916038,7105.977043,12953.603985,-17696.806004
88.916347,-3404.947333,15914.427753,2451.505594
88.916657,-9770.718434,12509.480420,18462.901502
88.916966,814.226536,10288.862594,8810.098227
88.917276,1850.514855,11103.089130,-2221.676944
88.917585,-3404.947333,12953.603985,-1455.581446
88.917895,-3256.906145,11029.068536,-5745.716235
88.918204,3478.967927,7254.018232,-17466.977354
88.918513,6069.688724,8068.244768,-13176.842566
88.918823,-296.082377,12657.521608,-383.047749
88.919132,-8882.471304,10066.800811,12870.404366
88.919442,74.020594,6809.894666,16394.443657
88.919751,5551.544565,5033.400406,1838.629195
88.920061,-1184.329507,5107.421000,-3524.039291
88.920370,-5773.606348,4515.256246,2145.067394
88.920680,2738.761985,5699.585753,-8656.879127
88.920989,6957.935855,11843.295072,-19075.777900
88.921298,518.144159,16210.510130,-5439.278036
88.921608,-8660.409521,11695.253884,13253.452115
88.921917,-1110.308913,11843.295072,9346.365076
88.922227,5255.462188,11843.295072,-536.266849
88.922536,-4737.318029,12583.501014,-2911.162892
88.922846,-4367.215058,11917.315666,-3140.991542
88.923155,3404.947333,8882.471304,-13559.890315
88.923465,5773.606348,9030.512492,-17850.025103
88.923774,3034.844362,10955.047942,-5362.668486
88.924083,-4515.256246,10436.903782,10189.070123
88.924393,-3552.988522,7920.203579,13559.890315
88.924702,6143.709319,5625.565159,6435.202183
88.925012,666.185348,5033.400406,-1455.581446
88.925321,-6661.853478,2146.597232,-459.657299
88.925631,1998.556043,7105.977043,-6665.030833
88.925940,7105.977043,9622.677246,-17007.320056
88.926250,4441.235652,12139.377449,-9422.974625
88.926559,-6069.688724,12805.562797,8580.269578
88.926868,-4663.297435,13471.748144,13866.328514
88.927178,4219.173869,10066.800811,995.924147
88.927487,-370.102971,11325.150913,-3447.429741
88.927797,-6143.709319,13101.645173,-1302.362347
88.928106,888.247130,9252.574275,-8503.660028
88.928416,5699.585753,7550.100608,-17773.415554
88.928725,3478.967927,12213.398043,-9499.584175
88.929034,-3404.947333,10362.883188,8886.707777
88.929344,-5329.482782,8290.306550,16854.100956
88.929653,2664.741391,5551.544565,8580.269578
88.929963,2960.823768,3923.091493,-1608.800546
88.930272,-5551.544565,2960.823768,0.000000
88.930582,-592.164754,6957.935855,-2298.286494
88.930891,8734.430116,7772.162391,-18692.730151
88.931201,4071.132681,13545.768739,-14249.376263
88.931510,-7105.977043,13619.789333,8120.612279
88.931819,-5995.668130,13249.686362,13713.109414
88.932129,3552.988522,11991.336260,1685.410096
88.932438,-222.061783,11399.171507,-2604.724693
88.932748,-6439.791695,12213.398043,-229.828649
88.933057,1258.350101,10436.903782,-9882.631924
88.933367,5625.565159,8882.471304,-19228.997000
88.933676,2960.823768,10881.027347,-8810.098227
88.933986,-1406.391290,9326.594869,5209.449386
88.934295,-3404.947333,6661.853478,11031.775171
88.934604,2368.659014,6069.688724,10648.727422
88.934914,1924.535449,2664.741391,5362.668486
88.935223,-5773.606348,3034.844362,1838.629195
88.935533,-2664.741391,5847.626942,-4826.401637
88.935842,5477.523971,8364.327145,-14096.157163
88.936152,6587.832884,11769.274478,-16164.615008
88.936461,-3849.070898,14211.954086,1072.533697
88.936771,-7105.977043,13545.768739,13559.890315
88.937080,2294.638420,12213.398043,6205.373534
88.937389,814.226536,10955.047942,-3447.429741
88.937699,-5921.647536,13841.851115,1302.362347
88.938008,-1332.370696,9252.574275,-7201.297681
88.938318,7476.080014,8512.368333,-19765.263848
88.938627,5551.544565,7698.141797,-16164.615008
88.938937,-2294.638420,11103.089130,3447.429741
88.939246,-6143.709319,7550.100608,14402.595362
88.939555,888.247130,6365.771101,12334.137518
88.939865,5255.462188,4663.297435,2987.772442
88.940174,-1776.494261,2368.659014,-842.705048
88.940484,-3627.009116,6217.729913,-1149.143247
88.940793,6439.791695,6365.771101,-9959.241474
88.941103,7105.977043,9844.739029,-15168.690860
88.941412,-1480.411884,14063.912898,-1608.800546
88.941722,-8512.368333,16210.510130,14632.424012
88.942031,-740.205942,14508.036463,9729.412825
88.942340,3552.988522,13027.624579,1149.143247
88.942650,-2516.700203,13841.851115,-3524.039291
88.942959,-4441.235652,12879.583391,-5056.230287
88.943269,3182.885551,9844.739029,-15398.519510
88.943578,4885.359217,9400.615463,-15934.786358
88.943888,-1110.308913,11843.295072,-3064.381992
88.944197,-4219.173869,8808.450710,12104.308868
88.944507,-3701.029710,4515.256246,17083.929605
88.944816,4293.194464,3256.906145,7890.783629
88.945125,-1776.494261,518.144159,306.438199
88.945435,-2664.741391,4515.256246,-3140.991542
88.945744,1110.308913,6513.812290,-11031.775171
88.946054,9030.512492,9400.615463,-18539.511052
88.946363,1110.308913,13545.768739,-5592.497135
88.946673,-7994.224174,11917.315666,15168.690860
88.946982,-666.185348,12139.377449,13406.671215
88.947291,1036.288319,13323.706956,1685.410096
88.947601,-3404.947333,12213.398043,-1838.629195
88.947910,-1480.411884,12435.459826,-7737.564530
88.948220,3552.988522,9474.636058,-19688.654299
88.948529,4071.132681,9844.739029,-16394.443657
88.948839,444.123565,13175.665768,-1762.019645
88.949148,-1036.288319,10732.986159,7890.783629
88.949458,-3775.050304,6883.915261,13406.671215
88.949767,1480.411884,4737.318029,12180.918418
88.950076,370.102971,2072.576638,306.438199
88.950386,-2368.659014,2886.803174,-5286.058936
88.950695,2146.597232,7105.977043,-11261.603821
88.951005,6735.874072,9400.615463,-16777.491406
88.951314,2812.782580,12879.583391,-8120.612279
88.951624,-9104.533087,13471.748144,11338.213370
88.951933,-2960.823768,12805.562797,15321.909960
88.952243,5847.626942,11399.171507,1149.143247
88.952552,-4737.318029,8290.306550,-2987.772442
88.952861,-3775.050304,9696.697840,-2145.067394
88.953171,1628.453072,8290.306550,-14785.643111
88.953480,6513.812290,9104.533087,-19535.435199
88.953790,1554.432478,14211.954086,-3830.477490
88.954099,-4737.318029,12065.356855,9652.803275
88.954409,-4589.276840,10066.800811,14325.985813
88.954718,3627.009116,3182.885551,11491.432470
88.955028,962.267725,3330.926739,1072.533697
88.955337,-3701.029710,5773.606348,-6205.373534
88.955646,1036.288319,5107.421000,-8120.612279
88.955956,6143.709319,8364.327145,-15245.300410
88.956265,4071.132681,13767.830521,-11721.261119
88.956575,-4885.359217,14285.974681,5898.935335
88.956884,-6291.750507,13471.748144,16164.615008
88.957194,4071.132681,13323.706956,3753.867940
88.957503,-962.267725,8290.306550,-3217.601092
88.957812,-5181.441594,11917.315666,-1685.410096
88.958122,2886.803174,9918.759623,-11414.822920
88.958431,6217.729913,8734.430116,-20531.359346
88.958741,3997.112087,10288.862594,-7201.297681
88.959050,-5403.503377,10955.047942,9346.365076
88.959360,-2442.679609,10140.821405,12180.918418
88.959669,4885.359217,4663.297435,6971.469032
88.959979,-2368.659014,5403.503377,2911.162892
88.960288,-4071.132681,6365.771101,-2068.457845
88.960597,1924.535449,6513.812290,-11951.089769
88.960907,7476.080014,8512.368333,-15934.786358
88.961216,3404.947333,11843.295072,-9039.926876
88.961526,-4663.297435,12731.542202,7660.954980
88.961835,-3478.967927,13397.727550,14709.033562
88.962145,3552.988522,10955.047942,7584.345430
88.962454,-1850.514855,10510.924376,-995.924147
88.962764,-1702.473667,12213.398043,-4290.134789
88.963073,1184.329507,7994.224174,-12487.356617
88.963382,5033.400406,8512.368333,-19305.606550
88.963692,5403.503377,9252.574275,-12334.137518
88.964001,-4737.318029,13323.706956,7660.954980
88.964311,-3478.967927,11325.150913,15245.300410
88.964620,4293.194464,6661.853478,9959.241474
88.964930,1332.370696,5033.400406,1225.752797
88.965239,-6587.832884,3552.988522,-6052.154434
88.965548,222.061783,8956.491898,-8120.612279
88.965858,6513.812290,6883.915261,-15781.567259
88.966167,5995.668130,11399.171507,-10801.946522
88.966477,-3552.988522,14211.954086,5745.716235
88.966786,-5403.503377,12213.398043,15475.129060
88.967096,1406.391290,11029.068536,9422.974625
88.967405,-0.000000,8512.368333,1149.143247
88.967715,-2442.679609,10288.862594,-5592.497135
88.968024,-740.205942,8734.430116,-10189.070123
88.968333,2146.597232,9030.512492,-16164.615008
88.968643,3627.009116,11621.233289,-9346.365076
88.968952,-2072.576638,12435.459826,2145.067394
88.969262,-5699.585753,11547.212695,12640.575717
88.969571,1406.391290,7031.956449,11108.384721
88.969881,2220.617826,1924.535449,1762.019645
88.970190,-2812.782580,3923.091493,-3217.601092
88.970500,-2516.700203,6439.791695,-5745.716235
88.970809,2368.659014,7772.162391,-9959.241474
88.971118,6291.750507,9326.594869,-12640.575717
88.971428,-370.102971,13693.809927,1838.629195
88.971737,-5995.668130,11769.274478,12104.308868
88.972047,1184.329507,11695.253884,8503.660028
88.972356,-2368.659014,8660.409521,1991.848295
88.972666,-4589.276840,10510.924376,-2145.067394
88.972975,1480.411884,11029.068536,-10572.117872
88.973285,3330.926739,9918.759623,-19458.825649
88.973594,3627.009116,11177.109724,-11031.775171
88.973903,-1998.556043,12805.562797,3907.087040
88.974213,-1406.391290,11473.192101,10265.679673
88.974522,1702.473667,10584.944971,9652.803275
88.974832,2960.823768,4737.318029,5209.449386
88.975141,-3701.029710,2146.597232,5822.325785
88.975451,-814.226536,6143.709319,-4903.011187
88.975760,5255.462188,6291.750507,-13023.623466
88.976069,4367.215058,8216.285956,-12717.185267
88.976379,-740.205942,12361.439231,842.705048
88.976688,-6513.812290,15544.324782,6665.030833
88.976998,814.226536,12731.542202,6281.983084
88.977307,740.205942,9844.739029,1762.019645
88.977617,-4959.379811,10436.903782,229.828649
88.977926,-814.226536,9696.697840,-5056.230287
88.978236,5477.523971,6439.791695,-16547.662757
88.978545,2146.597232,8142.265362,-11414.822920
88.978854,-222.061783,11917.315666,4136.915689
88.979164,-3627.009116,11473.192101,9806.022374
88.979473,-148.041188,7402.059420,9422.974625
88.979783,2516.700203,6439.791695,6818.249932
88.980092,-1924.535449,1554.432478,-459.657299
88.980402,-1628.453072,5255.462188,-6128.763984
88.980711,2220.617826,7624.121203,-9576.193725
88.981021,3701.029710,10362.883188,-12793.794817
88.981330,-444.123565,13767.830521,-4136.915689
88.981639,-4367.215058,13619.789333,8580.269578
88.981949,-2738.761985,15692.365970,7354.516781
88.982258,2368.659014,12213.398043,2068.457845
88.982568,-2886.803174,10436.903782,0.000000
88.982877,-2738.761985,9474.636058,-4749.792088
88.983187,4515.256246,7476.080014,-15015.471761
88.983496,3256.906145,6957.935855,-13100.233016
88.983805,518.144159,11547.212695,3064.381992
88.984115,-1480.411884,11399.171507,8120.612279
88.984424,-1480.411884,6365.771101,8044.002729
88.984734,1332.370696,6143.709319,7890.783629
88.985043,-2516.700203,5181.441594,1685.410096
88.985353,-0.000000,5329.482782,-8427.050478
88.985662,740.205942,7476.080014,-12257.527968
88.985972,3330.926739,9474.636058,-10495.508323
88.986281,-74.020594,11843.295072,-2451.505594
88.986590,-2516.700203,15026.180623,6588.421283
88.986900,-1184.329507,14878.139434,6894.859482
88.987209,2146.597232,10436.903782,3524.039291
88.987519,-2294.638420,10658.965565,2757.943793
88.987828,-1998.556043,10140.821405,-3830.477490
88.988138,3775.050304,7328.038826,-15858.176809
88.988447,666.185348,6809.894666,-13330.061665
88.988757,518.144159,9548.656652,-1072.533697
88.989066,-2886.803174,10510.924376,4903.011187
88.989375,-148.041188,9918.759623,9729.412825
88.989685,2368.659014,6217.729913,9499.584175
88.989994,-962.267725,3404.947333,3907.087040
88.990304,-2294.638420,5033.400406,-3370.820191
88.990613,1776.494261,7402.059420,-8733.488677
88.990923,5699.585753,7105.977043,-6435.202183
88.991232,444.123565,12805.562797,-4673.182538
88.991542,-3034.844362,15470.304188,5669.106685
88.991851,-1776.494261,13841.851115,6894.859482
88.992160,1850.514855,10658.965565,2451.505594
88.992470,-2442.679609,8808.450710,3447.429741
88.992779,-6587.832884,9622.677246,0.000000
88.993089,4515.256246,9252.574275,-12487.356617
88.993398,1924.535449,7772.162391,-16088.005458
88.993708,1554.432478,10288.862594,-2834.553343
88.994017,-2516.700203,11843.295072,4903.011187
88.994326,-814.226536,11103.089130,5898.935335
88.994636,2516.700203,9030.512492,7354.516781
88.994945,-1924.535449,4515.256246,6205.373534
88.995255,-1258.350101,5625.565159,-842.705048
88.995564,2368.659014,6291.750507,-9346.365076
88.995874,2368.659014,6513.812290,-12257.527968
88.996183,888.247130,10362.883188,-4290.134789
88.996493,-1776.494261,13101.645173,3064.381992
88.996802,-1998.556043,14730.098246,3294.210641
88.997111,518.144159,11991.336260,5056.230287
88.997421,-2960.823768,10807.006753,4519.963438
88.997730,-4219.173869,9178.553681,-3447.429741
88.998040,4441.235652,9326.594869,-9422.974625
88.998349,2516.700203,8660.409521,-15168.690860
88.998659,1998.556043,10066.800811,-5975.544884
88.998968,1258.350101,11621.233289,3677.258390
88.999278,-1406.391290,8586.388927,7967.393179
88.999587,-0.000000,9474.636058,9422.974625
88.999896,-888.247130,3997.112087,10648.727422
89.000206,-2812.782580,3552.988522,1915.238745
89.000515,3182.885551,6217.729913,-10801.946522
89.000825,2368.659014,9770.718434,-15015.471761
89.001134,592.164754,10807.006753,-7967.393179
89.001444,-1924.535449,14137.933492,766.095498
89.001753,-1776.494261,15026.180623,3600.648841
89.002062,1628.453072,12805.562797,5975.544884
89.002372,-4145.153275,9474.636058,7201.297681
89.002681,-2960.823768,7624.121203,1455.581446
89.002991,1628.453072,9474.636058,-8810.098227
89.003300,3923.091493,7846.182985,-15628.348159
89.003610,3108.864956,7476.080014,-7660.954980
89.003919,-0.000000,10732.986159,3753.867940
89.004229,-2368.659014,9696.697840,8350.440928
89.004538,592.164754,8290.306550,9652.803275
89.004847,-74.020594,5847.626942,6971.469032
89.005157,-74.020594,2960.823768,-306.438199
89.005466,-1110.308913,7031.956449,-7354.516781
89.005776,4219.173869,9548.656652,-14096.157163
89.006085,-666.185348,10807.006753,-10572.117872
89.006395,296.082377,16136.489536,-612.876398
89.006704,-2442.679609,16284.530724,5132.839837
89.007014,148.041188,14137.933492,4519.963438
89.007323,-518.144159,10436.903782,5898.935335
89.007632,-4589.276840,7846.182985,3294.210641
89.007942,3552.988522,9548.656652,-7890.783629
89.008251,3701.029710,4959.379811,-16011.395908
89.008561,2146.597232,7550.100608,-9193.145976
89.008870,-0.000000,8956.491898,2068.457845
89.009180,-2442.679609,10362.883188,5745.716235
89.009489,-0.000000,9770.718434,4136.915689
89.009799,-814.226536,6365.771101,5286.058936
89.010108,-2812.782580,4589.276840,1302.362347
89.010417,-444.123565,6069.688724,-5286.058936
89.010727,4219.173869,10066.800811,-13789.718964
89.011036,1554.432478,9844.739029,-10572.117872
89.011346,1184.329507,14211.954086,1991.848295
89.011655,-444.123565,15692.365970,5362.668486
89.011965,518.144159,12879.583391,3907.087040
89.012274,740.205942,11547.212695,7737.564530
89.012584,-5477.523971,9252.574275,4213.525239
89.012893,2072.576638,10807.006753,-11874.480219
89.013203,4071.132681,5847.626942,-20071.702048
89.013512,962.267725,7550.100608,-10189.070123
89.013822,666.185348,11325.150913,1378.971896
89.014131,-1998.556043,8068.244768,6205.373534
89.014441,2368.659014,7476.080014,12334.137518
89.014750,2590.720797,2368.659014,12487.356617
89.015060,-3256.906145,1998.556043,4443.353888
89.015369,-666.185348,5625.565159,-2451.505594
89.015679,1998.556043,8364.327145,-12487.356617
89.015988,3627.009116,12509.480420,-14632.424012
89.016298,-222.061783,14211.954086,-2987.772442
89.016607,-5847.626942,18505.148550,-1225.752797
89.016917,-1702.473667,14211.954086,4136.915689
89.017226,-2220.617826,10658.965565,6818.249932
89.017536,-5181.441594,11547.212695,4903.011187
89.017845,-0.000000,10732.986159,-6052.154434
89.018155,4811.338623,7031.956449,-17313.758255
89.018464,296.082377,7994.224174,-13483.280765
89.018774,222.061783,8956.491898,1608.800546
89.019083,-296.082377,9474.636058,7737.564530
89.019393,-0.000000,8734.430116,11721.261119
89.019702,740.205942,5329.482782,12410.747068
89.020012,-2368.659014,1110.308913,6358.592633
89.020321,-592.164754,4219.173869,-5056.230287
89.020630,3923.091493,8142.265362,-14785.643111
89.020940,2812.782580,8808.450710,-15321.909960
89.021249,-1184.329507,15174.221811,-2451.505594
89.021559,-1776.494261,17616.901420,3983.696590
89.021868,222.061783,16580.613101,1915.238745
89.022178,-1110.308913,13471.748144,3217.601092
89.022487,-5625.565159,9696.697840,5439.278036
89.022797,-2146.597232,9696.697840,-4596.572988
89.023106,6291.750507,9326.594869,-17926.634653
89.023416,4145.153275,6957.935855,-14938.862211
89.023725,2220.617826,7920.203579,-2221.676944
89.024035,-370.102971,8586.388927,8503.660028
89.024344,-444.123565,8364.327145,9806.022374
89.024654,1998.556043,4811.338623,10112.460574
89.024963,-1776.494261,888.247130,6128.763984
89.025273,-1924.535449,3701.029710,-3983.696590
89.025582,5255.462188,7550.100608,-16088.005458
89.025892,2664.741391,9326.594869,-16317.834107
89.026201,-1258.350101,13471.748144,-2221.676944
89.026511,-1554.432478,15692.365970,7967.393179
89.026820,2368.659014,17246.798449,3140.991542
89.027130,962.267725,12361.439231,4903.011187
89.027439,-6143.709319,9178.553681,8197.221829
89.027749,-3478.967927,11177.109724,-2221.676944
89.028058,4589.276840,6069.688724,-19612.044749
89.028368,3775.050304,6217.729913,-16930.710506
89.028677,444.123565,9770.718434,-919.314598
89.028987,-2220.617826,9178.553681,6281.983084
89.029296,1184.329507,8660.409521,10035.851024
89.029606,2072.576638,6439.791695,11184.994271
89.029915,-2368.659014,1850.514855,7660.954980
89.030225,-2368.659014,3478.967927,995.924147
89.030534,4515.256246,6143.709319,-12563.966167
89.030844,3034.844362,11103.089130,-15398.519510
89.031153,-2368.659014,16136.489536,-3677.258390
89.031462,-3552.988522,17690.922014,6052.154434
89.031772,962.267725,19541.436869,-536.266849
89.032081,2886.803174,15544.324782,-995.924147
89.032391,-6809.894666,7402.059420,9116.536426
89.032700,-4515.256246,10732.986159,1455.581446
89.033010,6735.874072,6735.874072,-17160.539155
89.033319,3034.844362,4959.379811,-17007.320056
89.033629,-740.205942,6291.750507,536.266849
89.033938,-888.247130,5255.462188,6205.373534
89.034248,296.082377,7402.059420,6052.154434
89.034557,1184.329507,8216.285956,8197.221829
89.034867,-3182.885551,2442.679609,5056.230287
89.035176,-3552.988522,2960.823768,0.000000
89.035486,3923.091493,8512.368333,-10495.508323
89.035795,3997.112087,10288.862594,-17160.539155
89.036105,-0.000000,13027.624579,-6052.154434
89.036414,-2960.823768,15470.304188,8886.707777
89.036724,370.102971,16654.633695,4136.915689
89.037033,2146.597232,12805.562797,-306.438199
89.037343,-7328.038826,11399.171507,6818.249932
89.037652,-2220.617826,9992.780217,2757.943793
89.037962,3404.947333,8290.306550,-15628.348159
89.038271,3627.009116,9474.636058,-19458.825649
89.038581,-222.061783,9474.636058,-2451.505594
89.038890,-222.061783,8734.430116,5209.449386
89.039200,1184.329507,8290.306550,7354.516781
89.039509,-0.000000,8438.347739,9269.755526
89.039819,444.123565,2368.659014,6665.030833
89.040128,-2516.700203,888.247130,3140.991542
89.040438,3330.926739,6291.750507,-4826.401637
89.040747,3404.947333,7402.059420,-17543.586904
89.041057,1036.288319,12509.480420,-9499.584175
89.041366,-3552.988522,15618.345376,5362.668486
89.041676,-740.205942,15322.262999,4903.011187
89.041985,2442.679609,13619.789333,-842.705048
89.042295,-5551.544565,12139.377449,8044.002729
89.042604,-5921.647536,9918.759623,5822.325785
89.042913,2886.803174,8586.388927,-12257.527968
89.043223,4737.318029,8290.306550,-20684.578446
89.043532,-2146.597232,8142.265362,-6435.202183
89.043842,-1776.494261,11917.315666,3753.867940
89.044151,-0.000000,9622.677246,3677.258390
89.044461,2960.823768,9400.615463,5515.887586
89.044770,740.205942,4885.359217,7967.393179
89.045080,-3849.070898,-518.144159,9576.193725
89.045389,1036.288319,4367.215058,-2528.115143
89.045699,2516.700203,7476.080014,-14249.376263
89.046008,2220.617826,9474.636058,-12104.308868
89.046318,-1776.494261,14063.912898,1915.238745
89.046627,-2664.741391,18431.127956,1608.800546
89.046937,1628.453072,16062.468941,-2681.334243
89.047246,-1998.556043,13767.830521,1378.971896
89.047556,-6217.729913,11029.068536,6205.373534
89.047865,1332.370696,10658.965565,-7201.297681
89.048175,6587.832884,8068.244768,-20531.359346
89.048484,1850.514855,7031.956449,-9576.193725
89.048794,-1258.350101,10584.944971,6281.983084
89.049103,-1702.473667,10584.944971,7890.783629
89.049413,1702.473667,8734.430116,4213.525239
89.049722,740.205942,5107.421000,5822.325785
89.050032,-3775.050304,2294.638420,4519.963438
89.050341,222.061783,2738.761985,-3524.039291
89.050651,2368.659014,5995.668130,-13253.452115
89.050960,666.185348,11547.212695,-9959.241474
89.051270,-0.000000,12139.377449,995.924147
89.051579,-2294.638420,13323.706956,5822.325785
89.051889,1184.329507,13767.830521,2834.553343
89.052198,-296.082377,14804.118840,3294.210641
89.052508,-6809.894666,12287.418637,4826.401637
89.052817,-740.205942,12287.418637,-4366.744339
89.053127,5995.668130,9696.697840,-19612.044749
89.053436,2516.700203,9992.780217,-14862.252661
89.053745,-2368.659014,12213.398043,2451.505594
89.054055,-2812.782580,9548.656652,9039.926876
89.054364,3775.050304,7920.203579,4979.620737
89.054674,1776.494261,2368.659014,7737.564530
89.054983,-3627.009116,1480.411884,9116.536426
89.055293,-2516.700203,2812.782580,1072.533697
89.055602,4071.132681,7105.977043,-12334.137518
89.055912,2664.741391,10288.862594,-15092.081311
89.056221,-2220.617826,14804.118840,-2451.505594
89.056531,-2220.617826,14656.077652,4903.011187
89.056840,1850.514855,17394.839637,76.609550
89.057150,740.205942,13915.871710,229.828649
89.057459,-8586.388927,10436.903782,8733.488677
89.057769,-2294.638420,11399.171507,76.609550
89.058078,7254.018232,9474.636058,-18539.511052
89.058388,2960.823768,9326.594869,-17390.367805
89.058697,-2590.720797,8586.388927,1915.238745
89.059007,-1258.350101,8216.285956,7354.516781
89.059316,1554.432478,8290.306550,1685.410096
89.059626,2516.700203,4737.318029,6665.030833
89.059935,-2294.638420,1184.329507,8810.098227
89.060245,-3478.967927,1924.535449,612.876398
89.060554,3701.029710,7772.162391,-11874.480219
89.060864,3256.906145,7402.059420,-17160.539155
89.061173,962.267725,13989.892304,-4519.963438
89.061483,-2294.638420,17394.839637,4596.572988
89.061792,1406.391290,16432.571912,1915.238745
89.062102,1924.535449,13989.892304,842.705048
89.062411,-7994.224174,9992.780217,6588.421283
89.062721,-1776.494261,10658.965565,612.876398
89.063030,3404.947333,9918.759623,-15704.957709
89.063340,4515.256246,9326.594869,-17850.025103
89.063649,-1332.370696,9474.636058,-3447.429741
89.063959,-592.164754,9326.594869,5822.325785
89.064268,1332.370696,9696.697840,4366.744339
89.064578,3330.926739,5033.400406,6281.983084
89.064887,-962.267725,148.041188,8733.488677
89.065196,-5329.482782,814.226536,3140.991542
89.065506,2368.659014,4959.379811,-6511.811733
89.065815,4959.379811,7328.038826,-15398.519510
89.066125,1036.288319,11991.336260,-8120.612279
89.066434,-2590.720797,15470.304188,3600.648841
89.066744,-1184.329507,17246.798449,4826.401637
89.067053,3404.947333,14211.954086,-1991.848295
89.067363,-5847.626942,9326.594869,6281.983084
89.067672,-7476.080014,11991.336260,6971.469032
89.067982,1924.535449,11325.150913,-11874.480219
89.068291,5699.585753,8364.327145,-21910.331243
89.068601,-1480.411884,9622.677246,-4903.011187
89.068910,-3256.906145,11029.068536,6052.154434
89.069220,1628.453072,9770.718434,2604.724693
89.069529,1776.494261,8808.450710,4443.353888
89.069839,-2368.659014,3849.070898,10342.289223
89.070148,-3478.967927,2146.597232,6281.983084
89.070458,2442.679609,4441.235652,-7354.516781
89.070767,6291.750507,4515.256246,-16088.005458
89.071077,1332.370696,9030.512492,-8656.879127
89.071386,-3256.906145,12287.418637,4290.134789
89.071696,-2146.597232,16580.613101,4903.011187
89.072005,1850.514855,15100.201217,-459.657299
89.072315,-2368.659014,10807.006753,2298.286494
89.072624,-7402.059420,11547.212695,3983.696590
89.072934,2368.659014,10881.027347,-9959.241474
89.073243,5847.626942,9918.759623,-21450.673944
89.073553,592.164754,10140.821405,-11797.870669
89.073862,-518.144159,10807.006753,5439.278036
89.074172,962.267725,9178.553681,7354.516781
89.074481,2368.659014,8438.347739,7354.516781
89.074791,-1332.370696,4071.132681,10648.727422
89.075100,-2294.638420,740.205942,6741.640382
89.075410,2960.823768,5995.668130,-7737.564530
89.075719,3256.906145,6883.915261,-18156.463303
89.076028,2368.659014,10436.903782,-12104.308868
89.076338,-2590.720797,12361.439231,2221.676944
89.076647,-1776.494261,15840.407159,8733.488677
89.076957,2294.638420,14434.015869,5362.668486
89.077266,-74.020594,9696.697840,3753.867940
89.077576,-6513.812290,6217.729913,6052.154434
89.077885,-962.267725,10584.944971,-1225.752797
89.078195,6809.894666,9252.574275,-21450.673944
89.078504,1110.308913,8956.491898,-13942.938064
89.078814,-3256.906145,12657.521608,5132.839837
89.079123,-2294.638420,11473.192101,7354.516781
89.079433,4367.215058,9326.594869,5515.887586
89.079742,-0.000000,5255.462188,8427.050478
89.080052,-6513.812290,2886.803174,9193.145976
89.080361,-1184.329507,4515.256246,-2528.115143
89.080671,4663.297435,8364.327145,-16930.710506
89.080980,3923.091493,8586.388927,-15398.519510
89.081290,-2886.803174,11399.171507,1302.362347
89.081599,-4959.379811,15766.386565,9422.974625
89.081909,3256.906145,14730.098246,3294.210641
89.082218,-0.000000,13767.830521,-1378.971896
89.082528,-6587.832884,7624.121203,7431.126331
89.082837,-2960.823768,10510.924376,-919.314598
89.083147,8216.285956,10288.862594,-20224.921147
89.083456,2294.638420,8438.347739,-17390.367805
89.083766,-4737.318029,13323.706956,1762.019645
89.084075,-444.123565,10066.800811,7890.783629
89.084385,2960.823768,10807.006753,1532.190996
89.084694,-888.247130,6143.709319,6511.811733
89.085004,-7105.977043,2442.679609,14709.033562
89.085313,-592.164754,4071.132681,-2604.724693
89.085623,5477.523971,7105.977043,-16930.710506
89.085932,5107.421000,7476.080014,-15858.176809
89.086242,-1332.370696,11399.171507,1991.848295
89.086551,-0.000000,13027.624579,7048.078582
89.086860,1110.308913,15100.201217,5975.544884
89.087170,518.144159,10955.047942,1455.581446
89.087479,-5181.441594,7550.100608,4290.134789
89.087789,-2590.720797,9326.594869,-3524.039291
89.088098,3775.050304,10510.924376,-18462.901502
89.088408,2294.638420,11325.150913,-17926.634653
89.088717,-1998.556043,13249.686362,0.000000
89.089027,-1850.514855,12731.542202,7737.564530
89.089336,2368.659014,10510.924376,6894.859482
89.089646,2738.761985,6365.771101,5822.325785
89.089955,-3552.988522,222.061783,9039.926876
89.090265,-1776.494261,2442.679609,2528.115143
89.090574,4811.338623,5625.565159,-11721.261119
89.090884,6809.894666,3849.070898,-15398.519510
89.091193,1110.308913,10881.027347,-3064.381992
89.091503,-5995.668130,12805.562797,9652.803275
89.091812,-74.020594,16654.633695,6588.421283
89.092122,4515.256246,10658.965565,-612.876398
89.092431,-5773.606348,9326.594869,3064.381992
89.092741,-6587.832884,10214.842000,3983.696590
89.093050,5107.421000,10584.944971,-14172.766713
89.093360,4663.297435,9770.718434,-22446.598091
89.093669,-2664.741391,12139.377449,-919.314598
89.093979,-4737.318029,11325.150913,13330.061665
89.094288,2368.659014,12435.459826,5515.887586
89.094598,3923.091493,9104.533087,1378.971896
89.094907,-4367.215058,3627.009116,7354.516781
89.095217,-5551.544565,3552.988522,3600.648841
89.095526,3108.864956,5181.441594,-13253.452115
89.095836,5181.441594,6957.935855,-17466.977354
89.096145,-592.164754,10214.842000,-2911.162892
89.096455,-3108.864956,13841.851115,8810.098227
89.096764,-296.082377,15174.221811,6665.030833
89.097074,5847.626942,12361.439231,-919.314598
89.097383,-4589.276840,7698.141797,1302.362347
89.097693,-5329.482782,8364.327145,3600.648841
89.098002,3627.009116,10510.924376,-11184.994271
89.098311,4071.132681,11325.150913,-20148.311597
89.098621,-148.041188,12213.398043,-5515.887586
89.098930,-2664.741391,14211.954086,7660.954980
89.099240,1258.350101,11251.130318,3753.867940
89.099549,2516.700203,9844.739029,2911.162892
89.099859,-4071.132681,3404.947333,7431.126331
89.100168,-3182.885551,2590.720797,4749.792088
89.100478,4145.153275,5847.626942,-9039.926876
89.100787,6291.750507,6291.750507,-14862.252661
89.101097,740.205942,9474.636058,-6205.373534
89.101406,-2738.761985,12139.377449,4826.401637
89.101716,-1998.556043,13471.748144,7277.907231
89.102025,3997.112087,15026.180623,995.924147
89.102335,-1184.329507,9474.636058,-1302.362347
89.102644,-5773.606348,7624.121203,5286.058936
89.102954,1850.514855,7846.182985,-5132.839837
89.103263,5477.523971,9104.533087,-20148.311597
89.103573,-814.226536,11325.150913,-10418.898773
89.103882,-5551.544565,10140.821405,8963.317327
89.104192,-296.082377,11029.068536,7048.078582
89.104501,4515.256246,10658.965565,612.876398
89.104811,-222.061783,6661.853478,4290.134789
89.105120,-4219.173869,3552.988522,5669.106685
89.105430,2146.597232,6365.771101,-4290.134789
89.105739,5255.462188,6735.874072,-14709.033562
89.106049,888.247130,9474.636058,-7890.783629
89.106358,-2590.720797,10362.883188,5362.668486
89.106668,-3849.070898,13545.768739,5592.497135
89.106977,4071.132681,14804.118840,-766.095498
89.107287,-2442.679609,10658.965565,306.438199
89.107596,-5033.400406,9474.636058,4213.525239
89.107906,-1110.308913,8364.327145,-4060.306139
89.108215,6143.709319,9474.636058,-19075.777900
89.108525,1184.329507,7550.100608,-9806.022374
89.108834,-3997.112087,11029.068536,6741.640382
89.109143,-962.267725,9178.553681,6665.030833
89.109453,4589.276840,7402.059420,4136.915689
89.109762,666.185348,6439.791695,6281.983084
89.110072,-4367.215058,3775.050304,5975.544884
89.110381,592.164754,6069.688724,-5822.325785
89.110691,5181.441594,8882.471304,-14938.862211
89.111000,4071.132681,10288.862594,-11184.994271
89.111310,-2886.803174,12731.542202,1915.238745
89.111619,-888.247130,15470.304188,6281.983084
89.111929,1702.473667,14434.015869,2451.505594
89.112238,2072.576638,12287.418637,4519.963438
89.112548,-4663.297435,7698.141797,5439.278036
89.112857,-1554.432478,9548.656652,-1762.019645
89.113167,4885.359217,8882.471304,-16930.710506
89.113476,3404.947333,9326.594869,-13942.938064
89.113786,-1184.329507,11547.212695,1685.410096
89.114095,-1628.453072,10510.924376,7048.078582
89.114405,3182.885551,9400.615463,2374.896044
89.114715,2294.638420,6513.812290,4826.401637
89.115024,-5551.544565,2442.679609,9116.536426
89.115334,-0.000000,6291.750507,-229.828649
89.115643,3923.091493,6661.853478,-12410.747068
89.115953,2220.617826,9252.574275,-12257.527968
89.116262,-2960.823768,11621.233289,0.000000
89.116572,-3256.906145,16580.613101,5209.449386
89.116881,3182.885551,14878.139434,-1532.190996
89.117191,2220.617826,11695.253884,-153.219100
89.117500,-6513.812290,7328.038826,8427.050478
89.117810,-3404.947333,7254.018232,4213.525239
89.118119,4145.153275,11399.171507,-12334.137518
89.118429,4441.235652,7328.038826,-14632.424012
89.118738,-2738.761985,9474.636058,459.657299
89.119048,-3404.947333,10732.986159,5975.544884
89.119357,2146.597232,11843.295072,1608.800546
89.119667,2072.576638,9252.574275,995.924147
89.119976,-5625.565159,6291.750507,7584.345430
89.120286,-1332.370696,6587.832884,383.047749
89.120595,4663.297435,8364.327145,-12257.527968
89.120905,3849.070898,10955.047942,-12027.699319
89.121214,-1480.411884,8438.347739,153.219100
89.121524,-2220.617826,11177.109724,5209.449386
89.121834,1258.350101,13027.624579,2298.286494
89.122143,962.267725,11547.212695,5592.497135
89.122453,-4367.215058,8364.327145,6435.202183
89.122762,-4219.173869,9474.636058,76.609550
89.123072,3849.070898,9918.759623,-13330.061665
89.123381,3108.864956,7846.182985,-16624.272307
89.123691,-0.000000,10510.924376,-2757.943793
89.124000,-2072.576638,11103.089130,4366.744339
89.124310,370.102971,12731.542202,4290.134789
89.124619,3701.029710,7550.100608,5132.839837
89.124929,-2960.823768,5477.523971,7660.954980
89.125238,-1332.370696,4885.359217,3907.087040
89.125548,1480.411884,7476.080014,-7431.126331
89.125857,4441.235652,9030.512492,-15321.909960
89.126167,2220.617826,11473.192101,-8044.002729
89.126476,-4071.132681,14804.118840,5515.887586
89.126786,-296.082377,13471.748144,3294.210641
89.127095,3478.967927,10807.006753,1225.752797
89.127405,-2738.761985,9178.553681,4596.572988
89.127714,-5847.626942,6883.915261,4443.353888
89.128024,1184.329507,8808.450710,-9039.926876
89.128333,6439.791695,7698.141797,-17926.634653
89.128643,370.102971,9992.780217,-6511.811733
89.128952,-2738.761985,10955.047942,7124.688131
89.129262,-0.000000,10658.965565,8580.269578
89.129572,4293.194464,10881.027347,2528.115143
89.129881,-888.247130,5181.441594,6665.030833
89.130191,-4589.276840,3849.070898,5439.278036
89.130500,962.267725,6809.894666,-7354.516781
89.130810,2072.576638,9844.739029,-16777.491406
89.131119,-814.226536,12435.459826,-6435.202183
89.131429,-2516.700203,14434.015869,3140.991542
89.131738,-888.247130,16284.530724,229.828649
89.132048,2812.782580,13323.706956,0.000000
89.132357,-3478.967927,7846.182985,5898.935335
89.132667,-4959.379811,7328.038826,4443.353888
89.132976,2294.638420,7846.182985,-7890.783629
89.133286,5403.503377,8438.347739,-16930.710506
89.133595,-0.000000,7179.997637,-8580.269578
89.133905,-1184.329507,9548.656652,6971.469032
89.134214,-370.102971,8660.409521,6971.469032
89.134524,2442.679609,10436.903782,3294.210641
89.134833,-296.082377,5699.585753,4826.401637
89.135143,-6439.791695,3775.050304,3830.477490
89.135452,370.102971,7624.121203,-7277.907231
89.135762,3552.988522,11695.253884,-16930.710506
89.136071,888.247130,13693.809927,-10648.727422
89.136381,-2072.576638,15248.242405,2451.505594
89.136691,-370.102971,17024.736666,3447.429741
89.137000,4589.276840,13693.809927,2068.457845
89.137310,-2516.700203,8660.409521,6971.469032
89.137619,-5699.585753,6957.935855,7277.907231
89.137929,666.185348,6439.791695,-7814.174080
89.138238,4589.276840,7846.182985,-18692.730151
89.138548,1998.556043,8364.327145,-10572.117872
89.138857,-740.205942,9178.553681,3064.381992
89.139167,-2368.659014,9770.718434,7124.688131
89.139476,370.102971,10362.883188,5515.887586
89.139786,1850.514855,5995.668130,5056.230287
89.140095,-4071.132681,1628.453072,5209.449386
89.140405,-1554.432478,7550.100608,-1991.848295
89.140714,6365.771101,9622.677246,-12104.308868
89.141024,3627.009116,11695.253884,-12947.013916
89.141333,-2664.741391,14137.933492,3064.381992
89.141643,-1776.494261,16284.530724,7660.954980
89.141952,4145.153275,14582.057057,0.000000
89.142262,-1406.391290,9030.512492,3294.210641
89.142571,-6809.894666,7772.162391,7124.688131
89.142881,-592.164754,8216.285956,-4903.011187
89.143190,4959.379811,8068.244768,-19458.825649
89.143500,3034.844362,8216.285956,-11261.603821
89.143810,-1924.535449,11029.068536,3677.258390
89.144119,-1258.350101,9622.677246,6665.030833
89.144429,2072.576638,9030.512492,6281.983084
89.144738,1776.494261,6957.935855,5132.839837
89.145048,-3330.926739,814.226536,2911.162892
89.145357,-1406.391290,5699.585753,-1149.143247
89.145667,4737.318029,7846.182985,-12257.527968
89.145976,3330.926739,9622.677246,-13483.280765
89.146286,-2294.638420,16136.489536,1455.581446
89.146595,-5255.462188,15988.448347,9346.365076
89.146905,1924.535449,14656.077652,-995.924147
89.147214,666.185348,10436.903782,-995.924147
89.147524,-8438.347739,9030.512492,3830.477490
89.147833,-1258.350101,9622.677246,-7354.516781
89.148143,4145.153275,7328.038826,-17543.586904
89.148452,2368.659014,9252.574275,-11951.089769
89.148762,1554.432478,9326.594869,4366.744339
89.149071,-1924.535449,8216.285956,9346.365076
89.149381,4441.235652,7550.100608,6128.763984
89.149690,3034.844362,5477.523971,6741.640382
89.150000,-3182.885551,666.185348,4366.744339
89.150309,-2886.803174,4959.379811,-919.314598
89.150619,2442.679609,9770.718434,-12717.185267
89.150928,2812.782580,11325.150913,-16241.224558
89.151238,-1554.432478,15322.262999,-3064.381992
89.151548,-3775.050304,16506.592507,5975.544884
89.151857,1480.411884,15840.407159,459.657299
89.152167,814.226536,10955.047942,3677.258390
89.152476,-6143.709319,6365.771101,5669.106685
89.152786,-2220.617826,6883.915261,459.657299
89.153095,4959.379811,7328.038826,-13330.061665
89.153405,3849.070898,5551.544565,-12410.747068
89.153714,740.205942,8956.491898,1532.190996
89.154024,-4515.256246,8586.388927,8350.440928
89.154333,740.205942,9622.677246,5592.497135
89.154643,2886.803174,7105.977043,3370.820191
89.154952,-1776.494261,3701.029710,383.047749
89.155262,-2072.576638,3478.967927,-766.095498
89.155571,1332.370696,10732.986159,-7584.345430
89.155881,3108.864956,12731.542202,-14709.033562
89.156190,-0.000000,13545.768739,-4749.792088
89.156500,-4589.276840,16580.613101,8656.879127
89.156809,814.226536,17098.757260,2145.067394
89.157119,4589.276840,12213.398043,-2221.676944
89.157428,-4293.194464,8364.327145,4443.353888
89.157738,-3627.009116,7254.018232,2221.676944
89.158047,1998.556043,9104.533087,-10189.070123
89.158357,2516.700203,7254.018232,-12640.575717
89.158667,1554.432478,7624.121203,-1455.581446
89.158976,-2368.659014,8142.265362,4136.915689
89.159286,-592.164754,8364.327145,3370.820191
89.159595,1258.350101,7994.224174,4979.620737
89.159905,-0.000000,3849.070898,612.876398
89.160214,-2590.720797,4737.318029,-1532.190996
89.160524,1110.308913,10066.800811,-4596.572988
89.160833,3404.947333,11103.089130,-12793.794817
89.161143,1406.391290,12287.418637,-5898.935335
89.161452,-2664.741391,16802.674883,6128.763984
89.161762,444.123565,15026.180623,4519.963438
89.162071,2738.761985,11991.336260,-842.705048
89.162381,-5847.626942,8882.471304,4060.306139
89.162690,-3997.112087,9696.697840,0.000000
89.163000,2590.720797,7031.956449,-12947.013916
89.163309,3034.844362,7402.059420,-14019.547613
89.163619,592.164754,8734.430116,0.000000
89.163928,-1332.370696,7846.182985,4903.011187
89.164238,-1628.453072,9696.697840,6281.983084
89.164547,4885.359217,6587.832884,5898.935335
89.164857,1924.535449,1998.556043,2298.286494
89.165166,-2294.638420,1258.350101,2528.115143
89.165476,-2368.659014,8290.306550,76.609550
89.165786,4811.338623,11399.171507,-11644.651570
89.166095,2516.700203,12065.356855,-9346.365076
89.166405,-3849.070898,15914.427753,3753.867940
89.166714,-814.226536,15618.345376,1915.238745
89.167024,2294.638420,13989.892304,-3370.820191
89.167333,-3404.947333,10807.006753,2528.115143
89.167643,-5921.647536,9326.594869,4596.572988
89.167952,74.020594,11325.150913,-9806.022374
89.168262,4367.215058,9770.718434,-15245.300410
89.168571,-74.020594,7550.100608,-4213.525239
89.168881,-666.185348,9992.780217,4060.306139
89.169190,-0.000000,9252.574275,3217.601092
89.169500,4293.194464,7624.121203,2834.553343
89.169809,740.205942,3478.967927,5745.716235
89.170119,-2664.741391,1554.432478,4519.963438
89.170428,-1998.556043,6809.894666,-1072.533697
89.170738,962.267725,11399.171507,-7507.735880
89.171047,4441.235652,9030.512492,-10418.898773
89.171357,-2146.597232,12583.501014,-1915.238745
89.171666,-3256.906145,15174.221811,3217.601092
89.171976,-444.123565,14137.933492,536.266849
89.172285,-1258.350101,9992.780217,-2834.553343
89.172595,-2960.823768,10140.821405,1072.533697
89.172904,-1036.288319,9548.656652,-3753.867940
89.173214,5551.544565,10140.821405,-13253.452115
89.173524,2516.700203,8512.368333,-5898.935335
89.173833,-1332.370696,10658.965565,5669.106685
89.174143,-1258.350101,10362.883188,5515.887586
89.174452,2442.679609,7624.121203,1072.533697
89.174762,3478.967927,5847.626942,2145.067394
89.175071,-1258.350101,518.144159,2911.162892
89.175381,-1850.514855,4515.256246,-689.485948
89.175690,1110.308913,8364.327145,-8120.612279
89.176000,4515.256246,9992.780217,-10725.336972
89.176309,370.102971,11399.171507,-1532.190996
89.176619,-3478.967927,13471.748144,7814.174080
89.176928,-0.000000,15544.324782,2528.115143
89.177238,2146.597232,12953.603985,76.609550
89.177547,-4441.235652,10140.821405,3217.601092
89.177857,-1776.494261,13027.624579,-4749.792088
89.178166,4293.194464,11769.274478,-15475.129060
89.178476,2738.761985,9770.718434,-12257.527968
89.178785,-3404.947333,10066.800811,2681.334243
89.179095,-1776.494261,10140.821405,5975.544884
89.179404,2368.659014,7772.162391,1225.752797
89.179714,3478.967927,5181.441594,4519.963438
89.180023,-3256.906145,1554.432478,7124.688131
89.180333,-2294.638420,4293.194464,459.657299
89.180643,2368.659014,7476.080014,-7354.516781
89.180952,3256.906145,8438.347739,-10189.070123
89.181262,-444.123565,11843.295072,-3294.210641
89.181571,-3034.844362,15322.262999,3370.820191
89.181881,814.226536,17172.777854,612.876398
89.182190,1998.556043,14804.118840,-2451.505594
89.182500,-3775.050304,9326.594869,2145.067394
89.182809,-3627.009116,10658.965565,-153.219100
89.183119,3701.029710,9918.759623,-12104.308868
89.183428,3182.885551,9548.656652,-13713.109414
89.183738,-0.000000,8734.430116,459.657299
89.184047,-3034.844362,8142.265362,5975.544884
89.184357,1628.453072,7624.121203,2911.162892
89.184666,3849.070898,5403.503377,3370.820191
89.184976,-1184.329507,1850.514855,1991.848295
89.185285,-4885.359217,3330.926739,3140.991542
89.185595,296.082377,8956.491898,-5056.230287
89.185904,3330.926739,10732.986159,-12487.356617
89.186214,3478.967927,12805.562797,-8503.660028
89.186523,-4589.276840,14211.954086,2451.505594
89.186833,-1776.494261,17172.777854,4290.134789
89.187142,2294.638420,13175.665768,-383.047749
89.187452,-2146.597232,9548.656652,1991.848295
89.187762,-3923.091493,10807.006753,1685.410096
89.188071,2368.659014,10436.903782,-10189.070123
89.188381,4071.132681,7328.038826,-14402.595362
89.188690,592.164754,8512.368333,-2528.115143
89.189000,-2442.679609,9326.594869,5439.278036
89.189309,2368.659014,8438.347739,6435.202183
89.189619,3034.844362,6661.853478,5439.278036
89.189928,-74.020594,2812.782580,6281.983084
89.190238,-3330.926739,2368.659014,2298.286494
89.190547,-296.082377,8068.244768,-4673.182538
89.190857,5625.565159,7698.141797,-13176.842566
89.191166,2368.659014,11843.295072,-8963.317327
89.191476,-2368.659014,13693.809927,3600.648841
89.191785,-1850.514855,16876.695478,4903.011187
89.192095,2442.679609,14211.954086,1072.533697
89.192404,-2812.782580,8956.491898,3753.867940
89.192714,-6513.812290,8882.471304,4903.011187
89.193023,1998.556043,10807.006753,-9269.755526
89.193333,4293.194464,9178.553681,-17313.758255
89.193642,-1998.556043,10362.883188,-5515.887586
89.193952,-2442.679609,10807.006753,5286.058936
89.194261,-592.164754,8956.491898,3370.820191
89.194571,2294.638420,9030.512492,4826.401637
89.194880,1702.473667,2664.741391,6128.763984
89.195190,-3404.947333,1554.432478,2298.286494
89.195500,-1924.535449,6957.935855,-2145.067394
89.195809,3849.070898,8660.409521,-10801.946522
89.196119,3478.967927,11399.171507,-11797.870669
89.196428,-518.144159,13619.789333,919.314598
89.196738,-4293.194464,14508.036463,8273.831378
89.197047,2368.659014,15618.345376,1378.971896
89.197357,296.082377,8364.327145,-1378.971896
89.197666,-7179.997637,8660.409521,2757.943793
89.197976,-370.102971,9844.739029,-6052.154434
89.198285,4293.194464,10140.821405,-16624.272307
89.198595,518.144159,10658.965565,-9422.974625
89.198904,-518.144159,9992.780217,5209.449386
89.199214,-1776.494261,9178.553681,2604.724693
89.199523,3701.029710,9474.636058,4979.620737
89.199833,444.123565,4367.215058,5822.325785
89.200142,-3404.947333,-0.000000,4673.182538
89.200452,-518.144159,5477.523971,-1685.410096
89.200761,3034.844362,9918.759623,-10878.556072
89.201071,3701.029710,11325.150913,-13176.842566
89.201380,-148.041188,11769.274478,-1149.143247
89.201690,-4219.173869,13989.892304,7967.393179
89.201999,1628.453072,14730.098246,3677.258390
89.202309,518.144159,12213.398043,995.924147
89.202619,-5033.400406,6217.729913,3983.696590
89.202928,-1110.308913,8512.368333,-1838.629195
89.203238,3330.926739,10288.862594,-15934.786358
89.203547,4885.359217,9474.636058,-15015.471761
89.203857,-1850.514855,10140.821405,3294.210641
89.204166,-1332.370696,11547.212695,8197.221829
89.204476,2960.823768,10807.006753,3600.648841
89.204785,2146.597232,6883.915261,4596.572988
89.205095,-6513.812290,2886.803174,7048.078582
89.205404,-2664.741391,3997.112087,-1072.533697
89.205714,3627.009116,6883.915261,-12257.527968
89.206023,4219.173869,10732.986159,-13330.061665
89.206333,-1628.453072,13027.624579,-4979.620737
89.206642,-4219.173869,15766.386565,6588.421283
89.206952,740.205942,16062.468941,3140.991542
89.207261,2294.638420,10140.821405,153.219100
89.207571,-5847.626942,7031.956449,2451.505594
89.207880,-4145.153275,9326.594869,-2451.505594
89.208190,2590.720797,9474.636058,-14019.547613
89.208499,2960.823768,10510.924376,-13559.890315
89.208809,296.082377,8882.471304,-689.485948
89.209118,-2294.638420,11917.315666,5898.935335
89.209428,-370.102971,12731.542202,6358.592633
89.209738,1850.514855,5699.585753,4596.572988
89.210047,-2664.741391,1850.514855,1608.800546
89.210357,-518.144159,2442.679609,-1685.410096
89.210666,-0.000000,8068.244768,-5592.497135
89.210976,3627.009116,10436.903782,-10955.165621
89.211285,1702.473667,10732.986159,-2604.724693
89.211595,-4441.235652,14730.098246,7048.078582
89.211904,888.247130,15100.201217,5132.839837
89.212214,1554.432478,12435.459826,-5669.106685
89.212523,-3404.947333,7105.977043,-459.657299
89.212833,-5033.400406,8142.265362,229.828649
89.213142,2812.782580,11325.150913,-13100.233016
89.213451,3182.885551,9918.759623,-16088.005458
89.213761,592.164754,10658.965565,-995.924147
89.214070,-2738.761985,9770.718434,8273.831378
89.214380,2590.720797,9178.553681,3447.429741
89.214689,3330.926739,6661.853478,4443.353888
89.214999,-3478.967927,1776.494261,6741.640382
89.215308,-1480.411884,2220.617826,76.609550
89.215618,3849.070898,7624.121203,-8427.050478
89.215927,4589.276840,11843.295072,-10955.165621
89.216237,-444.123565,10807.006753,-3064.381992
89.216546,-4811.338623,13323.706956,2834.553343
89.216856,-1628.453072,14952.160028,4366.744339
89.217165,2442.679609,13027.624579,-766.095498
89.217475,-1702.473667,8364.327145,76.609550
89.217784,-7772.162391,7328.038826,1072.533697
89.218094,962.267725,11177.109724,-7890.783629
89.218403,4293.194464,9696.697840,-14555.814462
89.218713,1850.514855,9918.759623,-2987.772442
89.219022,-3108.864956,10732.986159,9499.584175
89.219332,370.102971,11843.295072,5515.887586
89.219641,3775.050304,7698.141797,76.609550
89.219951,-518.144159,2886.803174,2374.896044
89.220260,-4145.153275,3330.926739,1608.800546
89.220569,962.267725,7105.977043,-6971.469032
89.220879,4811.338623,9030.512492,-10265.679673
89.221188,2220.617826,11399.171507,-4213.525239
89.221498,-3108.864956,12435.459826,5439.278036
89.221807,-1628.453072,14285.974681,5515.887586
89.222117,4145.153275,10584.944971,689.485948
89.222426,-2738.761985,7624.121203,0.000000
89.222736,-3701.029710,9770.718434,229.828649
89.223045,-814.226536,10732.986159,-8120.612279
89.223355,3552.988522,12657.521608,-14402.595362
89.223664,3701.029710,12287.418637,-6205.373534
89.223974,-666.185348,11695.253884,4903.011187
89.224283,-1406.391290,11103.089130,4903.011187
89.224593,2368.659014,7698.141797,2681.334243
89.224902,74.020594,2368.659014,-459.657299
89.225212,-2812.782580,3701.029710,1685.410096
89.225521,-0.000000,5699.585753,-3294.210641
89.225831,2590.720797,8438.347739,-7814.174080
89.226140,2886.803174,9696.697840,-5745.716235
89.226450,-1406.391290,11547.212695,1455.581446
89.226759,-1776.494261,13989.892304,5209.449386
89.227069,2738.761985,11917.315666,-612.876398
89.227378,-1258.350101,8586.388927,-2451.505594
89.227687,-3478.967927,7476.080014,383.047749
89.227997,-1924.535449,10510.924376,-4903.011187
89.228306,3256.906145,12287.418637,-13483.280765
89.228616,2146.597232,9104.533087,-6665.030833
89.228925,-2146.597232,11473.192101,6128.763984
