#time,accel_x,accel_y,accel_z
98.399309,-222.061783,9770.718434,-1378.971896
98.399619,-444.123565,9844.739029,-995.924147
98.399928,1184.329507,8586.388927,-689.485948
98.400238,666.185348,9622.677246,-1685.410096
98.400548,-222.061783,9918.759623,-1608.800546
98.400858,-296.082377,9548.656652,-1378.971896
98.401167,-0.000000,9918.759623,1608.800546
98.401477,222.061783,9918.759623,-1225.752797
98.401787,-296.082377,8586.388927,-1149.143247
98.402096,296.082377,9252.574275,-1532.190996
98.402406,-0.000000,9400.615463,-2068.457845
98.402716,1702.473667,9548.656652,-76.609550
98.403026,370.102971,9696.697840,-612.876398
98.403335,-518.144159,9474.636058,-306.438199
98.403645,444.123565,9252.574275,-1302.362347
98.403955,592.164754,9548.656652,-2374.896044
98.404265,-296.082377,9918.759623,-459.657299
98.404574,-0.000000,9030.512492,-536.266849
98.404884,148.041188,9474.636058,-995.924147
98.405194,370.102971,9548.656652,-689.485948
98.405504,-1554.432478,10510.924376,-3600.648841
98.405813,-0.000000,9178.553681,-1838.629195
98.406123,370.102971,9400.615463,-383.047749
98.406433,148.041188,8216.285956,766.095498
98.406743,1110.308913,8142.265362,842.705048
98.407052,1776.494261,8512.368333,-2221.676944
98.407362,5181.441594,6957.935855,2068.457845
98.407672,1480.411884,7624.121203,9116.536426
98.407982,-888.247130,6661.853478,9806.022374
98.408291,2368.659014,6661.853478,9729.412825
98.408601,7105.977043,7846.182985,4213.525239
98.408911,3108.864956,5625.565159,4903.011187
98.409221,-3034.844362,9104.533087,13942.938064
98.409530,-0.000000,12139.377449,13253.452115
98.409840,2368.659014,12657.521608,2834.553343
98.410150,1702.473667,12435.459826,4903.011187
98.410459,-2220.617826,11695.253884,13100.233016
98.410769,-12731.542202,17468.860231,12717.185267
98.411079,17024.736666,21688.034101,-3140.991542
98.411389,-4737.318029,6291.750507,1455.581446
98.411698,-2220.617826,14359.995275,18999.168350
98.412008,-21095.869347,10807.006753,29954.333972
98.412318,4441.235652,18579.169144,0.000000
98.412628,7550.100608,8660.409521,-4060.306139
98.412937,-6957.935855,11843.295072,7201.297681
98.413247,-8512.368333,9696.697840,10725.336972
98.413557,370.102971,9474.636058,459.657299
98.413867,-666.185348,7031.956449,3677.258390
98.414176,-6809.894666,5699.585753,19841.873398
98.414486,4071.132681,4367.215058,14785.643111
98.414796,-4145.153275,-518.144159,11414.822920
98.415106,2886.803174,4071.132681,14325.985813
98.415415,-2368.659014,6661.853478,10801.946522
98.415725,-1924.535449,5033.400406,2451.505594
98.416035,-0.000000,12805.562797,5132.839837
98.416345,1332.370696,13767.830521,76.609550
98.416654,4885.359217,13175.665768,-3064.381992
98.416964,-74.020594,10807.006753,18922.558801
98.417274,-1924.535449,7179.997637,27272.999729
98.417584,-592.164754,3997.112087,20684.578446
98.417893,5181.441594,7031.956449,8886.707777
98.418203,-1036.288319,7994.224174,5745.716235
98.418513,5033.400406,13545.768739,76.609550
98.418823,3256.906145,17690.922014,-3983.696590
98.419132,1110.308913,17616.901420,5056.230287
98.419442,-4145.153275,15174.221811,15168.690860
98.419752,-6365.771101,11177.109724,13330.061665
98.420061,2220.617826,8512.368333,4443.353888
98.420371,5033.400406,8586.388927,-4443.353888
98.420681,3997.112087,7846.182985,2068.457845
98.420991,-148.041188,9474.636058,15015.471761
98.421300,-1850.514855,9474.636058,15245.300410
98.421610,3404.947333,7624.121203,7201.297681
98.421920,4589.276840,5403.503377,1302.362347
98.422230,-3701.029710,2220.617826,3983.696590
98.422539,-7105.977043,5847.626942,7814.174080
98.422849,296.082377,7402.059420,1225.752797
98.423159,7994.224174,9178.553681,-7507.735880
98.423469,5255.462188,8068.244768,2068.457845
98.423778,-7105.977043,7476.080014,18233.072852
98.424088,-7698.141797,8660.409521,21067.626195
98.424398,2442.679609,11991.336260,3217.601092
98.424708,4959.379811,12139.377449,-10725.336972
98.425017,-4367.215058,12805.562797,-3600.648841
98.425327,-10066.800811,13915.871710,2298.286494
98.425637,-592.164754,14952.160028,-7277.907231
98.425947,9548.656652,13693.809927,-8656.879127
98.426256,-1850.514855,9696.697840,10878.556072
98.426566,-9474.636058,8142.265362,24898.103685
98.426876,11325.150913,4737.318029,9652.803275
98.427186,7624.121203,-814.226536,-6818.249932
98.427495,-518.144159,2960.823768,0.000000
98.427805,-12583.501014,1184.329507,9882.631924
98.428115,8808.450710,9844.739029,-6511.811733
98.428424,12879.583391,7179.997637,-17160.539155
98.428734,-9326.594869,5477.523971,12334.137518
98.429044,-6661.853478,8734.430116,31103.477219
98.429354,3108.864956,3849.070898,4060.306139
98.429663,9400.615463,10436.903782,-15704.957709
98.429973,-4293.194464,10362.883188,1302.362347
98.430283,-5699.585753,13693.809927,153.219100
98.430593,7846.182985,14804.118840,-13406.671215
98.430902,7105.977043,19911.539840,-8656.879127
98.431212,-4515.256246,12139.377449,7507.735880
98.431522,-7772.162391,10881.027347,21067.626195
98.431832,5107.421000,11547.212695,8197.221829
98.432141,5255.462188,8808.450710,-8044.002729
98.432451,2738.761985,12435.459826,-8120.612279
98.432761,2960.823768,9252.574275,-1608.800546
98.433071,5699.585753,13027.624579,-1302.362347
98.433380,962.267725,14211.954086,4366.744339
98.433690,-4293.194464,11917.315666,14019.547613
98.434000,-1258.350101,8956.491898,12180.918418
98.434310,-7105.977043,6809.894666,306.438199
98.434619,-222.061783,8512.368333,-6665.030833
98.434929,7402.059420,6217.729913,-14249.376263
98.435239,3330.926739,9400.615463,-9882.631924
98.435549,-9030.512492,11177.109724,9806.022374
98.435858,-1776.494261,8586.388927,17850.025103
98.436168,5625.565159,6587.832884,-1149.143247
98.436478,-6661.853478,4663.297435,229.828649
98.436787,-7328.038826,6587.832884,7507.735880
98.437097,5255.462188,4589.276840,-13330.061665
98.437407,4737.318029,6957.935855,-19228.997000
98.437717,-7105.977043,8882.471304,10418.898773
98.438026,-5033.400406,9918.759623,17850.025103
98.438336,2072.576638,8512.368333,-2068.457845
98.438646,-2368.659014,11399.171507,-2451.505594
98.438956,-3256.906145,14582.057057,4596.572988
98.439265,4071.132681,10955.047942,-11721.261119
98.439575,3034.844362,11251.130318,-14019.547613
98.439885,-4589.276840,13989.892304,5056.230287
98.440195,-814.226536,10584.944971,8197.221829
98.440504,962.267725,8882.471304,-2681.334243
98.440814,-4145.153275,11769.274478,4290.134789
98.441124,2146.597232,12657.521608,306.438199
98.441434,7994.224174,8142.265362,-17160.539155
98.441743,-2220.617826,9326.594869,-5745.716235
98.442053,-4367.215058,8068.244768,12257.527968
98.442363,3849.070898,4737.318029,-842.705048
98.442673,1850.514855,8734.430116,-9806.022374
98.442982,-6513.812290,12361.439231,2681.334243
98.443292,1258.350101,12657.521608,-1838.629195
98.443602,11103.089130,10584.944971,-18616.120601
98.443912,740.205942,7772.162391,-2528.115143
98.444221,-2738.761985,7254.018232,16317.834107
98.444531,3330.926739,1332.370696,1685.410096
98.444841,2442.679609,4515.256246,-6588.421283
98.445150,-1628.453072,11399.171507,1225.752797
98.445460,5403.503377,12805.562797,-7354.516781
98.445770,7402.059420,12583.501014,-14249.376263
98.446080,-1184.329507,10362.883188,76.609550
98.446389,-1998.556043,6291.750507,9959.241474
98.446699,1924.535449,3552.988522,-1991.848295
98.447009,-1110.308913,8216.285956,-7660.954980
98.447319,-666.185348,12657.521608,-1532.190996
98.447628,6439.791695,10658.965565,-9499.584175
98.447938,4219.173869,12657.521608,-10189.070123
98.448248,-3775.050304,13175.665768,10265.679673
98.448558,-1036.288319,9622.677246,12410.747068
98.448867,740.205942,3034.844362,-3064.381992
98.449177,-2812.782580,7772.162391,-5056.230287
98.449487,-814.226536,9030.512492,-2528.115143
98.449797,1480.411884,12139.377449,-10725.336972
98.450106,1480.411884,13989.892304,-7354.516781
98.450416,-4663.297435,11991.336260,7890.783629
98.450726,-3478.967927,8068.244768,7277.907231
98.451036,-4885.359217,7105.977043,-1838.629195
98.451345,-5921.647536,9252.574275,-4136.915689
98.451655,2886.803174,12657.521608,-8886.707777
98.451965,6439.791695,11843.295072,-14632.424012
98.452275,-1850.514855,10510.924376,1072.533697
98.452584,-5847.626942,9252.574275,16317.834107
98.452894,1776.494261,2590.720797,8810.098227
98.453204,740.205942,444.123565,-2604.724693
98.453513,-5773.606348,8290.306550,2221.676944
98.453823,1480.411884,11177.109724,-5439.278036
98.454133,6957.935855,7846.182985,-17543.586904
98.454443,-0.000000,12287.418637,-1991.848295
98.454752,-2738.761985,10362.883188,13176.842566
98.455062,-3478.967927,5033.400406,6894.859482
98.455372,-1776.494261,8142.265362,459.657299
98.455681,-1184.329507,13397.727550,-3140.991542
98.455991,7994.224174,13989.892304,-12257.527968
98.456300,7254.018232,13915.871710,-12027.699319
98.456610,-3701.029710,11473.192101,8044.002729
98.456920,888.247130,9474.636058,13176.842566
98.457229,4293.194464,4811.338623,5132.839837
98.457539,-2590.720797,6291.750507,2451.505594
98.457849,1332.370696,8808.450710,3370.820191
98.458158,5625.565159,11103.089130,-10189.070123
98.458468,4367.215058,11621.233289,-9959.241474
98.458778,-4589.276840,10658.965565,8120.612279
98.459087,-4219.173869,7254.018232,9576.193725
98.459397,-2590.720797,8660.409521,-2681.334243
98.459706,-3997.112087,13619.789333,-5592.497135
98.460016,-370.102971,12731.542202,-7354.516781
98.460326,6365.771101,15174.221811,-12257.527968
98.460635,-296.082377,12065.356855,-2987.772442
98.460945,-5033.400406,8068.244768,13483.280765
98.461255,4737.318029,4737.318029,8427.050478
98.461564,-222.061783,2072.576638,-3064.381992
98.461874,-3108.864956,7031.956449,-612.876398
98.462184,-0.000000,8290.306550,-4136.915689
98.462493,5551.544565,9326.594869,-14862.252661
98.462803,-3478.967927,9178.553681,-4443.353888
98.463113,-7328.038826,7105.977043,13023.623466
98.463422,-1628.453072,5181.441594,3140.991542
98.463732,-888.247130,6365.771101,-9039.926876
98.464041,-962.267725,14285.974681,-4903.011187
98.464351,3627.009116,14285.974681,-8197.221829
98.464661,5625.565159,13471.748144,-9499.584175
98.464970,-0.000000,12213.398043,6205.373534
98.465280,740.205942,9770.718434,13100.233016
98.465590,2886.803174,1702.473667,3064.381992
98.465899,-2516.700203,7031.956449,536.266849
98.466209,-0.000000,13249.686362,-1991.848295
98.466519,7550.100608,9696.697840,-14785.643111
98.466828,6365.771101,11251.130318,-12334.137518
98.467138,-4959.379811,10510.924376,7890.783629
98.467447,-4885.359217,7402.059420,12793.794817
98.467757,-0.000000,4663.297435,-1532.190996
98.468067,-1850.514855,10436.903782,-6052.154434
98.468376,370.102971,11769.274478,-2451.505594
98.468686,6661.853478,13175.665768,-11261.603821
98.468996,4515.256246,12953.603985,-6971.469032
98.469305,-4145.153275,8808.450710,12870.404366
98.469615,-148.041188,4441.235652,13866.328514
98.469925,1406.391290,1480.411884,1149.143247
98.470234,-2812.782580,7624.121203,-1072.533697
98.470544,666.185348,12361.439231,-3370.820191
98.470854,2886.803174,11029.068536,-15168.690860
98.471163,666.185348,11695.253884,-12487.356617
98.471473,-5773.606348,10658.965565,7124.688131
98.471782,-3997.112087,8142.265362,4136.915689
98.472092,-2664.741391,6735.874072,-3830.477490
98.472402,-4515.256246,13693.809927,-2221.676944
98.472711,4737.318029,12361.439231,-6128.763984
98.473021,7105.977043,12287.418637,-10648.727422
98.473331,-2072.576638,11695.253884,2528.115143
98.473640,-3552.988522,7550.100608,15628.348159
98.473950,3627.009116,3627.009116,2528.115143
98.474260,-0.000000,5551.544565,-7507.735880
98.474569,-4737.318029,12287.418637,689.485948
98.474879,1628.453072,12435.459826,-3370.820191
98.475188,5921.647536,9918.759623,-12793.794817
98.475498,-3923.091493,11473.192101,-5439.278036
98.475808,-5699.585753,6661.853478,11184.994271
98.476117,-592.164754,5107.421000,612.876398
98.476427,-370.102971,11621.233289,-6435.202183
98.476737,-2220.617826,15470.304188,-1072.533697
98.477046,7105.977043,16136.489536,-6435.202183
98.477356,4663.297435,10584.944971,-7431.126331
98.477666,-7328.038826,9992.780217,9499.584175
98.477975,-814.226536,6809.894666,13253.452115
98.478285,4515.256246,4367.215058,-2298.286494
98.478594,-2294.638420,7772.162391,-3524.039291
98.478904,-1258.350101,11029.068536,1915.238745
98.479214,3256.906145,9474.636058,-9576.193725
98.479523,1776.494261,8734.430116,-8273.831378
98.479833,-5033.400406,10732.986159,8963.317327
98.480143,-3849.070898,5329.482782,8427.050478
98.480452,962.267725,6365.771101,-6052.154434
98.480762,-1110.308913,13101.645173,-5439.278036
98.481072,962.267725,14434.015869,-3753.867940
98.481381,4145.153275,11547.212695,-8810.098227
98.481691,-74.020594,14804.118840,-3447.429741
98.482001,-4293.194464,11695.253884,9193.145976
98.482310,4885.359217,4737.318029,2221.676944
98.482620,1406.391290,3849.070898,-7890.783629
98.482929,-3404.947333,9918.759623,1302.362347
98.483239,2442.679609,8068.244768,-2298.286494
98.483549,6587.832884,5995.668130,-13942.938064
98.483858,-370.102971,10066.800811,-2298.286494
98.484168,-6661.853478,11029.068536,7354.516781
98.484478,1332.370696,6439.791695,-1915.238745
98.484787,-222.061783,9474.636058,-9576.193725
98.485097,-2886.803174,14211.954086,-3830.477490
98.485407,2516.700203,14730.098246,-8656.879127
98.485716,4219.173869,11769.274478,-13176.842566
98.486026,-2368.659014,12435.459826,1225.752797
98.486335,-592.164754,8882.471304,9806.022374
98.486645,3849.070898,3775.050304,459.657299
98.486955,-3775.050304,5995.668130,-4519.963438
98.487264,-1554.432478,9622.677246,1532.190996
98.487574,5699.585753,6661.853478,-11261.603821
98.487884,1554.432478,7328.038826,-12487.356617
98.488193,-6143.709319,9548.656652,8580.269578
98.488503,-3256.906145,10732.986159,9806.022374
98.488813,1480.411884,7179.997637,-7354.516781
98.489122,-5403.503377,11103.089130,-3294.210641
98.489432,-4663.297435,14137.933492,-1532.190996
98.489742,5551.544565,10732.986159,-16854.100956
98.490051,1776.494261,13915.871710,-10342.289223
98.490361,-2368.659014,12065.356855,7507.735880
98.490670,3552.988522,7254.018232,6358.592633
98.490980,2146.597232,3256.906145,306.438199
98.491290,-6513.812290,6735.874072,9576.193725
98.491599,1924.535449,8956.491898,1302.362347
98.491909,7846.182985,7105.977043,-12870.404366
98.492219,-444.123565,8660.409521,-6052.154434
98.492528,-5403.503377,9474.636058,9499.584175
98.492838,-0.000000,8216.285956,0.000000
98.493148,-2590.720797,7920.203579,-7277.907231
98.493457,-3701.029710,14285.974681,-1838.629195
98.493767,370.102971,14359.995275,-6128.763984
98.494076,2590.720797,13619.789333,-14402.595362
98.494386,-592.164754,14211.954086,-919.314598
98.494696,-0.000000,9622.677246,9039.926876
98.495005,4515.256246,4367.215058,2374.896044
98.495315,-1406.391290,4441.235652,0.000000
98.495625,-4145.153275,7179.997637,1685.410096
98.495934,6365.771101,7179.997637,-7431.126331
98.496244,3849.070898,7402.059420,-13713.109414
98.496554,-3478.967927,10214.842000,3753.867940
98.496863,-3256.906145,7772.162391,12257.527968
98.497173,-0.000000,3849.070898,-3294.210641
98.497483,-3849.070898,11769.274478,-3524.039291
98.497792,-1406.391290,14804.118840,-3907.087040
98.498102,4737.318029,13027.624579,-12563.966167
98.498411,3923.091493,14137.933492,-6741.640382
98.498721,-2442.679609,13027.624579,8963.317327
98.499031,2664.741391,9252.574275,8886.707777
98.499340,2442.679609,4589.276840,1072.533697
98.499650,-3997.112087,7772.162391,3830.477490
98.499960,-1110.308913,10140.821405,306.438199
98.500269,9326.594869,9326.594869,-13866.328514
98.500579,2812.782580,11621.233289,-7660.954980
98.500889,-5477.523971,10807.006753,8810.098227
98.501198,-3775.050304,6365.771101,10648.727422
98.501508,-296.082377,8290.306550,-1455.581446
98.501817,-4071.132681,11251.130318,-3524.039291
98.502127,1702.473667,12435.459826,-6971.469032
98.502437,6661.853478,14063.912898,-13253.452115
98.502746,1628.453072,14508.036463,-2221.676944
98.503056,-1924.535449,11991.336260,11797.870669
98.503366,2220.617826,5255.462188,7431.126331
98.503675,-740.205942,4071.132681,-536.266849
98.503985,-4219.173869,8734.430116,-1608.800546
98.504295,3478.967927,9548.656652,-6435.202183
98.504604,6069.688724,11103.089130,-17850.025103
98.504914,-1480.411884,9622.677246,-2221.676944
98.505224,-3701.029710,6809.894666,10495.508323
98.505533,-74.020594,3182.885551,3447.429741
98.505843,-5107.421000,8438.347739,-2145.067394
98.506152,-4293.194464,10584.944971,919.314598
98.506462,4219.173869,13619.789333,-10648.727422
98.506772,5329.482782,15174.221811,-15475.129060
98.507081,-962.267725,14211.954086,1302.362347
98.507391,-222.061783,9326.594869,10572.117872
98.507701,-0.000000,5033.400406,2068.457845
98.508010,-3108.864956,7550.100608,459.657299
98.508320,-1628.453072,13471.748144,1455.581446
98.508630,6809.894666,11177.109724,-12487.356617
98.508939,4885.359217,10510.924376,-10878.556072
98.509249,-3552.988522,9030.512492,7277.907231
98.509558,-2812.782580,4293.194464,8886.707777
98.509868,-296.082377,6513.812290,-5592.497135
98.510178,-4071.132681,11473.192101,-1532.190996
98.510487,370.102971,14211.954086,-3447.429741
98.510797,6883.915261,14211.954086,-13100.233016
98.511107,2146.597232,12657.521608,-7737.564530
98.511416,-2368.659014,10584.944971,10342.289223
98.511726,-2220.617826,4515.256246,9576.193725
98.512036,814.226536,4737.318029,229.828649
98.512345,-3627.009116,11029.068536,-459.657299
98.512655,1480.411884,13175.665768,-6588.421283
98.512965,6587.832884,8808.450710,-15781.567259
98.513274,-1110.308913,11029.068536,-3217.601092
98.513584,-4811.338623,6809.894666,10878.556072
98.513893,-0.000000,1184.329507,6511.811733
98.514203,-1480.411884,5329.482782,-1915.238745
98.514513,-4737.318029,9548.656652,-459.657299
98.514822,5107.421000,12805.562797,-9729.412825
98.515132,5921.647536,14804.118840,-15475.129060
98.515442,-2368.659014,13175.665768,-1072.533697
98.515751,-3108.864956,7994.224174,10495.508323
98.516061,-222.061783,1998.556043,2757.943793
98.516371,-3404.947333,7772.162391,-919.314598
98.516680,-1998.556043,10436.903782,-383.047749
98.516990,6217.729913,12805.562797,-12947.013916
98.517299,7550.100608,11843.295072,-11568.042020
98.517609,-2886.803174,9696.697840,4213.525239
98.517919,-3108.864956,4071.132681,10418.898773
98.518228,-1036.288319,4293.194464,2681.334243
98.518538,-1924.535449,10510.924376,-2757.943793
98.518848,-148.041188,14656.077652,-4366.744339
98.519157,3330.926739,14582.057057,-10495.508323
98.519467,4885.359217,13175.665768,-9346.365076
98.519777,-1998.556043,9770.718434,6741.640382
98.520086,-370.102971,8142.265362,8963.317327
98.520396,-370.102971,4071.132681,3753.867940
98.520705,-1776.494261,9474.636058,-306.438199
98.521015,3404.947333,11399.171507,-3907.087040
98.521325,5107.421000,7698.141797,-9729.412825
98.521634,888.247130,8068.244768,-3753.867940
98.521944,-5181.441594,6365.771101,9116.536426
98.522254,-1184.329507,3627.009116,7354.516781
98.522563,-518.144159,5403.503377,-6358.592633
98.522873,-3923.091493,13249.686362,-3064.381992
98.523183,-296.082377,15840.407159,-7124.688131
98.523492,4219.173869,13175.665768,-13636.499864
98.523802,962.267725,13841.851115,-6358.592633
98.524112,-5477.523971,7402.059420,2834.553343
98.524421,-444.123565,4737.318029,7660.954980
98.524731,-740.205942,6957.935855,-766.095498
98.525040,-74.020594,10436.903782,-4213.525239
98.525350,5699.585753,10584.944971,-6665.030833
98.525660,4145.153275,7179.997637,-9116.536426
98.525969,-1850.514855,9030.512492,1302.362347
98.526279,-2516.700203,9474.636058,6971.469032
98.526589,-518.144159,3108.864956,-612.876398
98.526898,-3108.864956,10436.903782,-2221.676944
98.527208,-3552.988522,13989.892304,-1991.848295
98.527518,5033.400406,15026.180623,-9959.241474
98.527827,5181.441594,14952.160028,-12334.137518
98.528137,-3775.050304,10881.027347,3140.991542
98.528446,-0.000000,7994.224174,10035.851024
98.528756,666.185348,4959.379811,1685.410096
98.529066,-592.164754,9474.636058,-1762.019645
98.529375,-148.041188,11177.109724,-766.095498
98.529685,6735.874072,10584.944971,-10495.508323
98.529995,2886.803174,8808.450710,-6741.640382
98.530304,-4441.235652,8512.368333,7507.735880
98.530614,-1258.350101,6513.812290,4903.011187
98.530924,740.205942,5995.668130,-5209.449386
98.531233,-4071.132681,11103.089130,-689.485948
98.531543,-3182.885551,13915.871710,-1532.190996
98.531853,6809.894666,12805.562797,-13559.890315
98.532162,2886.803174,11917.315666,-6665.030833
98.532472,-5255.462188,10214.842000,10801.946522
98.532781,-148.041188,4885.359217,7124.688131
98.533091,2442.679609,5847.626942,-2834.553343
98.533401,-1036.288319,9474.636058,536.266849
98.533710,1332.370696,9622.677246,-1685.410096
98.534020,6661.853478,9548.656652,-12257.527968
98.534330,-2368.659014,8808.450710,-2681.334243
98.534639,-2516.700203,8734.430116,5056.230287
98.534949,-888.247130,5625.565159,-1685.410096
98.535259,-3849.070898,9178.553681,-5056.230287
98.535568,-2886.803174,11917.315666,-1762.019645
98.535878,2516.700203,12361.439231,-7277.907231
98.536187,6069.688724,10584.944971,-9576.193725
98.536497,-2664.741391,9992.780217,4826.401637
98.536807,-740.205942,6957.935855,10189.070123
98.537116,3182.885551,2368.659014,536.266849
98.537426,-592.164754,6883.915261,-2145.067394
98.537736,-2072.576638,11621.233289,1685.410096
98.538045,3997.112087,9844.739029,-6511.811733
98.538355,592.164754,9844.739029,-11721.261119
98.538665,-3552.988522,8734.430116,2528.115143
98.538974,-1332.370696,8068.244768,6281.983084
98.539284,1184.329507,5847.626942,-2145.067394
98.539594,-3775.050304,10584.944971,-1302.362347
98.539903,-444.123565,13915.871710,-842.705048
98.540213,4959.379811,11399.171507,-8656.879127
98.540522,4589.276840,10732.986159,-6741.640382
98.540832,-4737.318029,10288.862594,8963.317327
98.541142,1110.308913,9400.615463,9269.755526
98.541451,2516.700203,6365.771101,-2604.724693
98.541761,-444.123565,9252.574275,0.000000
98.542071,-1184.329507,10288.862594,0.000000
98.542380,4145.153275,9992.780217,-9116.536426
98.542690,3478.967927,10362.883188,-6511.811733
98.543000,-5921.647536,7698.141797,6281.983084
98.543309,2368.659014,7105.977043,3677.258390
98.543619,-1036.288319,8956.491898,-3447.429741
98.543928,-4663.297435,13397.727550,536.266849
98.544238,2812.782580,12139.377449,-3447.429741
98.544548,4293.194464,10955.047942,-12640.575717
98.544857,-2294.638420,11843.295072,-766.095498
98.545167,-4071.132681,8956.491898,12717.185267
98.545477,3552.988522,7031.956449,1302.362347
98.545786,1332.370696,7328.038826,-6205.373534
98.546096,-4293.194464,10732.986159,1149.143247
98.546406,1110.308913,9770.718434,-3907.087040
98.546715,5995.668130,7105.977043,-11797.870669
98.547025,-4145.153275,12139.377449,-1838.629195
98.547335,-4589.276840,6809.894666,9959.241474
98.547644,1332.370696,5625.565159,1991.848295
98.547954,-2812.782580,9622.677246,-2145.067394
98.548263,-3404.947333,13989.892304,1072.533697
98.548573,4589.276840,13767.830521,-9652.803275
98.548883,6217.729913,11103.089130,-11721.261119
98.549192,-2960.823768,12583.501014,3370.820191
98.549502,-3108.864956,8734.430116,10955.165621
98.549812,3034.844362,3478.967927,7124.688131
98.550121,-1480.411884,8808.450710,-1225.752797
98.550431,-2812.782580,11325.150913,919.314598
98.550741,4589.276840,10362.883188,-8427.050478
98.551050,3404.947333,10288.862594,-11261.603821
98.551360,-1406.391290,10881.027347,2451.505594
98.551669,-1850.514855,6735.874072,8273.831378
98.551979,-1850.514855,6957.935855,2145.067394
98.552289,-2590.720797,10362.883188,766.095498
98.552598,-0.000000,11473.192101,-3370.820191
98.552908,7105.977043,10436.903782,-11797.870669
98.553218,1406.391290,11843.295072,-7737.564530
98.553503,-2886.803174,9326.594869,7431.126331
98.553813,666.185348,7179.997637,9193.145976
98.554122,888.247130,7179.997637,-2298.286494
98.554431,-3330.926739,8956.491898,-536.266849
98.554741,-814.226536,10732.986159,689.485948
98.555050,4589.276840,10288.862594,-9422.974625
98.555359,3108.864956,11695.253884,-8963.317327
98.555669,-2886.803174,7698.141797,7277.907231
98.555978,-2442.679609,6957.935855,8044.002729
98.556287,-2516.700203,7179.997637,-919.314598
98.556597,-3182.885551,12435.459826,-3830.477490
98.556906,2960.823768,11695.253884,-6511.811733
98.557215,7254.018232,11399.171507,-12563.966167
98.557525,-592.164754,10955.047942,-1762.019645
98.557834,-3256.906145,6883.915261,12257.527968
98.558143,1924.535449,2516.700203,6894.859482
98.558453,-1258.350101,3701.029710,919.314598
98.558762,-2294.638420,6439.791695,2298.286494
98.559071,3034.844362,9992.780217,-6511.811733
98.559381,4515.256246,12065.356855,-14249.376263
98.559690,-1258.350101,11325.150913,-1915.238745
98.559999,-3182.885551,7994.224174,7431.126331
98.560309,-296.082377,6439.791695,1762.019645
98.560618,-4737.318029,11547.212695,153.219100
98.560927,-2886.803174,14211.954086,-2145.067394
98.561237,4737.318029,14211.954086,-10725.336972
98.561546,6291.750507,12065.356855,-10112.460574
98.561855,-4367.215058,9104.533087,5669.106685
98.562165,-1554.432478,7105.977043,11108.384721
98.562474,2738.761985,2738.761985,1225.752797
98.562783,-2590.720797,5847.626942,-1302.362347
98.563093,-74.020594,10807.006753,766.095498
98.563402,4441.235652,8586.388927,-8733.488677
98.563711,4441.235652,9548.656652,-9576.193725
98.564021,-2442.679609,8882.471304,5515.887586
98.564330,-4515.256246,5329.482782,9806.022374
98.564639,-1406.391290,6809.894666,-1302.362347
98.564949,-3923.091493,11843.295072,-4519.963438
98.565258,888.247130,16580.613101,-6435.202183
98.565567,3775.050304,14804.118840,-12563.966167
98.565877,1036.288319,12805.562797,-6435.202183
98.566186,-3552.988522,9844.739029,9806.022374
98.566495,-666.185348,4071.132681,8810.098227
98.566805,1776.494261,3997.112087,-3907.087040
98.567114,-2516.700203,8142.265362,995.924147
98.567423,2738.761985,9178.553681,-3294.210641
98.567733,5773.606348,8660.409521,-13176.842566
98.568042,-222.061783,10214.842000,-3983.696590
98.568351,-6883.915261,9474.636058,7967.393179
98.568661,-2516.700203,5255.462188,4673.182538
98.568970,-2294.638420,11547.212695,-4519.963438
98.569279,-2812.782580,15026.180623,-6052.154434
98.569589,4515.256246,12805.562797,-10035.851024
98.569898,6217.729913,12583.501014,-11568.042020
98.570207,-1184.329507,11843.295072,2604.724693
98.570517,-1184.329507,7105.977043,13253.452115
98.570826,740.205942,4145.153275,5362.668486
98.571135,-2516.700203,5921.647536,2451.505594
98.571445,666.185348,10584.944971,-229.828649
98.571754,4663.297435,10362.883188,-9729.412825
98.572063,3701.029710,11991.336260,-11644.651570
98.572373,-1332.370696,10955.047942,2987.772442
98.572682,-2220.617826,6661.853478,7584.345430
98.572991,-2294.638420,7105.977043,306.438199
98.573301,-2368.659014,11029.068536,-2834.553343
98.573610,1776.494261,13841.851115,-6741.640382
98.573919,6809.894666,13471.748144,-9882.631924
98.574229,3478.967927,10436.903782,-2221.676944
98.574538,-5403.503377,7254.018232,10495.508323
98.574847,-518.144159,4515.256246,10189.070123
98.575157,2368.659014,5477.523971,0.000000
98.575466,-1184.329507,7624.121203,-2987.772442
98.575775,518.144159,11843.295072,-4060.306139
98.576085,4737.318029,10807.006753,-9499.584175
98.576394,444.123565,12805.562797,-6665.030833
98.576703,-5255.462188,7994.224174,4749.792088
98.577013,-5403.503377,6513.812290,5592.497135
98.577322,-3478.967927,9844.739029,-1685.410096
98.577631,-1332.370696,12953.603985,-7354.516781
98.577941,4145.153275,13693.809927,-9346.365076
98.578250,5181.441594,12065.356855,-4826.401637
98.578559,-2368.659014,9474.636058,2221.676944
98.578869,-2886.803174,6883.915261,12563.966167
98.579178,3108.864956,2590.720797,5592.497135
98.579487,-74.020594,6217.729913,-3064.381992
98.579797,-3478.967927,10214.842000,-766.095498
98.580106,1850.514855,9992.780217,-4443.353888
98.580415,5181.441594,9770.718434,-12793.794817
98.580725,-666.185348,10584.944971,-4213.525239
98.581034,-7994.224174,9178.553681,8656.879127
98.581344,-2812.782580,7254.018232,2987.772442
98.581653,740.205942,13545.768739,-6894.859482
98.581962,-1110.308913,13989.892304,-4903.011187
98.582272,4811.338623,13693.809927,-4060.306139
98.582581,3701.029710,10140.821405,-1685.410096
98.582890,-4219.173869,9548.656652,4596.572988
98.583200,-1702.473667,7402.059420,12410.747068
98.583509,4885.359217,3997.112087,-919.314598
98.583818,-740.205942,6587.832884,-5209.449386
98.584128,-1998.556043,9326.594869,3677.258390
98.584437,3775.050304,7698.141797,-6358.592633
98.584746,3478.967927,7624.121203,-11031.775171
98.585056,-5699.585753,8734.430116,7277.907231
98.585365,-3849.070898,6883.915261,12640.575717
98.585674,1480.411884,8660.409521,-6205.373534
98.585984,-1554.432478,15914.427753,-7660.954980
98.586293,-518.144159,14878.139434,-1608.800546
98.586602,4293.194464,12361.439231,-5898.935335
98.586912,-1184.329507,12287.418637,-4903.011187
98.587221,-4441.235652,9252.574275,6665.030833
98.587530,1628.453072,7994.224174,4213.525239
98.587840,444.123565,6587.832884,-4749.792088
98.588149,-1628.453072,8660.409521,-1455.581446
98.588458,1850.514855,8438.347739,-1915.238745
98.588768,3923.091493,6069.688724,-11338.213370
98.589077,814.226536,7846.182985,-1302.362347
98.589386,-5181.441594,5625.565159,12563.966167
98.589696,-888.247130,5773.606348,2068.457845
98.590005,-666.185348,11325.150913,-7354.516781
98.590314,-1702.473667,13693.809927,-3447.429741
98.590624,2664.741391,14063.912898,-8427.050478
98.590933,3330.926739,12583.501014,-12257.527968
98.591242,-2072.576638,12139.377449,2298.286494
98.591552,-3182.885551,8808.450710,10342.289223
98.591861,4367.215058,5995.668130,76.609550
98.592170,-1332.370696,7328.038826,-1915.238745
98.592480,-2664.741391,10881.027347,2374.896044
98.592789,5181.441594,7105.977043,-7201.297681
98.593098,4515.256246,5329.482782,-11721.261119
98.593408,-3108.864956,9030.512492,2374.896044
98.593717,-4441.235652,6217.729913,8733.488677
98.594026,-222.061783,9548.656652,0.000000
98.594336,-2220.617826,12065.356855,-4673.182538
98.594645,-1332.370696,14211.954086,-3830.477490
98.594954,4515.256246,11399.171507,-7814.174080
98.595264,3627.009116,11473.192101,-8120.612279
98.595573,-2368.659014,10658.965565,4290.134789
98.595882,-0.000000,6587.832884,9499.584175
98.596192,1924.535449,6069.688724,76.609550
98.596501,-1406.391290,8438.347739,-1302.362347
98.596810,-1998.556043,8882.471304,4366.744339
98.597120,5477.523971,7476.080014,-8580.269578
98.597429,-1110.308913,9178.553681,-7890.783629
98.597738,-3034.844362,8512.368333,5515.887586
98.598048,-1110.308913,8586.388927,3370.820191
98.598357,-1184.329507,12435.459826,-7277.907231
98.598666,-4811.338623,12879.583391,-3447.429741
98.598976,-2368.659014,12805.562797,-2374.896044
98.599285,6957.935855,11621.233289,-12410.747068
98.599594,740.205942,10362.883188,-4673.182538
98.599904,-3256.906145,10362.883188,12487.356617
98.600213,1850.514855,4737.318029,5362.668486
98.600522,1702.473667,4663.297435,-4136.915689
98.600832,-3108.864956,8512.368333,4136.915689
98.601141,1036.288319,8438.347739,-3677.258390
98.601450,5847.626942,7846.182985,-13942.938064
98.601760,-3034.844362,11547.212695,-3447.429741
98.602069,-4737.318029,9178.553681,8044.002729
98.602378,888.247130,6365.771101,-1685.410096
98.602688,-2442.679609,11843.295072,-8656.879127
98.602997,-5329.482782,14285.974681,459.657299
98.603306,222.061783,13841.851115,-5209.449386
98.603616,5477.523971,11917.315666,-12334.137518
98.603925,592.164754,12287.418637,3217.601092
98.604234,-592.164754,8586.388927,10418.898773
98.604544,1850.514855,4293.194464,3600.648841
98.604853,-2738.761985,5107.421000,1455.581446
98.605162,-1702.473667,7328.038826,2987.772442
98.605472,3701.029710,8512.368333,-6281.983084
98.605781,2886.803174,9474.636058,-12257.527968
98.606090,-3552.988522,10066.800811,2374.896044
98.606400,-1628.453072,7402.059420,6052.154434
98.606709,-814.226536,7624.121203,-2451.505594
98.607018,-4737.318029,10807.006753,-2298.286494
98.607328,-1110.308913,11917.315666,-2068.457845
98.607637,4737.318029,12139.377449,-10418.898773
98.607946,2738.761985,13841.851115,-7890.783629
98.608256,-3627.009116,11325.150913,10035.851024
98.608565,1480.411884,6735.874072,7814.174080
98.608874,-0.000000,5181.441594,-1149.143247
98.609184,-4663.297435,7105.977043,383.047749
98.609493,2146.597232,8364.327145,-4903.011187
98.609803,3997.112087,6883.915261,-12947.013916
98.610112,888.247130,11621.233289,-5975.544884
98.610421,-4737.318029,7772.162391,8656.879127
98.610731,-1036.288319,5625.565159,4903.011187
98.611040,-1924.535449,8512.368333,-5515.887586
98.611349,-5847.626942,12065.356855,-3294.210641
98.611659,3182.885551,12583.501014,-6435.202183
98.611968,5773.606348,13693.809927,-11721.261119
98.612277,1924.535449,14434.015869,-3447.429741
98.612587,-1702.473667,8808.450710,10495.508323
98.612896,962.267725,3182.885551,7354.516781
98.613205,-3404.947333,5033.400406,76.609550
98.613515,-2220.617826,10807.006753,-1072.533697
98.613824,3923.091493,11769.274478,-9806.022374
98.614133,6439.791695,9770.718434,-14172.766713
98.614443,-296.082377,11843.295072,-1532.190996
98.614752,-4737.318029,7105.977043,8120.612279
98.615061,-1554.432478,3701.029710,3064.381992
98.615371,-2442.679609,13027.624579,306.438199
98.615680,-2294.638420,12213.398043,-2757.943793
98.615989,6587.832884,14878.139434,-7354.516781
98.616299,5847.626942,13619.789333,-9346.365076
98.616608,-1258.350101,11103.089130,2604.724693
98.616917,-2368.659014,3849.070898,10648.727422
98.617227,444.123565,3923.091493,3983.696590
98.617536,-4959.379811,8438.347739,-2604.724693
98.617845,-740.205942,11251.130318,-3524.039291
98.618155,6587.832884,9918.759623,-9882.631924
98.618464,2886.803174,11843.295072,-10955.165621
98.618773,-4293.194464,8956.491898,4979.620737
98.619083,-3775.050304,4367.215058,11951.089769
98.619392,-888.247130,7105.977043,0.000000
98.619701,-6143.709319,12657.521608,-7507.735880
98.620011,592.164754,13545.768739,-4366.744339
98.620320,6587.832884,13323.706956,-8886.707777
98.620629,2812.782580,13841.851115,-6741.640382
98.620939,-5033.400406,8882.471304,9652.803275
98.621248,740.205942,4367.215058,10342.289223
98.621557,-1258.350101,5107.421000,-2757.943793
98.621867,-4071.132681,9770.718434,-2451.505594
98.622176,3552.988522,11769.274478,-5592.497135
98.622485,5107.421000,8882.471304,-13253.452115
98.622795,1036.288319,9252.574275,-1685.410096
98.623104,-7328.038826,7328.038826,13483.280765
98.623413,-2442.679609,2960.823768,5439.278036
98.623723,296.082377,8808.450710,-4903.011187
98.624032,-0.000000,16580.613101,-4826.401637
98.624341,2738.761985,14878.139434,-6358.592633
98.624651,6883.915261,15248.242405,-12410.747068
98.624960,-444.123565,10584.944971,-689.485948
98.625269,-4367.215058,6291.750507,13100.233016
98.625579,-2220.617826,5181.441594,6358.592633
98.625888,-1628.453072,6735.874072,-3294.210641
98.626197,3404.947333,13027.624579,-3830.477490
98.626507,6809.894666,11843.295072,-9116.536426
98.626816,1554.432478,7772.162391,-7890.783629
98.627125,-4219.173869,7402.059420,6205.373534
98.627435,-2072.576638,3849.070898,8886.707777
98.627744,1258.350101,5995.668130,-689.485948
98.628053,-2960.823768,12731.542202,-3830.477490
98.628363,-592.164754,14804.118840,-3983.696590
98.628672,6809.894666,12139.377449,-8963.317327
98.628981,3849.070898,13397.727550,-6818.249932
98.629291,-6069.688724,9474.636058,7354.516781
98.629600,-2886.803174,6513.812290,7124.688131
98.629909,-296.082377,5329.482782,-3677.258390
98.630219,-1110.308913,10732.986159,-6205.373534
98.630528,4071.132681,11843.295072,-5132.839837
98.630837,3330.926739,8586.388927,-7814.174080
98.631147,1184.329507,8364.327145,-919.314598
98.631456,-2738.761985,4589.276840,8503.660028
98.631765,-2738.761985,2812.782580,6588.421283
98.632075,-1332.370696,9400.615463,-1378.971896
98.632384,-1110.308913,14508.036463,-6281.983084
98.632693,4515.256246,13989.892304,-11031.775171
98.633003,5847.626942,11843.295072,-11797.870669
98.633312,-3701.029710,10658.965565,-1455.581446
98.633621,-4737.318029,7920.203579,10801.946522
98.633931,1332.370696,5033.400406,4136.915689
98.634240,-1258.350101,9178.553681,-2604.724693
98.634549,-0.000000,12731.542202,0.000000
98.634859,4737.318029,10066.800811,-5669.106685
98.635168,6069.688724,7402.059420,-10265.679673
98.635477,-4737.318029,7402.059420,1608.800546
98.635787,-2072.576638,6661.853478,8886.707777
98.636096,-1036.288319,6439.791695,0.000000
98.636405,-2590.720797,11769.274478,-4673.182538
98.636715,-1036.288319,15544.324782,-5669.106685
98.637024,2886.803174,12139.377449,-7048.078582
98.637333,4145.153275,12065.356855,-7814.174080
98.637643,-4219.173869,9474.636058,3753.867940
98.637952,-962.267725,5921.647536,9193.145976
98.638262,3701.029710,3701.029710,2068.457845
98.638571,-3478.967927,10436.903782,0.000000
98.638880,2886.803174,11621.233289,-1532.190996
98.639190,3849.070898,9030.512492,-9499.584175
98.639499,148.041188,9622.677246,-5439.278036
98.639808,-2516.700203,7698.141797,6128.763984
98.640118,-2368.659014,6069.688724,1991.848295
98.640427,-518.144159,8660.409521,-5745.716235
98.640736,-2220.617826,11547.212695,-3370.820191
98.641046,-3256.906145,13841.851115,-2145.067394
98.641355,4663.297435,11251.130318,-8886.707777
98.641664,518.144159,9918.759623,-4673.182538
98.641974,-2146.597232,8290.306550,7507.735880
98.642283,666.185348,6587.832884,5745.716235
98.642592,-1036.288319,7846.182985,-4366.744339
98.642902,-1480.411884,10436.903782,-919.314598
98.643211,3108.864956,10436.903782,-3983.696590
98.643520,4589.276840,9548.656652,-9116.536426
98.643830,-0.000000,8512.368333,612.876398
98.644139,-4071.132681,8734.430116,4443.353888
98.644448,-1036.288319,5995.668130,1991.848295
98.644758,-1110.308913,11325.150913,-5132.839837
98.645067,-592.164754,14285.974681,-3983.696590
98.645376,1924.535449,16284.530724,-2068.457845
98.645686,3182.885551,11399.171507,-6741.640382
98.645995,-1184.329507,9548.656652,3753.867940
98.646304,-888.247130,6587.832884,10878.556072
98.646614,2368.659014,3923.091493,3677.258390
98.646923,-1776.494261,7550.100608,229.828649
98.647232,222.061783,10881.027347,-1685.410096
98.647542,4293.194464,8808.450710,-9806.022374
98.647851,2516.700203,11547.212695,-9652.803275
98.648160,-3552.988522,9400.615463,3907.087040
98.648470,-1924.535449,8068.244768,5669.106685
98.648779,1110.308913,7550.100608,459.657299
98.649088,-3701.029710,10140.821405,-842.705048
98.649398,-1406.391290,11177.109724,-1072.533697
98.649707,5329.482782,11325.150913,-4519.963438
98.650016,4367.215058,11769.274478,-6281.983084
98.650326,-2220.617826,10658.965565,4443.353888
98.650635,-888.247130,6513.812290,7277.907231
98.650944,-1036.288319,5107.421000,995.924147
98.651254,-2664.741391,11547.212695,-3064.381992
98.651563,1554.432478,10584.944971,-4213.525239
98.651872,1924.535449,7031.956449,-7967.393179
98.652182,-666.185348,9622.677246,-2987.772442
98.652491,1110.308913,5329.482782,4979.620737
98.652800,-1110.308913,4441.235652,2451.505594
98.653110,-4589.276840,10362.883188,459.657299
98.653419,-1850.514855,11769.274478,-1532.190996
98.653728,5625.565159,13989.892304,-9959.241474
98.654038,4071.132681,14730.098246,-10112.460574
98.654347,-148.041188,10658.965565,2374.896044
98.654656,-4959.379811,7698.141797,10418.898773
98.654966,3034.844362,4737.318029,4519.963438
98.655275,-4367.215058,7031.956449,995.924147
98.655584,-2442.679609,11325.150913,1072.533697
98.655894,4663.297435,10066.800811,-7967.393179
98.656203,4589.276840,9104.533087,-12334.137518
98.656513,-2368.659014,11695.253884,-536.266849
98.656822,-3182.885551,6513.812290,5975.544884
98.657131,-666.185348,6365.771101,2298.286494
98.657441,-3552.988522,11843.295072,-229.828649
98.657750,-222.061783,12583.501014,-1149.143247
98.658059,5847.626942,13027.624579,-8580.269578
98.658369,5107.421000,12065.356855,-8044.002729
98.658678,-1480.411884,9474.636058,5132.839837
98.658987,-1110.308913,4441.235652,10648.727422
98.659297,-740.205942,3923.091493,3677.258390
98.659606,-4737.318029,8956.491898,4826.401637
98.659916,1776.494261,12509.480420,-2298.286494
98.660225,4663.297435,9844.739029,-10648.727422
98.660534,1184.329507,12065.356855,-8656.879127
98.660844,-2960.823768,9992.780217,2681.334243
98.661153,-2812.782580,6143.709319,7124.688131
98.661462,-2368.659014,11843.295072,-153.219100
98.661772,-4737.318029,12435.459826,-2221.676944
98.662081,3627.009116,13249.686362,-7124.688131
98.662391,3775.050304,10140.821405,-10265.679673
98.662700,2812.782580,11177.109724,-2911.162892
98.663009,-2220.617826,6143.709319,8273.831378
98.663319,-222.061783,1924.535449,7354.516781
98.663628,-1702.473667,4885.359217,3294.210641
98.663937,-2368.659014,8364.327145,2374.896044
98.664247,3627.009116,9622.677246,-7584.345430
98.664556,2664.741391,11325.150913,-11644.651570
98.664866,518.144159,10214.842000,-4366.744339
98.665175,-2368.659014,7846.182985,3753.867940
98.665484,-2960.823768,8364.327145,3447.429741
98.665794,-4145.153275,11769.274478,1072.533697
98.666103,-222.061783,14434.015869,-5822.325785
98.666412,5847.626942,15026.180623,-11261.603821
98.666722,5033.400406,10140.821405,-612.876398
98.667031,-74.020594,10510.924376,3753.867940
98.667341,-1924.535449,5551.544565,9499.584175
98.667650,2294.638420,4737.318029,5515.887586
98.667959,-3701.029710,6069.688724,2145.067394
98.668269,666.185348,11547.212695,-612.876398
98.668578,5921.647536,9548.656652,-8580.269578
98.668887,3330.926739,10584.944971,-9729.412825
98.669197,-1850.514855,10066.800811,2221.676944
98.669506,-3478.967927,6143.709319,10572.117872
98.669815,-3701.029710,8660.409521,1991.848295
98.670125,-1036.288319,13397.727550,-2911.162892
98.670434,888.247130,16358.551318,-6205.373534
98.670744,4367.215058,14508.036463,-9882.631924
98.671053,1702.473667,15248.242405,-1915.238745
98.671362,-4219.173869,7920.203579,7507.735880
98.671672,888.247130,5699.585753,9116.536426
98.671981,-0.000000,5181.441594,1532.190996
98.672290,-2960.823768,6365.771101,689.485948
98.672600,2368.659014,9326.594869,-2451.505594
98.672909,3478.967927,6735.874072,-11797.870669
98.673219,222.061783,9548.656652,-5515.887586
98.673528,-4071.132681,8068.244768,6818.249932
98.673837,-4145.153275,5477.523971,2528.115143
98.674147,-592.164754,10955.047942,-4060.306139
98.674456,-1628.453072,14211.954086,-7124.688131
98.674765,4737.318029,14211.954086,-8733.488677
98.675075,4219.173869,12731.542202,-7584.345430
98.675384,518.144159,9474.636058,612.876398
98.675694,-1924.535449,7550.100608,12410.747068
98.676003,-222.061783,4737.318029,7737.564530
98.676312,-2590.720797,5847.626942,-1072.533697
98.676622,-518.144159,12287.418637,-4443.353888
98.676931,4885.359217,11251.130318,-11951.089769
98.677240,2516.700203,11177.109724,-11644.651570
98.677550,-1702.473667,11621.233289,1149.143247
98.677859,-4367.215058,6809.894666,8580.269578
98.678168,-3182.885551,8216.285956,2298.286494
98.678478,-2146.597232,11029.068536,-1149.143247
98.678787,148.041188,11991.336260,-5132.839837
98.679097,6735.874072,13397.727550,-8733.488677
98.679406,4737.318029,11843.295072,-6128.763984
98.679715,-4663.297435,8068.244768,3983.696590
98.680025,-518.144159,6513.812290,11031.775171
98.680334,-592.164754,4959.379811,4366.744339
98.680643,-2442.679609,9326.594869,-459.657299
98.680953,222.061783,9178.553681,-4136.915689
98.681262,4293.194464,8734.430116,-9116.536426
98.681572,888.247130,9992.780217,-7048.078582
98.681881,-4145.153275,8660.409521,1838.629195
98.682190,-5107.421000,6217.729913,4903.011187
98.682500,-1628.453072,12953.603985,1915.238745
98.682809,-148.041188,14211.954086,-7277.907231
98.683118,2368.659014,13471.748144,-8427.050478
98.683428,2886.803174,11177.109724,-5132.839837
98.683737,370.102971,7550.100608,2068.457845
98.684047,-740.205942,6957.935855,10112.460574
98.684356,1184.329507,4737.318029,5439.278036
98.684665,-740.205942,3552.988522,0.000000
98.684975,-3627.009116,7920.203579,-1915.238745
98.685284,1184.329507,11103.089130,-7354.516781
98.685593,4737.318029,8956.491898,-13559.890315
98.685903,-1036.288319,10066.800811,-4826.401637
98.686212,-5625.565159,8586.388927,7201.297681
98.686521,-3701.029710,5995.668130,4826.401637
98.686831,444.123565,12435.459826,-1149.143247
98.687140,740.205942,15692.365970,-6894.859482
98.687450,4145.153275,13175.665768,-5975.544884
98.687759,4515.256246,11473.192101,-3983.696590
98.688068,-1628.453072,9918.759623,229.828649
98.688378,-74.020594,7254.018232,7737.564530
98.688687,-1036.288319,4293.194464,2298.286494
98.688996,-2072.576638,7328.038826,-1225.752797
98.689306,1628.453072,9918.759623,-2528.115143
98.689615,4663.297435,8882.471304,-10342.289223
98.689925,1924.535449,5995.668130,-6665.030833
98.690234,-4589.276840,8290.306550,7124.688131
98.690543,-3478.967927,6217.729913,8044.002729
98.690853,-666.185348,9252.574275,-2757.943793
98.691162,370.102971,13101.645173,-5745.716235
98.691471,-0.000000,14878.139434,-4673.182538
98.691781,4737.318029,14285.974681,-8350.440928
98.692090,1850.514855,9918.759623,-5056.230287
98.692400,-5551.544565,8882.471304,6971.469032
98.692709,-74.020594,6513.812290,8120.612279
98.693018,1258.350101,4145.153275,0.000000
98.693328,-3552.988522,8364.327145,0.000000
98.693637,370.102971,8586.388927,-2987.772442
98.693946,5181.441594,2442.679609,-13713.109414
98.694256,-1258.350101,8068.244768,-6435.202183
98.694565,-4515.256246,8068.244768,7967.393179
98.694875,-2368.659014,6735.874072,3830.477490
98.695184,-296.082377,12139.377449,-5439.278036
98.695493,-1036.288319,15766.386565,-4749.792088
98.695803,1554.432478,12435.459826,-5745.716235
98.696112,4367.215058,11029.068536,-9193.145976
98.696421,-2072.576638,11325.150913,-842.705048
98.696731,-370.102971,8512.368333,8810.098227
98.697040,1554.432478,5625.565159,2757.943793
98.697349,-1406.391290,8808.450710,536.266849
98.697659,-1332.370696,10066.800811,2604.724693
98.697968,3923.091493,7476.080014,-6588.421283
98.698278,3997.112087,6809.894666,-10418.898773
98.698587,-2294.638420,9326.594869,1762.019645
98.698896,-2960.823768,8068.244768,5822.325785
98.699206,-1628.453072,8216.285956,-459.657299
98.699515,-888.247130,13101.645173,-3064.381992
98.699824,-1406.391290,16210.510130,-2221.676944
98.700134,3701.029710,14211.954086,-7660.954980
98.700443,4145.153275,10288.862594,-6281.983084
98.700753,-2442.679609,10362.883188,4213.525239
98.701062,2072.576638,7772.162391,5286.058936
98.701371,-0.000000,3627.009116,4979.620737
98.701681,-1628.453072,9178.553681,4366.744339
98.701990,-0.000000,7105.977043,-842.705048
98.702299,4737.318029,7105.977043,-9652.803275
98.702609,-1332.370696,9326.594869,-7354.516781
98.702918,-2220.617826,10140.821405,2068.457845
98.703228,-3404.947333,10214.842000,2604.724693
98.703537,-2368.659014,11843.295072,-2834.553343
98.703846,-814.226536,13989.892304,-7584.345430
98.704156,666.185348,12805.562797,-6588.421283
98.704465,2960.823768,10362.883188,-6818.249932
98.704774,370.102971,9622.677246,-919.314598
98.705084,1702.473667,8216.285956,5669.106685
98.705393,148.041188,4959.379811,9116.536426
98.705702,-1258.350101,6143.709319,4903.011187
98.706012,-962.267725,7846.182985,-1455.581446
98.706321,2812.782580,8438.347739,-11644.651570
98.706631,1184.329507,8956.491898,-11261.603821
98.706940,-1480.411884,7772.162391,-995.924147
98.707249,-2220.617826,8956.491898,3217.601092
98.707559,-1480.411884,9326.594869,1762.019645
98.707868,-5551.544565,12139.377449,842.705048
98.708177,-1850.514855,12879.583391,-919.314598
98.708487,3108.864956,12583.501014,-9729.412825
98.708796,5921.647536,12657.521608,-7967.393179
98.709106,-666.185348,12065.356855,1991.848295
98.709415,-1110.308913,6809.894666,7048.078582
98.709724,1110.308913,5551.544565,7431.126331
98.710034,-3034.844362,7772.162391,4366.744339
98.710343,-1406.391290,8882.471304,-1608.800546
98.710652,5995.668130,6217.729913,-10801.946522
98.710962,1998.556043,7698.141797,-9959.241474
98.711271,-1998.556043,9474.636058,2068.457845
98.711581,-2442.679609,8290.306550,6588.421283
98.711890,-1184.329507,9770.718434,459.657299
98.712199,-3330.926739,11991.336260,-1378.971896
98.712509,1776.494261,14285.974681,-2834.553343
98.712818,5255.462188,11991.336260,-10418.898773
98.713127,1480.411884,11769.274478,-7354.516781
98.713437,-1480.411884,10510.924376,4826.401637
98.713746,1110.308913,8216.285956,3217.601092
98.714056,-592.164754,5329.482782,4060.306139
98.714365,-3404.947333,7476.080014,1685.410096
98.714674,592.164754,6661.853478,-5439.278036
98.714984,4441.235652,5847.626942,-12870.404366
98.715293,-1258.350101,8660.409521,-3294.210641
98.715602,-3701.029710,8216.285956,6205.373534
98.715912,-2664.741391,9030.512492,3217.601092
98.716221,-3701.029710,9696.697840,-2834.553343
98.716530,-444.123565,13693.809927,-6205.373534
98.716840,2368.659014,11473.192101,-8273.831378
98.717149,4737.318029,11695.253884,-7967.393179
98.717459,-888.247130,11917.315666,1838.629195
98.717768,-0.000000,7846.182985,8656.879127
98.718077,-1850.514855,6217.729913,3907.087040
98.718387,-4885.359217,6661.853478,4213.525239
98.718696,-222.061783,11399.171507,-4443.353888
98.719005,7550.100608,9474.636058,-15934.786358
98.719315,3997.112087,11029.068536,-12717.185267
98.719624,-3997.112087,9252.574275,4060.306139
98.719934,-3256.906145,6809.894666,9269.755526
98.720243,-1702.473667,6439.791695,3524.039291
98.720552,-1406.391290,10658.965565,1149.143247
98.720862,-444.123565,14063.912898,-3447.429741
98.721171,6069.688724,10807.006753,-9806.022374
98.721480,5477.523971,9844.739029,-8273.831378
98.721790,-2812.782580,12361.439231,3983.696590
98.722099,-2294.638420,8808.450710,11338.213370
98.722409,-1850.514855,7476.080014,9269.755526
98.722718,-2368.659014,10510.924376,-1838.629195
98.723027,3034.844362,8956.491898,-8044.002729
98.723337,4515.256246,6661.853478,-11951.089769
98.723646,592.164754,8586.388927,-4749.792088
98.723955,-3478.967927,9918.759623,6435.202183
98.724265,-1850.514855,7254.018232,6588.421283
98.724574,-3775.050304,9992.780217,1915.238745
98.724883,-2146.597232,11325.150913,-2068.457845
98.725193,3108.864956,11103.089130,-10572.117872
98.725502,4885.359217,11843.295072,-13023.623466
98.725812,-888.247130,9770.718434,-2911.162892
98.726121,-2368.659014,9104.533087,8197.221829
98.726430,-740.205942,7550.100608,7277.907231
98.726740,-444.123565,8956.491898,995.924147
98.727049,444.123565,9474.636058,-2757.943793
98.727358,2664.741391,8068.244768,-8120.612279
98.727668,4885.359217,6291.750507,-8810.098227
98.727977,-2146.597232,7179.997637,612.876398
98.728287,-4737.318029,8882.471304,8886.707777
98.728596,-0.000000,7994.224174,3600.648841
98.728905,-370.102971,12583.501014,-3524.039291
98.729215,-1406.391290,14508.036463,-6052.154434
98.729524,4663.297435,10584.944971,-7124.688131
98.729833,5107.421000,12805.562797,-8810.098227
98.730143,-2516.700203,11843.295072,2757.943793
98.730452,-2886.803174,8734.430116,11951.089769
98.730762,-296.082377,7254.018232,5056.230287
98.731071,-518.144159,7105.977043,-2298.286494
98.731380,2738.761985,9992.780217,-6052.154434
98.731690,4959.379811,6661.853478,-10265.679673
98.731999,518.144159,6291.750507,-4136.915689
98.732308,-2590.720797,8882.471304,7507.735880
98.732618,-1702.473667,7476.080014,6281.983084
98.732927,-1036.288319,8068.244768,689.485948
98.733236,-3034.844362,12657.521608,-1838.629195
98.733546,1628.453072,12953.603985,-9652.803275
98.733855,4737.318029,8290.306550,-15245.300410
98.734165,-444.123565,13175.665768,-3524.039291
98.734474,-5403.503377,11769.274478,9652.803275
98.734783,592.164754,8512.368333,7201.297681
98.735093,-222.061783,8660.409521,459.657299
98.735402,-2590.720797,8808.450710,-995.924147
98.735711,3701.029710,8216.285956,-8044.002729
98.736021,3404.947333,4737.318029,-9652.803275
98.736330,-1184.329507,7994.224174,919.314598
98.736640,-1776.494261,5921.647536,6971.469032
98.736949,-1776.494261,6735.874072,2834.553343
98.737258,-2960.823768,10288.862594,-2298.286494
98.737568,-666.185348,10807.006753,-5822.325785
98.737877,3404.947333,11769.274478,-11261.603821
98.738186,3330.926739,11695.253884,-9652.803275
98.738496,-3627.009116,11917.315666,3447.429741
98.738805,-370.102971,9992.780217,10418.898773
98.739115,1110.308913,7772.162391,3140.991542
98.739424,-666.185348,9104.533087,-1685.410096
98.739733,740.205942,9696.697840,-995.924147
98.740043,4219.173869,7624.121203,-9269.755526
98.740352,2886.803174,7846.182985,-8273.831378
98.740661,-3108.864956,9918.759623,3600.648841
98.740971,-4959.379811,6365.771101,5132.839837
98.741280,-518.144159,8216.285956,1225.752797
98.741590,-1554.432478,11917.315666,-3217.601092
98.741899,-296.082377,11843.295072,-6588.421283
98.742208,6587.832884,9992.780217,-9039.926876
98.742518,2294.638420,12139.377449,-5286.058936
98.742827,-3182.885551,12731.542202,6741.640382
98.743136,-1184.329507,9400.615463,10342.289223
98.743446,2072.576638,6143.709319,2451.505594
98.743755,-1924.535449,8808.450710,-5592.497135
98.744064,2812.782580,8660.409521,-4213.525239
98.744374,1554.432478,5329.482782,-6741.640382
98.744683,-2738.761985,9622.677246,-1991.848295
98.744993,-2590.720797,11399.171507,3524.039291
98.745302,-0.000000,8068.244768,919.314598
98.745611,-1776.494261,10436.903782,-4903.011187
98.745921,-2738.761985,12361.439231,-3140.991542
98.746230,1332.370696,9622.677246,-7660.954980
98.746539,6513.812290,10066.800811,-8810.098227
98.746849,-1110.308913,9474.636058,4290.134789
98.747158,-4145.153275,9918.759623,13866.328514
98.747468,2516.700203,5625.565159,6281.983084
98.747777,2368.659014,5847.626942,-2757.943793
98.748086,1332.370696,7105.977043,-7660.954980
98.748396,2220.617826,8956.491898,-5898.935335
98.748705,888.247130,11399.171507,-8120.612279
98.749014,-2072.576638,12509.480420,-2221.676944
98.749324,-2368.659014,11991.336260,3524.039291
98.749633,-518.144159,8882.471304,229.828649
98.749943,-444.123565,10881.027347,-2834.553343
98.750252,-148.041188,12953.603985,-2528.115143
98.750561,4367.215058,8586.388927,-7124.688131
98.750871,5255.462188,9474.636058,-4519.963438
98.751180,-1480.411884,11695.253884,8044.002729
98.751489,-814.226536,8290.306550,9422.974625
98.751799,814.226536,6883.915261,1225.752797
98.752108,-2146.597232,8290.306550,-1072.533697
98.752417,-0.000000,10214.842000,-1225.752797
98.752727,1184.329507,6883.915261,-9576.193725
98.753036,-518.144159,10214.842000,-5669.106685
98.753346,-2516.700203,9400.615463,2834.553343
98.753655,-74.020594,8586.388927,2911.162892
98.753964,-1110.308913,10436.903782,0.000000
98.754274,-2738.761985,9844.739029,536.266849
98.754583,2368.659014,10658.965565,-4443.353888
98.754892,4589.276840,9918.759623,-8963.317327
98.755202,2738.761985,9992.780217,612.876398
98.755511,-2294.638420,10955.047942,9806.022374
98.755821,592.164754,9030.512492,5209.449386
98.756130,1110.308913,6957.935855,-1991.848295
98.756439,-4515.256246,8586.388927,-2604.724693
98.756749,518.144159,9622.677246,-6588.421283
98.757058,3627.009116,7402.059420,-11031.775171
98.757367,-370.102971,11325.150913,-3830.477490
98.757677,-2072.576638,10066.800811,4213.525239
98.757986,-518.144159,5995.668130,3217.601092
98.758296,-2072.576638,8586.388927,1608.800546
98.758605,-2146.597232,9844.739029,-842.705048
98.758914,4441.235652,9696.697840,-7660.954980
98.759224,4515.256246,11177.109724,-7737.564530
98.759533,-1776.494261,12805.562797,0.000000
98.759842,-444.123565,10881.027347,7201.297681
98.760152,1924.535449,7846.182985,842.705048
98.760461,-2294.638420,7031.956449,-1225.752797
98.760770,-3775.050304,8734.430116,-612.876398
98.761080,2368.659014,9474.636058,-6971.469032
98.761389,2960.823768,9326.594869,-10955.165621
98.761699,-2442.679609,11991.336260,689.485948
98.762008,-370.102971,8290.306550,5898.935335
98.762317,-1776.494261,8586.388927,4443.353888
98.762627,-2812.782580,10584.944971,2298.286494
98.762936,-148.041188,12139.377449,-1378.971896
98.763245,6513.812290,9770.718434,-10035.851024
98.763555,2738.761985,9992.780217,-4903.011187
98.763864,-2368.659014,10362.883188,8656.879127
98.764174,1258.350101,8882.471304,7201.297681
98.764483,592.164754,5477.523971,919.314598
98.764792,-4959.379811,7550.100608,842.705048
98.765102,-1406.391290,9030.512492,-5209.449386
98.765411,5477.523971,9400.615463,-12410.747068
98.765720,-888.247130,12213.398043,-6205.373534
98.766030,-3034.844362,13989.892304,6205.373534
98.766339,-296.082377,8512.368333,3217.601092
98.766649,666.185348,5995.668130,-4366.744339
98.766958,-4885.359217,11103.089130,76.609550
98.767267,3849.070898,11103.089130,-6435.202183
98.767577,5995.668130,9622.677246,-12563.966167
98.767886,-888.247130,12805.562797,1455.581446
98.768195,-2368.659014,8364.327145,11644.651570
98.768505,370.102971,4663.297435,3217.601092
98.768814,-1406.391290,3997.112087,-995.924147
98.769123,-2664.741391,8216.285956,-153.219100
98.769433,1776.494261,7179.997637,-6588.421283
98.769742,5181.441594,11991.336260,-12257.527968
98.770052,-2960.823768,11769.274478,-1532.190996
98.770361,-3404.947333,10881.027347,5898.935335
98.770670,-1184.329507,8734.430116,2528.115143
98.770980,-2368.659014,10584.944971,1608.800546
98.771289,-592.164754,13693.809927,-2451.505594
98.771598,5033.400406,11843.295072,-10495.508323
98.771908,4145.153275,10066.800811,-9193.145976
98.772217,-888.247130,11547.212695,5822.325785
98.772527,-962.267725,8142.265362,9806.022374
98.772836,296.082377,4589.276840,3140.991542
98.773145,-666.185348,6439.791695,842.705048
98.773455,-1036.288319,8068.244768,-1302.362347
98.773764,3627.009116,9400.615463,-9116.536426
98.774073,1332.370696,11325.150913,-8427.050478
98.774383,-296.082377,11103.089130,1378.971896
98.774692,-1036.288319,9918.759623,5669.106685
98.775002,-2368.659014,8364.327145,2757.943793
98.775311,-4145.153275,12805.562797,0.000000
98.775620,1998.556043,12065.356855,-6588.421283
98.775930,4293.194464,10362.883188,-11031.775171
98.776239,962.267725,11843.295072,-2528.115143
98.776548,-740.205942,11399.171507,6894.859482
98.776858,-0.000000,6365.771101,4519.963438
98.777167,444.123565,3108.864956,153.219100
98.777476,-3775.050304,6365.771101,1915.238745
98.777786,592.164754,6143.709319,-4290.134789
98.778095,3330.926739,10140.821405,-7967.393179
98.778405,814.226536,11325.150913,-4136.915689
98.778714,-4219.173869,9548.656652,5745.716235
98.779023,-2516.700203,6661.853478,2604.724693
98.779333,-888.247130,9622.677246,-4136.915689
98.779642,-1480.411884,12509.480420,-6894.859482
98.779951,2886.803174,12139.377449,-10112.460574
98.780261,3997.112087,11843.295072,-6971.469032
98.780570,-0.000000,12583.501014,3907.087040
98.780880,-74.020594,9326.594869,7048.078582
98.781189,2442.679609,4737.318029,4903.011187
98.781498,-3256.906145,4737.318029,1838.629195
98.781808,-1702.473667,7920.203579,-1838.629195
98.782117,5477.523971,7031.956449,-11338.213370
98.782426,3478.967927,12953.603985,-13483.280765
98.782736,-3775.050304,13101.645173,3140.991542
98.783045,-4071.132681,11251.130318,7354.516781
98.783355,-1258.350101,7772.162391,-919.314598
98.783664,-2886.803174,10807.006753,-4673.182538
98.783973,-148.041188,13397.727550,-4979.620737
98.784283,6883.915261,11843.295072,-10648.727422
98.784592,3627.009116,11029.068536,-5515.887586
98.784901,-3256.906145,11325.150913,9729.412825
98.785211,-0.000000,6587.832884,10955.165621
98.785520,2146.597232,3256.906145,2298.286494
98.785829,-3849.070898,5995.668130,1608.800546
98.786139,-148.041188,8364.327145,-2451.505594
98.786448,3404.947333,8364.327145,-14709.033562
98.786758,1258.350101,11325.150913,-10801.946522
98.787067,-5181.441594,13101.645173,3983.696590
98.787376,-3404.947333,10510.924376,3140.991542
98.787686,-1406.391290,9844.739029,-3447.429741
98.787995,-1184.329507,14137.933492,-6281.983084
98.788304,3552.988522,10881.027347,-5439.278036
98.788614,5107.421000,11843.295072,-6741.640382
98.788923,1480.411884,8808.450710,1532.190996
98.789233,-2738.761985,7402.059420,10801.946522
98.789542,1776.494261,5107.421000,8120.612279
98.789851,592.164754,3775.050304,-1762.019645
98.790161,-1480.411884,8586.388927,-2911.162892
98.790470,-814.226536,10658.965565,-6894.859482
98.790779,2516.700203,10807.006753,-12257.527968
98.791089,-1628.453072,11769.274478,-4443.353888
98.791398,-2738.761985,12287.418637,3983.696590
98.791708,-2368.659014,7179.997637,1378.971896
98.792017,-1554.432478,11029.068536,-1915.238745
98.792326,-1036.288319,13323.706956,1532.190996
98.792636,5625.565159,11695.253884,-7124.688131
98.792945,5551.544565,11399.171507,-4060.306139
98.793254,-3552.988522,11473.192101,8580.269578
98.793564,-1258.350101,8216.285956,10112.460574
98.793873,4811.338623,4441.235652,-1532.190996
98.794182,-2368.659014,6069.688724,-3217.601092
98.794492,-2812.782580,7772.162391,1072.533697
98.794801,2146.597232,10436.903782,-7354.516781
98.795111,5625.565159,8586.388927,-9806.022374
98.795420,-1776.494261,11029.068536,2451.505594
98.795729,-4737.318029,10807.006753,8427.050478
98.796039,-1776.494261,8364.327145,766.095498
98.796348,-370.102971,11843.295072,-3677.258390
98.796657,3627.009116,11325.150913,-5592.497135
98.796967,2516.700203,12435.459826,-6741.640382
98.797276,1036.288319,13471.748144,-612.876398
98.797586,-3627.009116,11695.253884,7048.078582
98.797895,2368.659014,8734.430116,2374.896044
98.798204,962.267725,3330.926739,-2604.724693
98.798514,-5477.523971,6143.709319,842.705048
98.798823,-222.061783,6661.853478,-2451.505594
98.799132,5921.647536,5107.421000,-11721.261119
98.799442,-1480.411884,7624.121203,-4979.620737
98.799751,-5033.400406,7994.224174,7584.345430
98.800061,-518.144159,6365.771101,3294.210641
98.800370,666.185348,10362.883188,-4979.620737
98.800679,-74.020594,13989.892304,-4596.572988
98.800989,666.185348,13323.706956,-6128.763984
98.801298,3775.050304,14508.036463,-7354.516781
98.801607,-1036.288319,13101.645173,-383.047749
98.801917,-148.041188,10658.965565,4596.572988
98.802226,3923.091493,6069.688724,-2834.553343
98.802535,-3182.885551,6883.915261,-2221.676944
98.802845,-3256.906145,7105.977043,3294.210641
98.803154,3775.050304,8068.244768,-5669.106685
98.803464,4441.235652,6587.832884,-10495.508323
98.803773,-2220.617826,8068.244768,229.828649
98.804082,-4145.153275,10658.965565,7814.174080
98.804392,1480.411884,7254.018232,-3064.381992
98.804701,-1258.350101,10214.842000,-4903.011187
98.805010,-1850.514855,15544.324782,-1991.848295
98.805320,2590.720797,14285.974681,-7354.516781
98.805629,3997.112087,13989.892304,-8503.660028
98.805939,-3256.906145,11695.253884,5592.497135
98.806248,296.082377,8586.388927,8503.660028
98.806557,3701.029710,5181.441594,842.705048
98.806867,-3108.864956,5403.503377,383.047749
98.807176,-296.082377,7550.100608,1685.410096
98.807485,2886.803174,7328.038826,-8503.660028
98.807795,-148.041188,9770.718434,-7814.174080
98.808104,-2812.782580,10732.986159,3677.258390
98.808413,-2664.741391,9030.512492,1608.800546
98.808723,-148.041188,9178.553681,-5669.106685
98.809032,-2664.741391,11843.295072,-4136.915689
98.809342,592.164754,12287.418637,-1838.629195
98.809651,3478.967927,8882.471304,-7048.078582
98.809960,962.267725,10955.047942,-766.095498
98.810270,-1776.494261,8956.491898,7584.345430
98.810579,3627.009116,5773.606348,3370.820191
98.810888,-2812.782580,5699.585753,2834.553343
98.811198,-4219.173869,9474.636058,2834.553343
98.811507,1924.535449,9178.553681,-4749.792088
98.811817,3627.009116,8586.388927,-13100.233016
98.812126,-1628.453072,11251.130318,-3907.087040
98.812435,-4811.338623,11769.274478,3217.601092
98.812745,-0.000000,8660.409521,153.219100
98.813054,-2146.597232,10584.944971,-2604.724693
98.813363,-3404.947333,13175.665768,-766.095498
98.813673,2960.823768,11325.150913,-7201.297681
98.813982,5995.668130,11621.233289,-7737.564530
98.814292,-1332.370696,12435.459826,2374.896044
98.814601,-1184.329507,8512.368333,8044.002729
98.814910,1628.453072,5107.421000,3830.477490
98.815220,-5329.482782,6217.729913,1915.238745
98.815529,-1110.308913,7772.162391,1915.238745
98.815838,4367.215058,7254.018232,-7354.516781
98.816148,2220.617826,8068.244768,-8810.098227
98.816457,-1406.391290,9548.656652,2298.286494
98.816766,-2442.679609,9178.553681,5975.544884
98.817076,-1554.432478,10288.862594,-842.705048
98.817385,-2886.803174,14211.954086,-2374.896044
98.817695,-592.164754,14656.077652,-3907.087040
98.818004,5921.647536,10955.047942,-13559.890315
98.818313,1628.453072,12139.377449,-4596.572988
98.818623,-2294.638420,12953.603985,7354.516781
98.818932,2072.576638,7920.203579,6588.421283
98.819241,370.102971,3923.091493,2298.286494
98.819551,-6513.812290,5477.523971,4596.572988
98.819860,370.102971,8216.285956,-1915.238745
98.820170,4145.153275,5921.647536,-13636.499864
98.820479,814.226536,8216.285956,-8197.221829
98.820788,-6217.729913,8808.450710,4290.134789
98.821098,-2738.761985,8438.347739,3524.039291
98.821407,-222.061783,9178.553681,-2911.162892
98.821716,-2442.679609,13323.706956,-3447.429741
98.822026,2738.761985,11029.068536,-5822.325785
98.822335,5625.565159,10362.883188,-8120.612279
98.822645,-444.123565,12509.480420,-383.047749
98.822954,-296.082377,11917.315666,7431.126331
98.823263,2738.761985,6069.688724,3370.820191
98.823573,-2590.720797,7179.997637,0.000000
98.823882,-5773.606348,9548.656652,2757.943793
98.824191,4219.173869,7698.141797,-8733.488677
98.824501,3997.112087,8882.471304,-13176.842566
98.824810,-2146.597232,11695.253884,-383.047749
98.825119,-2590.720797,7624.121203,9039.926876
98.825429,592.164754,6513.812290,76.609550
98.825738,-2812.782580,9770.718434,-1378.971896
98.826048,-1110.308913,12731.542202,-1762.019645
98.826357,6587.832884,12139.377449,-8656.879127
98.826666,4071.132681,12731.542202,-7890.783629
98.826976,-1924.535449,11621.233289,5439.278036
98.827285,1110.308913,8956.491898,8197.221829
98.827594,296.082377,6809.894666,3907.087040
98.827904,-4515.256246,7994.224174,2604.724693
98.828213,-888.247130,10510.924376,-4290.134789
98.828523,5921.647536,7328.038826,-13789.718964
98.828832,-1184.329507,9474.636058,-9576.193725
98.829141,-3108.864956,11843.295072,3217.601092
98.829451,-3034.844362,9400.615463,1378.971896
98.829760,-1110.308913,7994.224174,-1455.581446
98.830069,-3923.091493,10436.903782,1838.629195
98.830379,1554.432478,10658.965565,-2528.115143
98.830688,6513.812290,8956.491898,-10878.556072
98.830998,-0.000000,11251.130318,-1532.190996
98.831307,-1258.350101,9252.574275,8350.440928
98.831616,1258.350101,7254.018232,1915.238745
98.831926,-666.185348,6069.688724,-995.924147
98.832235,-4737.318029,8142.265362,1455.581446
98.832544,2368.659014,8216.285956,-6818.249932
98.832854,3108.864956,8586.388927,-13866.328514
98.833163,-1258.350101,9918.759623,-1532.190996
98.833472,-3552.988522,9918.759623,7737.564530
98.833782,444.123565,6439.791695,2451.505594
98.834091,-370.102971,10362.883188,-1149.143247
98.834401,-2812.782580,13323.706956,-383.047749
98.834710,4811.338623,12213.398043,-8580.269578
98.835019,5403.503377,12139.377449,-12487.356617
98.835329,-1036.288319,11843.295072,2298.286494
98.835638,-2590.720797,10214.842000,9346.365076
98.835947,1924.535449,6661.853478,4136.915689
98.836257,-2072.576638,4811.338623,2757.943793
98.836566,-1998.556043,7328.038826,-459.657299
98.836876,5403.503377,10658.965565,-8733.488677
98.837185,2812.782580,8882.471304,-10648.727422
98.837494,-3108.864956,9548.656652,2987.772442
98.837804,-2368.659014,9770.718434,6741.640382
98.838113,-2886.803174,7698.141797,919.314598
98.838422,-1776.494261,11029.068536,-1378.971896
98.838732,-148.041188,11029.068536,-2604.724693
98.839041,5403.503377,11103.089130,-8350.440928
98.839351,2442.679609,9474.636058,-3600.648841
98.839660,-4293.194464,12879.583391,5286.058936
98.839969,1332.370696,8290.306550,3983.696590
98.840279,-222.061783,6217.729913,76.609550
98.840588,-3849.070898,8142.265362,1072.533697
98.840897,1776.494261,10214.842000,-7967.393179
98.841207,5107.421000,6217.729913,-12104.308868
98.841516,-962.267725,7550.100608,-2145.067394
98.841825,-5625.565159,8808.450710,8503.660028
98.842135,-148.041188,7920.203579,1915.238745
98.842444,888.247130,7179.997637,-4060.306139
98.842754,-1702.473667,13397.727550,-2145.067394
98.843063,2072.576638,12287.418637,-6435.202183
98.843372,4737.318029,11991.336260,-10495.508323
98.843682,-1406.391290,12139.377449,153.219100
98.843991,-1702.473667,11991.336260,7354.516781
98.844300,2368.659014,7105.977043,1838.629195
98.844610,-1036.288319,5477.523971,1378.971896
98.844919,-3627.009116,6957.935855,2528.115143
98.845229,2442.679609,10510.924376,-7354.516781
98.845538,5477.523971,9474.636058,-10878.556072
98.845847,-4293.194464,9178.553681,2068.457845
98.846157,-2146.597232,11399.171507,4749.792088
98.846466,1480.411884,9474.636058,-2068.457845
98.846775,-2442.679609,11399.171507,-1915.238745
98.847085,-2368.659014,13101.645173,-459.657299
98.847394,6069.688724,11621.233289,-9422.974625
98.847704,4515.256246,9548.656652,-5975.544884
98.848013,-6439.791695,10658.965565,6281.983084
98.848322,-1258.350101,7846.182985,8810.098227
98.848632,3478.967927,4219.173869,229.828649
98.848941,-1998.556043,9548.656652,766.095498
98.849250,-592.164754,10584.944971,-1838.629195
98.849560,4885.359217,7624.121203,-10572.117872
98.849869,-1628.453072,8438.347739,-4903.011187
98.850178,-5255.462188,11473.192101,5515.887586
98.850488,-370.102971,8660.409521,0.000000
98.850797,296.082377,5921.647536,-6665.030833
98.851107,-4145.153275,11473.192101,-229.828649
98.851416,1554.432478,11843.295072,-3600.648841
98.851725,7031.956449,10955.047942,-10955.165621
98.852035,-222.061783,10807.006753,459.657299
98.852344,-1554.432478,9030.512492,10648.727422
98.852653,3034.844362,5551.544565,2374.896044
98.852963,592.164754,5181.441594,-1532.190996
98.853272,-3404.947333,7994.224174,1762.019645
98.853582,1998.556043,8512.368333,-8733.488677
98.853891,3330.926739,7698.141797,-12104.308868
98.854200,-3923.091493,9548.656652,-689.485948
98.854510,-2960.823768,10436.903782,4060.306139
98.854819,2220.617826,8068.244768,-3064.381992
98.855128,-148.041188,9548.656652,-766.095498
98.855438,-1036.288319,14582.057057,612.876398
98.855747,3108.864956,11177.109724,-6358.592633
98.856057,4663.297435,10362.883188,-6665.030833
98.856366,-1110.308913,10140.821405,3600.648841
98.856675,2146.597232,8512.368333,5669.106685
98.856985,1998.556043,7402.059420,2298.286494
98.857294,-3478.967927,8364.327145,2604.724693
98.857604,-1850.514855,9844.739029,0.000000
98.857913,4737.318029,5847.626942,-11108.384721
98.858223,1332.370696,8142.265362,-8350.440928
98.858533,-2368.659014,10288.862594,1455.581446
98.858842,-1776.494261,9474.636058,2911.162892
98.859152,1036.288319,8808.450710,1455.581446
98.859461,-2516.700203,12509.480420,3753.867940
98.859771,-370.102971,12361.439231,-1991.848295
98.860080,5699.585753,10807.006753,-8273.831378
98.860390,2886.803174,8956.491898,-4290.134789
98.860699,-1998.556043,11251.130318,1072.533697
98.861009,740.205942,11177.109724,2528.115143
98.861318,1554.432478,7328.038826,153.219100
98.861628,-2886.803174,9844.739029,459.657299
98.861937,148.041188,8216.285956,-2068.457845
98.862247,3552.988522,3182.885551,-9576.193725
98.862556,-814.226536,7254.018232,-4290.134789
98.862866,-2368.659014,6587.832884,1762.019645
98.863175,-1924.535449,6661.853478,766.095498
98.863485,-1628.453072,9030.512492,-1302.362347
98.863794,-370.102971,14582.057057,-1532.190996
98.864104,3404.947333,12361.439231,-7431.126331
98.864413,5107.421000,10066.800811,-7584.345430
98.864723,-74.020594,10955.047942,2451.505594
98.865032,-296.082377,9548.656652,9499.584175
98.865342,2516.700203,7920.203579,3600.648841
98.865652,-592.164754,7402.059420,2604.724693
98.865961,-3775.050304,8512.368333,919.314598
98.866271,2368.659014,8586.388927,-8273.831378
98.866580,3923.091493,9548.656652,-11414.822920
98.866890,-2516.700203,10732.986159,-2451.505594
98.867199,-1924.535449,12065.356855,3524.039291
98.867509,-1184.329507,10362.883188,995.924147
98.867818,-444.123565,9696.697840,1455.581446
98.868128,-148.041188,11029.068536,612.876398
98.868437,5033.400406,11547.212695,-6205.373534
98.868747,4737.318029,7994.224174,-6894.859482
98.869056,-1480.411884,8734.430116,3830.477490
98.869366,-1702.473667,8142.265362,9499.584175
98.869675,2146.597232,7402.059420,2987.772442
98.869985,-2516.700203,8438.347739,383.047749
98.870294,-1184.329507,8734.430116,-842.705048
98.870604,2590.720797,7624.121203,-8350.440928
98.870913,-1110.308913,8734.430116,-8733.488677
98.871223,-2590.720797,10881.027347,612.876398
98.871532,-1702.473667,11103.089130,1685.410096
98.871842,-148.041188,11769.274478,-2145.067394
98.872152,-4811.338623,12065.356855,536.266849
98.872461,-1184.329507,10436.903782,-4519.963438
98.872771,6513.812290,7698.141797,-10648.727422
98.873080,1776.494261,7994.224174,-2374.896044
98.873390,-2886.803174,7402.059420,9039.926876
98.873699,962.267725,3627.009116,4903.011187
98.874009,1776.494261,5255.462188,995.924147
98.874318,-3182.885551,9548.656652,842.705048
98.874628,-74.020594,9252.574275,-4749.792088
98.874937,4071.132681,8586.388927,-13406.671215
98.875247,-2072.576638,10584.944971,-7737.564530
98.875556,-3404.947333,11843.295072,1838.629195
98.875866,-2590.720797,9326.594869,1072.533697
98.876175,-518.144159,11843.295072,-536.266849
98.876485,-0.000000,12065.356855,-2374.896044
98.876794,5255.462188,12361.439231,-7431.126331
98.877104,5995.668130,9030.512492,-6818.249932
98.877413,-888.247130,10066.800811,4060.306139
98.877723,1480.411884,10658.965565,8044.002729
98.878032,1628.453072,5033.400406,4290.134789
98.878342,-2590.720797,7476.080014,4596.572988
98.878651,-2960.823768,7476.080014,612.876398
98.878961,4367.215058,6587.832884,-11261.603821
98.879271,1258.350101,6069.688724,-9806.022374
98.879580,-3849.070898,12213.398043,1762.019645
98.879890,-1554.432478,13545.768739,3217.601092
98.880199,-222.061783,11843.295072,0.000000
98.880509,-2368.659014,14952.160028,1455.581446
98.880818,-3997.112087,12139.377449,-2145.067394
98.881128,5329.482782,10510.924376,-11108.384721
98.881437,1184.329507,7698.141797,-5132.839837
98.881747,-1776.494261,9252.574275,7354.516781
98.882056,2442.679609,6883.915261,5592.497135
98.882366,148.041188,6143.709319,1762.019645
98.882675,-2590.720797,7105.977043,6358.592633
98.882985,296.082377,7179.997637,-3600.648841
98.883294,3627.009116,5551.544565,-12870.404366
98.883604,-1924.535449,8734.430116,-7201.297681
98.883913,-3552.988522,10436.903782,2298.286494
98.884223,-1406.391290,11399.171507,-1072.533697
98.884532,-2590.720797,12361.439231,-2681.334243
98.884842,-3182.885551,13471.748144,-2681.334243
98.885151,4737.318029,10955.047942,-12640.575717
98.885461,6143.709319,8660.409521,-8503.660028
98.885770,296.082377,9918.759623,5592.497135
98.886080,-592.164754,10066.800811,10572.117872
98.886390,2146.597232,7105.977043,5286.058936
98.886699,-888.247130,5625.565159,2604.724693
98.887009,-2072.576638,7105.977043,-612.876398
98.887318,2368.659014,6735.874072,-12257.527968
98.887628,1850.514855,9326.594869,-13176.842566
98.887937,-2442.679609,10510.924376,-1225.752797
98.888247,-4145.153275,11695.253884,4673.182538
98.888556,-1184.329507,11917.315666,1685.410096
98.888866,-740.205942,12509.480420,-229.828649
98.889175,-0.000000,11695.253884,-2681.334243
98.889485,5995.668130,11103.089130,-7737.564530
98.889794,4515.256246,8586.388927,-4366.744339
98.890104,-1258.350101,9844.739029,6511.811733
98.890413,-74.020594,8808.450710,9499.584175
98.890723,1480.411884,5329.482782,3753.867940
98.891032,-3701.029710,7476.080014,459.657299
98.891342,-1998.556043,7105.977043,-2451.505594
98.891651,3182.885551,5773.606348,-10265.679673
98.891961,-666.185348,8512.368333,-8503.660028
98.892270,-3182.885551,12805.562797,3217.601092
98.892580,-2590.720797,12731.542202,919.314598
98.892890,-1258.350101,12435.459826,-3677.258390
98.893199,-1258.350101,12435.459826,-2911.162892
98.893509,2812.782580,12361.439231,-5286.058936
98.893818,3552.988522,9770.718434,-7507.735880
98.894128,1258.350101,6291.750507,3217.601092
98.894437,-2146.597232,7698.141797,10495.508323
98.894747,3478.967927,7179.997637,3370.820191
98.895056,370.102971,6513.812290,3524.039291
98.895366,-5181.441594,9252.574275,842.705048
98.895675,1628.453072,9770.718434,-8120.612279
98.895985,3478.967927,7254.018232,-16011.395908
98.896294,-3627.009116,12287.418637,-4903.011187
98.896604,-3256.906145,12287.418637,5898.935335
98.896913,-0.000000,10066.800811,-2298.286494
98.897223,-148.041188,11029.068536,-383.047749
98.897532,-888.247130,13027.624579,1378.971896
98.897842,5625.565159,11399.171507,-8350.440928
98.898151,4145.153275,9474.636058,-5439.278036
98.898461,-1406.391290,10510.924376,6052.154434
98.898770,-888.247130,8142.265362,6818.249932
98.899080,3256.906145,9104.533087,-153.219100
98.899389,-2886.803174,5403.503377,2911.162892
98.899699,-2516.700203,7105.977043,153.219100
98.900009,4293.194464,7994.224174,-9422.974625
98.900318,-222.061783,8068.244768,-9422.974625
98.900628,-814.226536,9104.533087,2298.286494
98.900937,-1702.473667,8660.409521,4443.353888
98.901247,-1332.370696,11473.192101,153.219100
98.901556,-1702.473667,13027.624579,536.266849
98.901866,1776.494261,13397.727550,-3677.258390
98.902175,4737.318029,10881.027347,-8963.317327
98.902485,444.123565,10214.842000,-1225.752797
98.902794,-3849.070898,11621.233289,5898.935335
98.903104,888.247130,8660.409521,2221.676944
98.903413,2590.720797,6143.709319,-1838.629195
98.903723,-5477.523971,5033.400406,2681.334243
98.904032,-740.205942,6883.915261,-919.314598
98.904342,3775.050304,2442.679609,-10112.460574
98.904651,-2886.803174,7254.018232,-5822.325785
98.904961,-2294.638420,7846.182985,4443.353888
98.905270,-296.082377,8290.306550,1685.410096
98.905580,-2960.823768,13989.892304,-2451.505594
98.905889,-370.102971,13619.789333,-2987.772442
98.906199,2368.659014,12583.501014,-8733.488677
98.906508,5551.544565,10658.965565,-8656.879127
98.906818,-1406.391290,11991.336260,1532.190996
98.907128,-962.267725,11843.295072,4060.306139
98.907437,5329.482782,6439.791695,153.219100
98.907747,-2294.638420,5107.421000,3370.820191
98.908056,-4885.359217,8438.347739,7048.078582
98.908366,3997.112087,5773.606348,-7507.735880
98.908675,3108.864956,5847.626942,-12717.185267
98.908985,-1850.514855,9178.553681,536.266849
98.909294,-3330.926739,10881.027347,10572.117872
98.909604,592.164754,12213.398043,-1455.581446
98.909913,-1036.288319,14211.954086,-306.438199
98.910223,-1332.370696,12731.542202,-766.095498
98.910532,4663.297435,11399.171507,-7737.564530
98.910842,296.082377,11103.089130,-4903.011187
98.911151,-2664.741391,10510.924376,4749.792088
98.911461,-0.000000,9326.594869,5362.668486
98.911770,3478.967927,7624.121203,383.047749
98.912080,-2590.720797,8956.491898,5209.449386
98.912389,-2960.823768,7179.997637,3370.820191
98.912699,3330.926739,5403.503377,-9652.803275
98.913008,-592.164754,4071.132681,-7048.078582
98.913318,-3552.988522,10658.965565,2451.505594
98.913627,-1554.432478,11177.109724,-2451.505594
98.913937,-1850.514855,12065.356855,-4443.353888
98.914247,-3256.906145,15470.304188,-1455.581446
98.914556,2220.617826,12139.377449,-6665.030833
98.914866,5255.462188,10658.965565,-11031.775171
98.915175,-518.144159,10362.883188,-536.266849
98.915485,-2146.597232,8808.450710,7201.297681
98.915794,4811.338623,6587.832884,1991.848295
98.916104,370.102971,3034.844362,3064.381992
98.916413,-3701.029710,6513.812290,6741.640382
98.916723,2294.638420,7105.977043,-4136.915689
98.917032,2886.803174,6957.935855,-14096.157163
98.917342,-1628.453072,9548.656652,-5669.106685
98.917651,-3849.070898,10881.027347,0.000000
98.917961,-1924.535449,12287.418637,-995.924147
98.918270,-2664.741391,14878.139434,0.000000
98.918580,-3404.947333,14878.139434,-1455.581446
98.918889,5033.400406,10955.047942,-9576.193725
98.919199,5625.565159,9770.718434,-7507.735880
98.919508,-1776.494261,10362.883188,5515.887586
98.919818,2368.659014,9696.697840,6435.202183
98.920127,4145.153275,6883.915261,1915.238745
98.920437,-1776.494261,7846.182985,7124.688131
98.920747,-2442.679609,5847.626942,5439.278036
98.921056,3108.864956,5847.626942,-9806.022374
98.921366,2442.679609,6217.729913,-9576.193725
98.921675,-4071.132681,9030.512492,1685.410096
98.921985,-2368.659014,10658.965565,1225.752797
98.922294,-1998.556043,10288.862594,76.609550
98.922604,-3034.844362,16358.551318,919.314598
98.922913,-0.000000,14804.118840,-3983.696590
98.923223,5551.544565,12583.501014,-11951.089769
98.923532,1554.432478,11399.171507,-4673.182538
98.923842,-1110.308913,8734.430116,7660.954980
98.924151,2368.659014,7846.182985,3677.258390
98.924461,666.185348,5329.482782,3370.820191
98.924770,-4737.318029,8734.430116,7124.688131
98.925080,74.020594,7105.977043,-2374.896044
98.925389,2886.803174,5181.441594,-15015.471761
98.925699,-666.185348,5477.523971,-6281.983084
98.926008,-3849.070898,8882.471304,2757.943793
98.926318,-2220.617826,10362.883188,76.609550
98.926627,-1554.432478,11769.274478,-612.876398
98.926937,-2072.576638,12361.439231,-459.657299
98.927246,3997.112087,10214.842000,-9269.755526
98.927556,5255.462188,9030.512492,-10342.289223
98.927866,-2146.597232,11843.295072,2987.772442
98.928175,-74.020594,12509.480420,6511.811733
98.928485,3404.947333,9770.718434,1608.800546
98.928794,-2072.576638,10140.821405,4290.134789
98.929104,-3256.906145,9622.677246,3370.820191
98.929413,5329.482782,4811.338623,-9269.755526
98.929723,4293.194464,4441.235652,-14249.376263
98.930032,-3256.906145,8142.265362,1838.629195
98.930342,-3108.864956,9030.512492,6971.469032
98.930651,-1406.391290,10807.006753,2145.067394
98.930961,-1776.494261,12805.562797,2068.457845
98.931270,-148.041188,11325.150913,-2221.676944
98.931580,4145.153275,10807.006753,-11797.870669
98.931889,3923.091493,9992.780217,-7048.078582
98.932199,-3478.967927,12139.377449,9576.193725
98.932508,2368.659014,12213.398043,5898.935335
98.932818,518.144159,9400.615463,3983.696590
98.933127,-2812.782580,9548.656652,6588.421283
98.933437,-2886.803174,8290.306550,229.828649
98.933746,4737.318029,7772.162391,-15168.690860
98.934056,814.226536,5773.606348,-9959.241474
98.934365,-5551.544565,9622.677246,2911.162892
98.934675,-1332.370696,9326.594869,2834.553343
98.934985,-2886.803174,9918.759623,1378.971896
98.935294,-2368.659014,14804.118840,1685.410096
98.935604,2146.597232,8734.430116,-4979.620737
98.935913,5403.503377,5699.585753,-12947.013916
98.936223,222.061783,10066.800811,-766.095498
98.936532,-3404.947333,11325.150913,8580.269578
98.936842,2812.782580,10066.800811,1915.238745
98.937151,-1332.370696,8068.244768,2681.334243
98.937461,-3552.988522,6883.915261,4290.134789
98.937770,2664.741391,5847.626942,-8120.612279
98.938080,2960.823768,4663.297435,-13636.499864
98.938389,-2886.803174,9400.615463,-1149.143247
98.938699,-5033.400406,9844.739029,5898.935335
98.939008,444.123565,10732.986159,-306.438199
98.939318,-888.247130,13397.727550,1838.629195
98.939627,-1628.453072,11917.315666,-689.485948
98.939937,3552.988522,10510.924376,-9193.145976
98.940246,4071.132681,9474.636058,-9652.803275
98.940556,-1998.556043,12583.501014,3677.258390
98.940865,-0.000000,9178.553681,7890.783629
98.941175,2886.803174,9400.615463,2911.162892
98.941485,-2738.761985,11177.109724,4519.963438
98.941794,-1554.432478,8660.409521,1532.190996
98.942104,3330.926739,5329.482782,-10878.556072
98.942413,444.123565,5995.668130,-9346.365076
98.942723,-3997.112087,10288.862594,3753.867940
98.943032,-2590.720797,9992.780217,4443.353888
98.943342,2294.638420,12879.583391,-1532.190996
98.943651,-4737.318029,10214.842000,4749.792088
98.943961,1036.288319,10362.883188,-1225.752797
98.944270,3478.967927,8882.471304,-12257.527968
98.944580,1628.453072,9474.636058,-6128.763984
98.944889,-2738.761985,9844.739029,7431.126331
98.945199,814.226536,10510.924376,2451.505594
98.945508,2146.597232,11843.295072,-612.876398
98.945818,-3182.885551,9918.759623,2528.115143
98.946127,444.123565,6143.709319,-3600.648841
98.946437,2442.679609,3627.009116,-15628.348159
98.946746,-1628.453072,7846.182985,-3140.991542
98.947056,-3552.988522,8586.388927,4826.401637
98.947365,-444.123565,9178.553681,1838.629195
98.947675,-592.164754,12213.398043,-919.314598
98.947984,-962.267725,9178.553681,-2145.067394
98.948294,1628.453072,12435.459826,-9806.022374
98.948604,5033.400406,10881.027347,-13483.280765
98.948913,-74.020594,10732.986159,-153.219100
98.949223,-1998.556043,11695.253884,6052.154434
98.949532,7698.141797,9622.677246,1762.019645
98.949842,-1628.453072,9104.533087,3524.039291
98.950151,-2738.761985,7846.182985,6511.811733
98.950461,2294.638420,4515.256246,-5362.668486
98.950770,444.123565,6365.771101,-12410.747068
98.951080,-2442.679609,9400.615463,536.266849
98.951389,-3034.844362,12287.418637,1838.629195
98.951699,592.164754,12509.480420,-5209.449386
98.952008,-888.247130,12509.480420,-459.657299
98.952318,-4145.153275,13101.645173,0.000000
98.952627,4515.256246,9400.615463,-10035.851024
98.952937,4219.173869,9252.574275,-6128.763984
98.953246,-2220.617826,8956.491898,7890.783629
98.953556,1258.350101,11103.089130,9116.536426
98.953865,2812.782580,7624.121203,995.924147
98.954175,-2886.803174,8882.471304,4903.011187
98.954484,148.041188,8216.285956,0.000000
98.954794,3330.926739,4737.318029,-13176.842566
98.955103,-2072.576638,6069.688724,-8120.612279
98.955413,-5107.421000,12509.480420,4749.792088
98.955723,-1036.288319,11621.233289,-2911.162892
98.956032,370.102971,11473.192101,-4673.182538
98.956342,-2294.638420,12287.418637,6052.154434
98.956651,-148.041188,10288.862594,-4596.572988
98.956961,5921.647536,8068.244768,-12640.575717
98.957270,-518.144159,8142.265362,306.438199
98.957580,-1480.411884,9474.636058,8886.707777
98.957889,6365.771101,5625.565159,842.705048
98.958199,888.247130,8808.450710,2681.334243
98.958508,-4219.173869,8512.368333,7201.297681
98.958818,1628.453072,4441.235652,-3907.087040
98.959127,2664.741391,7402.059420,-13100.233016
98.959436,-2590.720797,11399.171507,-5132.839837
98.959746,-2590.720797,11029.068536,0.000000
98.960055,-518.144159,10510.924376,-6128.763984
98.960365,-1924.535449,14063.912898,-1072.533697
98.960674,-3108.864956,13545.768739,2528.115143
98.960983,4145.153275,11399.171507,-5132.839837
98.961293,4811.338623,5181.441594,-6052.154434
98.961602,-0.000000,7402.059420,8120.612279
98.961912,-222.061783,7772.162391,8427.050478
98.962221,2960.823768,10288.862594,0.000000
98.962530,-2886.803174,9474.636058,4673.182538
98.962840,-2368.659014,8586.388927,1608.800546
98.963149,3997.112087,9918.759623,-12870.404366
98.963459,888.247130,10881.027347,-12640.575717
98.963768,-4811.338623,8882.471304,0.000000
98.964078,-1776.494261,10140.821405,1608.800546
98.964387,888.247130,10658.965565,-2604.724693
98.964696,-814.226536,10955.047942,4136.915689
98.965006,1110.308913,11325.150913,2681.334243
98.965315,4737.318029,7105.977043,-6358.592633
98.965625,2294.638420,9252.574275,-4596.572988
98.965934,-1184.329507,9918.759623,5362.668486
98.966243,-222.061783,11103.089130,2604.724693
98.966553,1036.288319,10658.965565,-383.047749
98.966862,-4589.276840,9918.759623,1455.581446
98.967172,-0.000000,8512.368333,-3064.381992
98.967481,2442.679609,5181.441594,-11874.480219
98.967790,-296.082377,8586.388927,-4903.011187
98.968100,-1480.411884,9474.636058,3830.477490
98.968409,370.102971,8586.388927,-842.705048
98.968719,-1628.453072,11399.171507,229.828649
98.969028,-2442.679609,11251.130318,4136.915689
98.969337,2220.617826,8290.306550,-5515.887586
98.969647,8364.327145,9326.594869,-12717.185267
98.969956,-592.164754,6513.812290,-383.047749
98.970266,-2516.700203,8068.244768,8886.707777
98.970575,1110.308913,8808.450710,3677.258390
98.970884,-2294.638420,10214.842000,1455.581446
98.971194,-1702.473667,9844.739029,2374.896044
98.971503,2442.679609,9474.636058,-10878.556072
98.971813,1850.514855,7920.203579,-15934.786358
98.972122,-3849.070898,8438.347739,-995.924147
98.972431,-3034.844362,11029.068536,3064.381992
98.972741,1332.370696,13101.645173,-995.924147
98.973050,-1110.308913,12657.521608,3830.477490
98.973360,-1258.350101,10362.883188,4749.792088
98.973669,7698.141797,5995.668130,-6435.202183
98.973978,6661.853478,6809.894666,-7277.907231
98.974288,-2812.782580,9030.512492,5439.278036
98.974597,-1480.411884,9474.636058,6358.592633
98.974907,1480.411884,10288.862594,153.219100
98.975216,-1998.556043,11547.212695,3064.381992
98.975525,-1258.350101,10436.903782,-536.266849
98.975835,296.082377,7624.121203,-12257.527968
98.976144,-74.020594,7031.956449,-9576.193725
98.976454,-3627.009116,11991.336260,3983.696590
98.976763,148.041188,12139.377449,689.485948
98.977073,222.061783,12879.583391,153.219100
98.977382,-3849.070898,13471.748144,5362.668486
98.977691,2072.576638,9548.656652,-2374.896044
98.978001,6439.791695,4663.297435,-12104.308868
98.978310,962.267725,4737.318029,-2451.505594
98.978620,-4367.215058,7920.203579,8580.269578
98.978929,2368.659014,8216.285956,2987.772442
98.979238,518.144159,7031.956449,2451.505594
98.979548,-2960.823768,9326.594869,4213.525239
98.979857,1628.453072,8068.244768,-7124.688131
98.980167,3627.009116,5551.544565,-15858.176809
98.980476,-1184.329507,6735.874072,-4366.744339
98.980785,-6809.894666,10584.944971,5975.544884
98.981095,-0.000000,13545.768739,919.314598
98.981404,962.267725,17468.860231,1762.019645
98.981714,-1480.411884,14804.118840,1072.533697
98.982023,4293.194464,9770.718434,-7507.735880
98.982332,4515.256246,6661.853478,-9346.365076
98.982642,-1110.308913,5847.626942,2681.334243
98.982951,-370.102971,8956.491898,8580.269578
98.983261,3404.947333,8216.285956,3217.601092
98.983570,-4293.194464,9474.636058,4673.182538
98.983879,-962.267725,9252.574275,4596.572988
98.984189,4071.132681,3478.967927,-10572.117872
98.984498,-592.164754,8512.368333,-12947.013916
98.984808,-4293.194464,9696.697840,1302.362347
98.985117,-518.144159,10510.924376,2298.286494
98.985426,1258.350101,15026.180623,-2145.067394
98.985736,-3108.864956,15914.427753,3677.258390
98.986045,-1776.494261,11473.192101,842.705048
98.986355,6809.894666,8956.491898,-11644.651570
98.986664,3552.988522,8512.368333,-7201.297681
98.986973,-3923.091493,8512.368333,6281.983084
98.987283,-74.020594,10436.903782,5056.230287
98.987592,3034.844362,8808.450710,766.095498
98.987902,-2072.576638,7550.100608,6511.811733
98.988211,-444.123565,5255.462188,-459.657299
98.988520,2516.700203,1406.391290,-14249.376263
98.988830,-888.247130,5107.421000,-7354.516781
98.989139,-3923.091493,9548.656652,3830.477490
98.989449,-1110.308913,10732.986159,-229.828649
98.989758,740.205942,16358.551318,-2987.772442
98.990067,-1998.556043,14359.995275,1685.410096
98.990377,2368.659014,10214.842000,-6052.154434
98.990686,5403.503377,6735.874072,-14709.033562
98.990996,296.082377,5921.647536,-1455.581446
98.991305,-3182.885551,7920.203579,9959.241474
98.991615,4219.173869,11473.192101,2987.772442
98.991924,-148.041188,9178.553681,3140.991542
98.992233,-3108.864956,10288.862594,3524.039291
98.992543,2664.741391,5255.462188,-9269.755526
98.992852,1480.411884,4737.318029,-15551.738609
98.993162,-2886.803174,9770.718434,-2528.115143
98.993471,-4219.173869,10658.965565,5362.668486
98.993780,1850.514855,14211.954086,-842.705048
98.994090,-2590.720797,15100.201217,3447.429741
98.994399,-1554.432478,11325.150913,2604.724693
98.994709,7105.977043,7328.038826,-9116.536426
98.995018,6661.853478,7328.038826,-8656.879127
98.995327,-3552.988522,8216.285956,6894.859482
98.995637,-222.061783,10066.800811,9116.536426
98.995946,3034.844362,11177.109724,2451.505594
98.996256,-1776.494261,10584.944971,3830.477490
98.996565,-1110.308913,8216.285956,-995.924147
98.996874,1998.556043,4885.359217,-13176.842566
98.997184,-2294.638420,7254.018232,-10035.851024
98.997493,-4589.276840,12805.562797,689.485948
98.997803,-1332.370696,11843.295072,-1685.410096
98.998112,2220.617826,15618.345376,-3753.867940
98.998421,-3701.029710,13323.706956,2911.162892
98.998731,1258.350101,8808.450710,-1532.190996
98.999040,8438.347739,5329.482782,-9039.926876
98.999350,962.267725,3997.112087,1072.533697
98.999659,-2664.741391,5255.462188,10725.336972
98.999968,2516.700203,8586.388927,4213.525239
99.000278,1924.535449,8808.450710,-536.266849
99.000587,-4589.276840,9104.533087,5439.278036
99.000897,-222.061783,5625.565159,-6894.859482
99.001206,-74.020594,5625.565159,-17926.634653
99.001515,-1628.453072,10436.903782,-5822.325785
99.001825,-5255.462188,12065.356855,4290.134789
99.002134,-1998.556043,15840.407159,-6052.154434
99.002444,1480.411884,15988.448347,-919.314598
99.002753,-1628.453072,12953.603985,3140.991542
99.003062,4737.318029,6365.771101,-5439.278036
99.003372,5551.544565,4811.338623,-7967.393179
99.003681,-2220.617826,6587.832884,3217.601092
99.003991,-1036.288319,9696.697840,9039.926876
99.004300,5477.523971,11473.192101,229.828649
99.004610,-3034.844362,9252.574275,1072.533697
99.004919,-592.164754,10140.821405,3140.991542
99.005228,1998.556043,3923.091493,-9806.022374
99.005538,-370.102971,5033.400406,-11721.261119
99.005847,-4663.297435,9844.739029,3907.087040
99.006157,-3923.091493,11325.150913,3140.991542
99.006466,5033.400406,16506.592507,-6128.763984
99.006775,-3108.864956,15988.448347,1915.238745
99.007085,-1036.288319,13249.686362,2757.943793
99.007394,6809.894666,9030.512492,-10878.556072
99.007704,2664.741391,8586.388927,-6741.640382
99.008013,-4515.256246,8808.450710,7890.783629
99.008322,1628.453072,8586.388927,3140.991542
99.008632,3404.947333,7994.224174,-3447.429741
99.008941,-4589.276840,6217.729913,6281.983084
99.009251,888.247130,5773.606348,459.657299
99.009560,5033.400406,3775.050304,-13483.280765
99.009869,-3849.070898,5773.606348,-6511.811733
99.010179,-3478.967927,9844.739029,5056.230287
99.010488,666.185348,10584.944971,-2757.943793
99.010798,-814.226536,13915.871710,-6358.592633
99.011107,-4071.132681,14137.933492,4060.306139
99.011416,2294.638420,9474.636058,-4213.525239
99.011726,6143.709319,7846.182985,-11874.480219
99.012035,-4145.153275,11473.192101,1685.410096
99.012345,-2294.638420,9844.739029,6511.811733
99.012654,4441.235652,12287.418637,-1608.800546
99.012963,-370.102971,9030.512492,1378.971896
99.013273,-3627.009116,6809.894666,4673.182538
99.013582,1406.391290,3923.091493,-5822.325785
99.013892,296.082377,4589.276840,-10955.165621
99.014201,-3775.050304,8364.327145,3140.991542
99.014510,-2220.617826,11843.295072,4366.744339
99.014820,1702.473667,13545.768739,-4673.182538
99.015129,-1628.453072,15544.324782,995.924147
99.015439,-1998.556043,10807.006753,842.705048
99.015748,2590.720797,9104.533087,-11721.261119
99.016057,3701.029710,8364.327145,-7660.954980
99.016367,-4145.153275,11399.171507,7201.297681
99.016676,-74.020594,10881.027347,3217.601092
99.016986,3627.009116,8956.491898,383.047749
99.017295,-1628.453072,9030.512492,8197.221829
99.017605,-1776.494261,5921.647536,3524.039291
99.017914,1036.288319,5329.482782,-10725.336972
99.018223,444.123565,3552.988522,-7890.783629
99.018533,-3923.091493,9104.533087,1072.533697
99.018842,-814.226536,11547.212695,-3217.601092
99.019152,444.123565,16062.468941,-4290.134789
99.019461,-3849.070898,14656.077652,3677.258390
99.019770,1110.308913,9992.780217,-2911.162892
99.020080,6143.709319,8438.347739,-12563.966167
99.020389,148.041188,8438.347739,-2374.896044
99.020699,-2368.659014,7328.038826,8580.269578
99.021008,5107.421000,7846.182985,995.924147
99.021317,2146.597232,8512.368333,1378.971896
99.021627,-3923.091493,5921.647536,8197.221829
99.021936,-1036.288319,5773.606348,-2145.067394
99.022246,2960.823768,5551.544565,-14402.595362
99.022555,-2072.576638,9326.594869,-5669.106685
99.022864,-3775.050304,10732.986159,1915.238745
99.023174,592.164754,12361.439231,-4443.353888
99.023483,-2664.741391,14508.036463,0.000000
99.023793,-3108.864956,13175.665768,3907.087040
99.024102,3034.844362,10584.944971,-7507.735880
99.024411,6069.688724,7920.203579,-13253.452115
99.024721,-1554.432478,9400.615463,2681.334243
99.025030,-4441.235652,10584.944971,4979.620737
99.025340,5255.462188,10807.006753,536.266849
99.025649,1776.494261,7105.977043,5132.839837
99.025958,-3701.029710,5995.668130,7967.393179
99.026268,2590.720797,5329.482782,-5669.106685
99.026577,1036.288319,4441.235652,-12257.527968
99.026887,-3478.967927,7698.141797,383.047749
99.027196,-1776.494261,11621.233289,1915.238745
99.027505,1776.494261,16950.716072,-5515.887586
99.027815,-5033.400406,18949.272115,-1838.629195
99.028124,-2886.803174,15100.201217,1532.190996
99.028434,6883.915261,9030.512492,-13253.452115
99.028743,3404.947333,7402.059420,-9039.926876
99.029052,-3552.988522,8216.285956,8197.221829
99.029362,-0.000000,9918.759623,9039.926876
99.029671,5921.647536,10214.842000,842.705048
99.029981,-3627.009116,6439.791695,8810.098227
99.030290,-3182.885551,7402.059420,4979.620737
99.030599,5921.647536,5699.585753,-12793.794817
99.030909,-0.000000,1480.411884,-11797.870669
99.031218,-6809.894666,9474.636058,4443.353888
99.031528,-1554.432478,11177.109724,-2298.286494
99.031837,1184.329507,13471.748144,-5515.887586
99.032147,-7476.080014,18727.210333,5286.058936
99.032456,814.226536,11843.295072,-2834.553343
99.032765,7772.162391,5625.565159,-16164.615008
99.033075,-222.061783,7772.162391,-842.705048
99.033384,-5551.544565,9992.780217,11261.603821
99.033694,6439.791695,9548.656652,612.876398
99.034003,2368.659014,9474.636058,536.266849
99.034312,-5699.585753,12139.377449,9882.631924
99.034622,2738.761985,7328.038826,-4443.353888
99.034931,2146.597232,6365.771101,-21067.626195
99.035241,-4589.276840,7328.038826,-3064.381992
99.035550,-4071.132681,10362.883188,5745.716235
99.035859,1110.308913,11769.274478,-4519.963438
99.036169,-2146.597232,13989.892304,1072.533697
99.036478,-2072.576638,14656.077652,7584.345430
99.036788,5255.462188,9178.553681,-9806.022374
99.037097,7994.224174,5921.647536,-13636.499864
99.037406,-4589.276840,6513.812290,7660.954980
99.037716,-4145.153275,11177.109724,8197.221829
99.038025,6365.771101,13619.789333,-995.924147
99.038335,-666.185348,11399.171507,4749.792088
99.038644,-4219.173869,10807.006753,5898.935335
99.038953,2664.741391,5847.626942,-12180.918418
99.039263,3552.988522,2738.761985,-16241.224558
99.039572,-6143.709319,7994.224174,2757.943793
99.039882,-1406.391290,11177.109724,1532.190996
99.040191,1406.391290,13471.748144,-5056.230287
99.040500,-4737.318029,14878.139434,5822.325785
99.040810,-1258.350101,9548.656652,995.924147
99.041119,9252.574275,5625.565159,-14709.033562
99.041429,1184.329507,4885.359217,-5515.887586
99.041738,-4959.379811,7846.182985,11491.432470
99.042047,2886.803174,11843.295072,3064.381992
99.042357,3701.029710,11473.192101,-1991.848295
99.042666,-4145.153275,10955.047942,5822.325785
99.042976,-0.000000,8290.306550,-2374.896044
99.043285,4071.132681,2220.617826,-16624.272307
99.043594,-1554.432478,6809.894666,-7354.516781
99.043904,-5107.421000,9696.697840,6128.763984
99.044213,-0.000000,10066.800811,-1608.800546
99.044523,-370.102971,16580.613101,0.000000
99.044832,-4737.318029,15100.201217,9729.412825
99.045142,4663.297435,8956.491898,-9576.193725
99.045451,6661.853478,6069.688724,-16547.662757
99.045760,-3552.988522,8438.347739,1532.190996
99.046070,-2886.803174,9918.759623,10265.679673
99.046379,6069.688724,12435.459826,-689.485948
99.046689,592.164754,11029.068536,3983.696590
99.046998,-2294.638420,8882.471304,9652.803275
99.047307,2072.576638,3108.864956,-6205.373534
99.047617,1850.514855,888.247130,-13100.233016
99.047926,-4811.338623,6957.935855,766.095498
99.048236,-1776.494261,12657.521608,1608.800546
99.048545,1554.432478,15766.386565,-5592.497135
99.048854,-3849.070898,18135.045579,3830.477490
99.049164,-740.205942,14508.036463,6358.592633
99.049473,6809.894666,7179.997637,-12870.404366
99.049783,1702.473667,5625.565159,-7814.174080
99.050092,-4737.318029,6883.915261,8197.221829
99.050401,1702.473667,9548.656652,3677.258390
99.050711,2886.803174,17838.963202,-3294.210641
99.051020,-3775.050304,11103.089130,7201.297681
99.051330,-962.267725,8512.368333,3983.696590
99.051639,4737.318029,2368.659014,-13789.718964
99.051948,-1332.370696,1776.494261,-8273.831378
99.052258,-5403.503377,6291.750507,5132.839837
99.052567,444.123565,8956.491898,-1915.238745
99.052877,1776.494261,13693.809927,-3753.867940
99.053186,-3404.947333,15470.304188,7660.954980
99.053495,1184.329507,10955.047942,-4903.011187
99.053805,4959.379811,7920.203579,-15628.348159
99.054114,-962.267725,7179.997637,-1685.410096
99.054424,-5477.523971,9992.780217,7201.297681
99.054733,6069.688724,12879.583391,-3753.867940
99.055042,2664.741391,11991.336260,306.438199
99.055352,-5699.585753,10140.821405,10801.946522
99.055661,1110.308913,6217.729913,-2298.286494
99.055971,5551.544565,1850.514855,-14709.033562
99.056280,-3701.029710,3627.009116,612.876398
99.056589,-5773.606348,9326.594869,7507.735880
99.056899,1850.514855,12879.583391,-4366.744339
99.057208,-592.164754,15914.427753,-2145.067394
99.057518,-3552.988522,14211.954086,4903.011187
99.057827,5847.626942,8808.450710,-10648.727422
99.058136,6291.750507,5995.668130,-12870.404366
99.058446,-4589.276840,7772.162391,6205.373534
99.058755,-1406.391290,11547.212695,9729.412825
99.059065,5625.565159,11103.089130,-1302.362347
99.059374,2072.576638,11843.295072,4749.792088
99.059683,-3256.906145,7920.203579,7354.516781
99.059993,3775.050304,4293.194464,-10725.336972
99.060302,-370.102971,2072.576638,-10725.336972
99.060611,-5921.647536,7624.121203,2757.943793
99.060921,-1184.329507,13767.830521,-2528.115143
99.061230,3478.967927,13841.851115,-7814.174080
99.061540,-2738.761985,14952.160028,3524.039291
99.061849,-1480.411884,10288.862594,3370.820191
99.062158,7772.162391,5847.626942,-13406.671215
99.062468,-1332.370696,3775.050304,-4213.525239
99.062777,-4737.318029,7402.059420,11491.432470
99.063086,5403.503377,7031.956449,1455.581446
99.063396,4071.132681,12583.501014,-1838.629195
99.063705,-2812.782580,14656.077652,8044.002729
99.064015,-666.185348,5033.400406,0.000000
99.064324,2664.741391,4219.173869,-15934.786358
99.064633,-2220.617826,7846.182985,-3217.601092
99.064943,-3701.029710,10362.883188,1455.581446
99.065252,2368.659014,11103.089130,-8503.660028
99.065561,-740.205942,15396.283594,-3217.601092
99.065871,-4293.194464,14582.057057,6741.640382
99.066180,2960.823768,9474.636058,-7277.907231
99.066489,6809.894666,5033.400406,-11414.822920
99.066799,-3478.967927,8142.265362,5592.497135
99.067108,-592.164754,8290.306550,7814.174080
99.067418,6069.688724,10214.842000,-2145.067394
99.067727,-1628.453072,8586.388927,7584.345430
99.068036,-3775.050304,10214.842000,8580.269578
99.068346,3775.050304,6069.688724,-10648.727422
99.068655,3034.844362,5329.482782,-13942.938064
99.068964,-5181.441594,9918.759623,2451.505594
99.069274,-1924.535449,10436.903782,-2834.553343
99.069583,2960.823768,12287.418637,-7124.688131
99.069893,-2664.741391,16654.633695,4596.572988
99.070202,-888.247130,13175.665768,4519.963438
99.070511,3552.988522,7846.182985,-9269.755526
99.070821,4219.173869,5551.544565,-4136.915689
99.071130,-2960.823768,7846.182985,6128.763984
99.071439,1184.329507,10140.821405,1762.019645
99.071749,4293.194464,12361.439231,-842.705048
99.072058,-4441.235652,10955.047942,7814.174080
99.072368,-1776.494261,8068.244768,1378.971896
99.072677,2442.679609,4737.318029,-13023.623466
99.072986,-1924.535449,1258.350101,-8273.831378
99.073296,-4589.276840,7031.956449,2528.115143
99.073605,518.144159,8438.347739,-1608.800546
99.073914,962.267725,13545.768739,-1608.800546
99.074224,-3627.009116,14359.995275,6971.469032
99.074533,2294.638420,9548.656652,-1302.362347
99.074843,8586.388927,7254.018232,-12027.699319
99.075152,-518.144159,7476.080014,-2451.505594
99.075461,-3182.885551,9770.718434,7277.907231
99.075771,3404.947333,10658.965565,-459.657299
99.076080,2590.720797,12731.542202,-153.219100
99.076389,-7179.997637,10881.027347,6052.154434
99.076699,2442.679609,5625.565159,-4519.963438
99.077008,3775.050304,4885.359217,-16241.224558
99.077318,-4737.318029,5921.647536,-3524.039291
99.077627,-2886.803174,10140.821405,4979.620737
99.077936,3182.885551,11399.171507,-3064.381992
99.078246,-1332.370696,12583.501014,2451.505594
99.078555,-2960.823768,13175.665768,9806.022374
99.078864,3923.091493,8364.327145,-6511.811733
99.079174,7105.977043,7846.182985,-14172.766713
99.079483,-2220.617826,8068.244768,3907.087040
99.079792,-0.000000,10362.883188,4673.182538
99.080102,2146.597232,13027.624579,-1915.238745
99.080411,-2146.597232,13101.645173,7124.688131
99.080721,-2220.617826,9252.574275,8273.831378
99.081030,3627.009116,8068.244768,-11261.603821
99.081339,-74.020594,4737.318029,-9959.241474
99.081649,-6291.750507,6069.688724,2221.676944
99.081958,-814.226536,12065.356855,-4903.011187
99.082267,1480.411884,12953.603985,-6052.154434
99.082577,-5329.482782,13915.871710,7814.174080
99.082886,296.082377,13767.830521,1991.848295
99.083196,7920.203579,5921.647536,-15092.081311
99.083505,-0.000000,2812.782580,-2068.457845
99.083814,-3849.070898,4145.153275,10342.289223
99.084124,3478.967927,6291.750507,842.705048
99.084433,2294.638420,10881.027347,383.047749
99.084742,-4663.297435,12361.439231,9576.193725
99.085052,1776.494261,10955.047942,-4136.915689
99.085361,4737.318029,5847.626942,-17850.025103
99.085671,-4515.256246,5625.565159,-5362.668486
99.085980,-4367.215058,10066.800811,1532.190996
99.086289,2738.761985,13767.830521,-9576.193725
99.086599,-592.164754,15692.365970,-2068.457845
99.086908,-3775.050304,16210.510130,8886.707777
99.087217,4219.173869,9844.739029,-5515.887586
99.087527,7550.100608,6661.853478,-11721.261119
99.087836,-592.164754,4959.379811,4903.011187
99.088146,-2812.782580,6883.915261,7354.516781
99.088455,5107.421000,9770.718434,-766.095498
99.088764,-1480.411884,11917.315666,5286.058936
99.089074,-1480.411884,10955.047942,9729.412825
99.089383,2738.761985,7402.059420,-9193.145976
99.089692,1850.514855,5033.400406,-12947.013916
99.090002,-6069.688724,5995.668130,919.314598
99.090311,-3182.885551,8660.409521,1838.629195
99.090621,666.185348,18431.127956,-1532.190996
99.090930,-2368.659014,18949.272115,3600.648841
99.091239,-962.267725,15544.324782,2987.772442
99.091549,5107.421000,10214.842000,-11491.432470
99.091858,5255.462188,4145.153275,-8886.707777
99.092167,-5847.626942,4515.256246,5745.716235
99.092477,-444.123565,7402.059420,6052.154434
99.092786,3923.091493,8882.471304,2145.067394
99.093096,-1332.370696,10584.944971,8656.879127
99.093405,-888.247130,9918.759623,7277.907231
99.093714,2368.659014,2664.741391,-13483.280765
99.094024,-3034.844362,1702.473667,-10725.336972
99.094333,-4811.338623,6439.791695,76.609550
99.094642,-592.164754,11473.192101,-5898.935335
99.094952,-2146.597232,18653.189738,-4596.572988
99.095261,-1850.514855,17987.004391,7124.688131
99.095570,2812.782580,11621.233289,-2987.772442
99.095880,8142.265362,5773.606348,-13253.452115
99.096189,-444.123565,2442.679609,3217.601092
99.096499,-3404.947333,5403.503377,9499.584175
99.096808,4367.215058,10140.821405,2374.896044
99.097117,1850.514855,12805.562797,3140.991542
99.097427,-2664.741391,13249.686362,6665.030833
99.097736,2294.638420,6957.935855,-10878.556072
99.098045,1480.411884,5033.400406,-16471.053207
99.098355,-6439.791695,5255.462188,-2911.162892
99.098664,-4219.173869,10807.006753,0.000000
99.098974,1332.370696,12583.501014,-5745.716235
99.099283,-0.000000,17098.757260,5592.497135
99.099592,-222.061783,16210.510130,5975.544884
99.099902,7476.080014,7846.182985,-8197.221829
99.100211,4811.338623,3034.844362,-6052.154434
99.100520,-5181.441594,3923.091493,8810.098227
99.100830,-1554.432478,5551.544565,7737.564530
99.101139,5995.668130,12509.480420,-229.828649
99.101449,-222.061783,13323.706956,4136.915689
99.101758,-1628.453072,10436.903782,1685.410096
99.102067,962.267725,6513.812290,-11338.213370
99.102377,-2664.741391,3256.906145,-9806.022374
99.102686,-4811.338623,4959.379811,76.609550
99.102995,-2220.617826,12065.356855,-3064.381992
99.103305,-444.123565,17987.004391,-4290.134789
99.103614,-2294.638420,16210.510130,3983.696590
99.103924,2294.638420,12731.542202,-689.485948
99.104233,6809.894666,6439.791695,-10801.946522
99.104542,2516.700203,2738.761985,-1608.800546
99.104852,-3849.070898,6217.729913,6665.030833
99.105161,2368.659014,7846.182985,3447.429741
99.105470,6587.832884,10362.883188,-689.485948
99.105780,-3182.885551,9622.677246,7354.516781
99.106089,-2960.823768,6661.853478,1378.971896
99.106399,3108.864956,3552.988522,-12717.185267
99.106708,-3552.988522,4737.318029,-10035.851024
99.107017,-4959.379811,10658.965565,-612.876398
99.107327,-0.000000,12065.356855,-5286.058936
99.107636,-370.102971,19467.416275,-5822.325785
99.107945,-1184.329507,18727.210333,3677.258390
99.108255,3849.070898,8734.430116,-3217.601092
99.108564,7105.977043,6513.812290,-8656.879127
99.108873,-2368.659014,3627.009116,4826.401637
99.109183,-1406.391290,5995.668130,9116.536426
99.109492,7920.203579,9326.594869,-2068.457845
99.109802,1776.494261,11325.150913,689.485948
99.110111,-6439.791695,12065.356855,8810.098227
99.110420,3478.967927,5699.585753,-5898.935335
99.110730,1776.494261,1702.473667,-16394.443657
99.111039,-5995.668130,6957.935855,-459.657299
99.111348,-4515.256246,10214.842000,2374.896044
99.111658,2368.659014,14952.160028,-8350.440928
99.111967,666.185348,19689.478057,-2451.505594
99.112277,-2516.700203,15914.427753,7124.688131
99.112586,6883.915261,9400.615463,-8044.002729
99.112895,2072.576638,4589.276840,-8733.488677
99.113205,-4737.318029,4293.194464,7431.126331
99.113514,-888.247130,11473.192101,4596.572988
99.113823,6291.750507,12065.356855,-5669.106685
99.114133,-1036.288319,12287.418637,4136.915689
99.114442,-2664.741391,7328.038826,4136.915689
99.114752,3627.009116,1628.453072,-9269.755526
99.115061,-1036.288319,1258.350101,-6281.983084
99.115370,-6143.709319,5847.626942,5669.106685
99.115680,-370.102971,9030.512492,-2987.772442
99.115989,2294.638420,15100.201217,-6281.983084
99.116298,-6957.935855,17098.757260,5898.935335
99.116608,3330.926739,12287.418637,-3217.601092
99.116917,7328.038826,8142.265362,-15321.909960
99.117227,-3034.844362,8068.244768,-1455.581446
99.117536,-3404.947333,9844.739029,8656.879127
99.117845,3108.864956,14285.974681,-3600.648841
99.118155,4071.132681,9918.759623,-1149.143247
99.118464,-3256.906145,8364.327145,12793.794817
99.118773,-1628.453072,4885.359217,536.266849
99.119083,4145.153275,3108.864956,-13866.328514
99.119392,-3552.988522,4219.173869,-1991.848295
99.119702,-4145.153275,9030.512492,1149.143247
99.120011,1554.432478,11769.274478,-7124.688131
99.120320,-3627.009116,16876.695478,306.438199
99.120630,-1702.473667,18135.045579,7431.126331
99.120939,5255.462188,11843.295072,-8886.707777
99.121248,5847.626942,7254.018232,-10572.117872
99.121558,-5847.626942,7179.997637,5669.106685
99.121867,1924.535449,7328.038826,6894.859482
99.122176,6957.935855,9770.718434,-2604.724693
99.122486,-1850.514855,11991.336260,7201.297681
99.122795,-2294.638420,8660.409521,10265.679673
99.123105,2368.659014,5699.585753,-7967.393179
99.123414,888.247130,4811.338623,-11338.213370
99.123723,-6069.688724,7179.997637,0.000000
99.124033,-296.082377,9474.636058,-4443.353888
99.124342,-592.164754,14952.160028,-7201.297681
99.124651,-4293.194464,17024.736666,6588.421283
99.124961,-666.185348,16210.510130,1302.362347
99.125270,8586.388927,9770.718434,-14249.376263
99.125580,962.267725,5033.400406,-4903.011187
99.125889,-4737.318029,5329.482782,9576.193725
99.126198,74.020594,7772.162391,-1302.362347
99.126508,6365.771101,10658.965565,-2451.505594
99.126817,-3775.050304,10732.986159,12027.699319
99.127126,-1702.473667,6735.874072,3983.696590
99.127436,4737.318029,3849.070898,-12563.966167
99.127745,-3849.070898,5921.647536,-13713.109414
99.128055,-5033.400406,4589.276840,229.828649
99.128364,-1998.556043,8290.306550,-7354.516781
99.128673,-814.226536,14434.015869,-3753.867940
99.128983,-4959.379811,18949.272115,7048.078582
99.129292,2738.761985,16136.489536,-7201.297681
99.129601,7031.956449,9474.636058,-13866.328514
99.129911,-1554.432478,7031.956449,2528.115143
99.130220,-2072.576638,6883.915261,7354.516781
99.130530,3849.070898,9770.718434,-842.705048
99.130839,2220.617826,11029.068536,4903.011187
99.131148,-4737.318029,11917.315666,11951.089769
99.131458,3108.864956,6883.915261,-3600.648841
99.131767,3627.009116,4515.256246,-11721.261119
99.132076,-7031.956449,5329.482782,-2221.676944
99.132386,-2590.720797,8586.388927,-1608.800546
99.132695,-296.082377,11251.130318,-9346.365076
99.133005,-3997.112087,17616.901420,1838.629195
99.133314,-2072.576638,18431.127956,7431.126331
99.133623,6291.750507,10881.027347,-10878.556072
99.133933,3701.029710,8956.491898,-7814.174080
99.134242,-4663.297435,6217.729913,9882.631924
99.134551,2072.576638,5107.421000,3600.648841
99.134861,4145.153275,9548.656652,-2374.896044
99.135170,-3182.885551,13693.809927,6588.421283
99.135479,-1258.350101,10955.047942,4519.963438
99.135789,4071.132681,6661.853478,-12257.527968
99.136098,-1258.350101,4515.256246,-9806.022374
99.136408,-5403.503377,3701.029710,842.705048
99.136717,-962.267725,5551.544565,-4443.353888
99.137026,-1184.329507,9474.636058,-2068.457845
99.137336,-4885.359217,18579.169144,8350.440928
99.137645,5551.544565,14285.974681,-4596.572988
99.137954,9178.553681,6883.915261,-16394.443657
99.138264,-3849.070898,6661.853478,1378.971896
99.138573,-3701.029710,8290.306550,7967.393179
99.138883,5699.585753,9918.759623,-5592.497135
99.139192,-0.000000,13397.727550,-919.314598
99.139501,-5551.544565,15544.324782,12334.137518
99.139811,2146.597232,8142.265362,-4443.353888
99.140120,5477.523971,5107.421000,-15092.081311
99.140429,-4219.173869,3404.947333,-3217.601092
99.140739,-4811.338623,4515.256246,536.266849
99.141048,-888.247130,10436.903782,-5209.449386
99.141358,-2220.617826,13915.871710,3524.039291
99.141667,-2220.617826,17912.983796,7354.516781
99.141976,5551.544565,11177.109724,-5362.668486
99.142286,4515.256246,5625.565159,-8963.317327
99.142595,-4441.235652,6735.874072,6894.859482
99.142904,222.061783,7105.977043,4903.011187
99.143214,5477.523971,11917.315666,-3524.039291
99.143523,-2442.679609,14952.160028,8427.050478
99.143833,-1850.514855,13693.809927,7354.516781
99.144142,4589.276840,8364.327145,-11644.651570
99.144451,740.205942,6291.750507,-13253.452115
99.144761,-4589.276840,666.185348,1072.533697
99.145070,-4219.173869,6069.688724,-459.657299
99.145379,148.041188,11621.233289,-6052.154434
99.145689,-2960.823768,14137.933492,7890.783629
99.145998,1110.308913,15914.427753,4213.525239
99.146308,5181.441594,10066.800811,-12257.527968
99.146617,1480.411884,4959.379811,-4903.011187
99.146926,-5625.565159,4515.256246,10189.070123
99.147236,1406.391290,6291.750507,-995.924147
99.147545,5107.421000,14285.974681,-3524.039291
99.147854,-1998.556043,12065.356855,8963.317327
99.148164,-148.041188,11769.274478,0.000000
99.148473,6513.812290,8068.244768,-14172.766713
99.148783,-2072.576638,2960.823768,-6281.983084
99.149092,-7105.977043,3108.864956,4903.011187
99.149401,-814.226536,7402.059420,-3294.210641
99.149711,-1110.308913,13397.727550,0.000000
99.150020,-3404.947333,16136.489536,7431.126331
99.150329,5625.565159,12361.439231,-4826.401637
99.150639,6809.894666,8438.347739,-12793.794817
99.150948,-2738.761985,5699.585753,2834.553343
99.151257,-2664.741391,6365.771101,5669.106685
99.151567,3182.885551,9622.677246,-5286.058936
99.151876,-0.000000,14508.036463,2834.553343
99.152186,-3552.988522,15248.242405,7737.564530
99.152495,5625.565159,9548.656652,-6435.202183
99.152804,4663.297435,4589.276840,-11491.432470
99.153114,-6957.935855,5181.441594,2911.162892
99.153423,-2738.761985,3404.947333,6741.640382
99.153732,740.205942,9474.636058,-4826.401637
99.154042,-2368.659014,16210.510130,2757.943793
99.154351,-1110.308913,16506.592507,4366.744339
99.154661,5921.647536,10955.047942,-9652.803275
99.154970,2664.741391,7402.059420,-9269.755526
99.155279,-4959.379811,7550.100608,4903.011187
99.155589,222.061783,7105.977043,459.657299
99.155898,2072.576638,10362.883188,-3983.696590
99.156207,-2294.638420,15692.365970,5132.839837
99.156517,370.102971,11325.150913,4213.525239
99.156826,5033.400406,6513.812290,-11951.089769
99.157136,-370.102971,2812.782580,-4519.963438
99.157445,-7476.080014,3404.947333,5592.497135
99.157754,-0.000000,9252.574275,-3983.696590
99.158064,1258.350101,10362.883188,-6588.421283
99.158373,-5107.421000,14582.057057,6511.811733
99.158682,1110.308913,13915.871710,-995.924147
99.158992,6661.853478,8068.244768,-16624.272307
99.159301,-666.185348,7550.100608,-2068.457845
99.159611,-4219.173869,7105.977043,8044.002729
99.159920,4071.132681,7624.121203,-3907.087040
99.160230,1776.494261,11917.315666,-1302.362347
99.160539,-3552.988522,13767.830521,9959.241474
99.160849,2960.823768,8882.471304,-1225.752797
99.161158,5551.544565,6365.771101,-11644.651570
99.161468,-6291.750507,4441.235652,1455.581446
99.161777,-5255.462188,4737.318029,2145.067394
99.162087,3627.009116,8438.347739,-9269.755526
99.162396,-2368.659014,15026.180623,-1532.190996
99.162706,-4811.338623,17616.901420,8120.612279
99.163015,3849.070898,12953.603985,-7431.126331
99.163325,5477.523971,8734.430116,-9499.584175
99.163634,-3256.906145,6957.935855,6205.373534
99.163944,-1776.494261,6291.750507,5439.278036
99.164253,6143.709319,8142.265362,-4673.182538
99.164563,-1776.494261,13471.748144,5592.497135
99.164872,-1554.432478,11177.109724,8656.879127
99.165182,4663.297435,6883.915261,-8120.612279
99.165491,888.247130,6883.915261,-7737.564530
99.165801,-7105.977043,5255.462188,5592.497135
99.166110,296.082377,6513.812290,-3753.867940
99.166420,1332.370696,11991.336260,-12027.699319
99.166729,-5033.400406,14730.098246,2987.772442
99.167039,-2738.761985,15174.221811,3524.039291
99.167348,7624.121203,9622.677246,-13330.061665
99.167658,4219.173869,9252.574275,-4903.011187
99.167967,-3775.050304,7698.141797,11874.480219
99.168277,2146.597232,5403.503377,1762.019645
99.168586,2812.782580,8068.244768,-2145.067394
99.168896,-2220.617826,11177.109724,9039.926876
99.169205,-740.205942,10881.027347,-306.438199
99.169515,4293.194464,7254.018232,-14632.424012
99.169824,-3997.112087,7476.080014,-3600.648841
99.170134,-5033.400406,6513.812290,2374.896044
99.170443,2368.659014,10288.862594,-11414.822920
99.170753,-1998.556043,11547.212695,-3907.087040
99.171062,-6291.750507,14508.036463,11261.603821
99.171372,3330.926739,10584.944971,-1302.362347
99.171681,7846.182985,9252.574275,-12257.527968
99.171991,-740.205942,5033.400406,5209.449386
99.172300,-3256.906145,7105.977043,7354.516781
99.172610,3701.029710,8808.450710,-5286.058936
99.172919,-370.102971,13471.748144,919.314598
99.173229,-4219.173869,14508.036463,7814.174080
99.173538,4145.153275,10066.800811,-7814.174080
99.173848,2072.576638,8142.265362,-11338.213370
99.174157,-5773.606348,4737.318029,2681.334243
99.174467,-1998.556043,5329.482782,0.000000
99.174776,-666.185348,8142.265362,-7507.735880
99.175086,-2886.803174,13841.851115,4366.744339
99.175395,-2664.741391,14285.974681,7814.174080
99.175705,6957.935855,12139.377449,-8197.221829
99.176014,4589.276840,9474.636058,-8656.879127
99.176324,-5921.647536,8586.388927,7737.564530
99.176633,2368.659014,8586.388927,612.876398
99.176943,2442.679609,9178.553681,-5822.325785
99.177252,-3552.988522,12953.603985,6971.469032
99.177562,-1184.329507,11695.253884,4060.306139
99.177871,4219.173869,9770.718434,-12640.575717
99.178181,-592.164754,8290.306550,-6894.859482
99.178490,-4367.215058,4293.194464,2451.505594
99.178800,962.267725,5625.565159,-7124.688131
99.179109,1480.411884,7105.977043,-2834.553343
99.179419,-7328.038826,11621.233289,9346.365076
99.179728,888.247130,14434.015869,1302.362347
99.180038,10881.027347,9548.656652,-13330.061665
99.180347,888.247130,6661.853478,-1149.143247
99.180657,-4441.235652,6217.729913,7660.954980
99.180966,3552.988522,5181.441594,-2987.772442
99.181276,1776.494261,9992.780217,-1149.143247
99.181585,-5033.400406,13101.645173,9499.584175
99.181895,1258.350101,10584.944971,-4060.306139
99.182204,1776.494261,10066.800811,-14402.595362
99.182514,-2738.761985,8882.471304,-1378.971896
99.182823,-1850.514855,6069.688724,-229.828649
99.183133,1258.350101,7994.224174,-9806.022374
99.183442,-888.247130,12731.542202,536.266849
99.183752,-5107.421000,14063.912898,11338.213370
99.184061,5847.626942,13249.686362,-4749.792088
