#time,accel_x,accel_y,accel_z
153.308680,-148.041188,9104.533087,-1915.238745
153.308989,-962.267725,9622.677246,-2681.334243
153.309299,-148.041188,10140.821405,-1149.143247
153.309608,-0.000000,10288.862594,-229.828649
153.309918,888.247130,9548.656652,-766.095498
153.310227,-74.020594,6883.915261,1532.190996
153.310537,-296.082377,8364.327145,-1532.190996
153.310846,-0.000000,9474.636058,-2145.067394
153.311156,-296.082377,10066.800811,-2068.457845
153.311466,222.061783,10510.924376,-612.876398
153.311775,1924.535449,7550.100608,-1225.752797
153.312085,814.226536,9474.636058,-766.095498
153.312394,-296.082377,8586.388927,-842.705048
153.312704,-592.164754,8438.347739,-1685.410096
153.313013,370.102971,8734.430116,-2451.505594
153.313323,518.144159,10881.027347,-1608.800546
153.313632,-296.082377,9992.780217,-306.438199
153.313942,444.123565,10362.883188,76.609550
153.314251,148.041188,9252.574275,-995.924147
153.314561,962.267725,6365.771101,0.000000
153.314870,-0.000000,7920.203579,-1915.238745
153.315180,-518.144159,9474.636058,-919.314598
153.315489,444.123565,10140.821405,-383.047749
153.315799,888.247130,9326.594869,-153.219100
153.316108,1406.391290,6587.832884,919.314598
153.316418,1850.514855,6143.709319,1225.752797
153.316727,4959.379811,6513.812290,766.095498
153.317037,1924.535449,6217.729913,7660.954980
153.317346,-1628.453072,8956.491898,12717.185267
153.317656,296.082377,5995.668130,11031.775171
153.317965,8068.244768,9622.677246,5592.497135
153.318275,3997.112087,5625.565159,3064.381992
153.318584,-2072.576638,9030.512492,10801.946522
153.318894,-2072.576638,11325.150913,16624.272307
153.319203,2220.617826,11103.089130,5056.230287
153.319513,2072.576638,11769.274478,3600.648841
153.319822,-1628.453072,12805.562797,11721.261119
153.320132,-8364.327145,15396.283594,12947.013916
153.320441,2294.638420,26647.413912,-1455.581446
153.320751,7179.997637,1480.411884,306.438199
153.321060,-0.000000,11843.295072,17237.148705
153.321370,-19837.519246,8956.491898,31486.524968
153.321679,4145.153275,21243.910535,3600.648841
153.321989,2294.638420,5403.503377,-6205.373534
153.322298,-3108.864956,10881.027347,5592.497135
153.322608,-13249.686362,6217.729913,13713.109414
153.322917,444.123565,11621.233289,1302.362347
153.323227,-814.226536,8290.306550,3140.991542
153.323536,-7105.977043,4737.318029,15628.348159
153.323846,5107.421000,5477.523971,12870.404366
153.324155,-5847.626942,222.061783,11338.213370
153.324465,4145.153275,6587.832884,11568.042020
153.324774,-3775.050304,5921.647536,12563.966167
153.325084,-1258.350101,6513.812290,2374.896044
153.325393,-444.123565,9400.615463,5209.449386
153.325703,1110.308913,14582.057057,-1072.533697
153.326012,4737.318029,12509.480420,-2221.676944
153.326322,-888.247130,13323.706956,15551.738609
153.326631,1850.514855,10510.924376,23442.522239
153.326941,2664.741391,4071.132681,17160.539155
153.327250,3108.864956,7476.080014,11874.480219
153.327560,-4145.153275,5107.421000,13483.280765
153.327869,4367.215058,13767.830521,842.705048
153.328179,8660.409521,14359.995275,-7967.393179
153.328489,1776.494261,16136.489536,3294.210641
153.328798,-6069.688724,15544.324782,19152.387450
153.329108,-6661.853478,11547.212695,16624.272307
153.329417,3923.091493,12657.521608,2681.334243
153.329727,2442.679609,7328.038826,-4903.011187
153.330036,2664.741391,8364.327145,-1149.143247
153.330346,-1036.288319,10955.047942,10035.851024
153.330655,-1554.432478,11621.233289,15398.519510
153.330965,1258.350101,8882.471304,9499.584175
153.331274,5181.441594,6069.688724,2987.772442
153.331584,-1332.370696,1850.514855,2681.334243
153.331893,-7105.977043,2442.679609,7814.174080
153.332203,-3701.029710,8438.347739,4596.572988
153.332512,7179.997637,9030.512492,-6052.154434
153.332822,7698.141797,7920.203579,-2757.943793
153.333131,-666.185348,5477.523971,14862.252661
153.333441,-9622.677246,7772.162391,23519.131789
153.333750,592.164754,10807.006753,10112.460574
153.334060,6809.894666,9770.718434,-4673.182538
153.334369,-814.226536,10732.986159,-2757.943793
153.334679,-8068.244768,12805.562797,3677.258390
153.334988,-0.000000,14878.139434,-2834.553343
153.335298,8882.471304,14508.036463,-5362.668486
153.335607,1850.514855,10955.047942,10801.946522
153.335917,-5329.482782,7105.977043,26583.513781
153.336226,2442.679609,4959.379811,18769.339701
153.336536,3849.070898,4811.338623,5056.230287
153.336845,-2072.576638,5921.647536,7660.954980
153.337155,2442.679609,5921.647536,3983.696590
153.337464,6809.894666,4737.318029,-5056.230287
153.337774,-814.226536,8438.347739,7124.688131
153.338083,-5255.462188,17616.901420,25051.322785
153.338393,14730.098246,17764.942608,14019.547613
153.338702,14359.995275,11843.295072,7048.078582
153.339012,-8882.471304,14211.954086,5515.887586
153.339321,3404.947333,14434.015869,7584.345430
153.339631,6735.874072,10658.965565,-8503.660028
153.339940,1554.432478,13175.665768,-153.219100
153.340250,-6143.709319,11399.171507,27119.780629
153.340559,4663.297435,18727.210333,18386.291952
153.340869,-4071.132681,6143.709319,1378.971896
153.341178,-3256.906145,12139.377449,10112.460574
153.341488,4441.235652,10066.800811,9652.803275
153.341797,592.164754,6809.894666,-10801.946522
153.342107,3034.844362,13915.871710,3140.991542
153.342416,-5995.668130,17542.880825,20148.311597
153.342726,4219.173869,13323.706956,1762.019645
153.343035,6069.688724,6513.812290,5362.668486
153.343345,-6291.750507,11399.171507,22829.645840
153.343654,-3997.112087,6217.729913,22140.159892
153.343964,7846.182985,3478.967927,4136.915689
153.344273,2812.782580,5181.441594,9959.241474
153.344583,-1258.350101,962.267725,14938.862211
153.344892,9030.512492,5921.647536,2451.505594
153.345202,-1998.556043,8586.388927,6358.592633
153.345511,-7846.182985,12805.562797,22216.769442
153.345821,888.247130,11325.150913,12180.918418
153.346131,4663.297435,8216.285956,-2834.553343
153.346440,-4737.318029,6809.894666,6741.640382
153.346750,-9992.780217,7698.141797,17237.148705
153.347059,-740.205942,13767.830521,7584.345430
153.347369,3478.967927,14137.933492,-919.314598
153.347678,5551.544565,15692.365970,5592.497135
153.347988,-5699.585753,14656.077652,15092.081311
153.348297,-5477.523971,13471.748144,9652.803275
153.348607,370.102971,12657.521608,3753.867940
153.348916,592.164754,8586.388927,-459.657299
153.349226,3627.009116,8808.450710,0.000000
153.349535,-6365.771101,4885.359217,9039.926876
153.349845,3701.029710,8216.285956,11184.994271
153.350154,814.226536,5551.544565,10572.117872
153.350464,5107.421000,4071.132681,9269.755526
153.350773,-2960.823768,1776.494261,13176.842566
153.351083,-6365.771101,1332.370696,12257.527968
153.351392,7624.121203,10881.027347,-1302.362347
153.351702,7772.162391,8216.285956,-2757.943793
153.352011,-296.082377,11029.068536,10035.851024
153.352321,-1702.473667,13101.645173,20914.407095
153.352630,3182.885551,8142.265362,12487.356617
153.352940,6587.832884,9326.594869,5745.716235
153.353249,-7328.038826,5329.482782,15934.786358
153.353559,-1184.329507,13471.748144,8733.488677
153.353868,2368.659014,11917.315666,-8810.098227
153.354178,2664.741391,15914.427753,-10955.165621
153.354487,-3849.070898,13693.809927,1072.533697
153.354797,-1184.329507,14137.933492,15475.129060
153.355106,9104.533087,8734.430116,7660.954980
153.355416,1628.453072,8364.327145,8733.488677
153.355725,-6069.688724,5847.626942,18003.244203
153.356035,592.164754,4959.379811,11261.603821
153.356344,11621.233289,5477.523971,-7507.735880
153.356654,2294.638420,6883.915261,-2604.724693
153.356963,-2442.679609,7031.956449,12793.794817
153.357273,-3034.844362,6143.709319,17466.977354
153.357582,3923.091493,7994.224174,11568.042020
153.357892,-2664.741391,4737.318029,10035.851024
153.358201,-5921.647536,5107.421000,4136.915689
153.358511,4441.235652,11843.295072,-4443.353888
153.358820,-7550.100608,7402.059420,-6588.421283
153.359130,740.205942,19467.416275,-689.485948
153.359439,-1554.432478,14285.974681,-2528.115143
153.359749,-2220.617826,13545.768739,-2298.286494
153.360058,-11769.274478,15322.262999,12717.185267
153.360368,-6661.853478,18579.169144,5132.839837
153.360677,8882.471304,10436.903782,-12793.794817
153.360987,-592.164754,2368.659014,306.438199
153.361296,-1924.535449,12213.398043,14249.376263
153.361606,3108.864956,-0.000000,3830.477490
153.361915,7772.162391,1036.288319,-2145.067394
153.362225,-2368.659014,7031.956449,12947.013916
153.362534,-5847.626942,1110.308913,10265.679673
153.362844,6957.935855,6069.688724,-3600.648841
153.363154,-444.123565,-1998.556043,1302.362347
153.363463,1036.288319,5033.400406,5592.497135
153.363772,5773.606348,8364.327145,6435.202183
153.364082,-5625.565159,10807.006753,7584.345430
153.364391,444.123565,17616.901420,4826.401637
153.364701,-444.123565,13693.809927,-4213.525239
153.365010,5847.626942,16728.654289,-14096.157163
153.365319,-962.267725,17764.942608,-2451.505594
153.365629,-5255.462188,14582.057057,9116.536426
153.365938,1036.288319,13323.706956,2528.115143
153.366248,-1850.514855,10584.944971,-1762.019645
153.366557,4145.153275,10881.027347,-689.485948
153.366866,3330.926739,7179.997637,-2834.553343
153.367176,-1110.308913,12805.562797,-2298.286494
153.367485,1036.288319,8660.409521,6205.373534
153.367795,2812.782580,8956.491898,6818.249932
153.368104,-0.000000,5847.626942,-612.876398
153.368413,-1776.494261,2960.823768,-1455.581446
153.368723,-2812.782580,5181.441594,-2834.553343
153.369032,-1924.535449,5921.647536,-2451.505594
153.369342,-0.000000,12583.501014,0.000000
153.369651,-222.061783,14508.036463,3907.087040
153.369961,5477.523971,8364.327145,-1762.019645
153.370270,-7105.977043,6957.935855,3140.991542
153.370579,-9622.677246,9770.718434,5056.230287
153.370889,2812.782580,11251.130318,-12947.013916
153.371198,5625.565159,16136.489536,-22906.255390
153.371508,-2442.679609,11399.171507,0.000000
153.371817,-1628.453072,5551.544565,15398.519510
153.372126,1628.453072,-148.041188,12257.527968
153.372436,1332.370696,5255.462188,11261.603821
153.372745,4737.318029,2368.659014,5822.325785
153.373055,2590.720797,-3627.009116,-2451.505594
153.373364,3775.050304,11843.295072,-4826.401637
153.373673,-2960.823768,20577.725188,3753.867940
153.373983,5033.400406,15470.304188,-2757.943793
153.374292,3849.070898,14878.139434,-7814.174080
153.374602,-7698.141797,13101.645173,6052.154434
153.374911,370.102971,15396.283594,2528.115143
153.375221,4293.194464,15322.262999,-6511.811733
153.375530,-444.123565,15692.365970,612.876398
153.375839,3478.967927,9918.759623,5975.544884
153.376149,148.041188,5329.482782,-3677.258390
153.376458,-6365.771101,10658.965565,-2298.286494
153.376768,-2368.659014,11991.336260,2987.772442
153.377077,6217.729913,8216.285956,-11491.432470
153.377386,-1702.473667,8364.327145,-10418.898773
153.377696,-3478.967927,8290.306550,11874.480219
153.378005,-370.102971,-3552.988522,8656.879127
153.378315,1110.308913,2368.659014,-3830.477490
153.378624,-8438.347739,3034.844362,10878.556072
153.378933,444.123565,9104.533087,6971.469032
153.379243,5699.585753,17764.942608,-23519.131789
153.379552,-4589.276840,14285.974681,-18156.463303
153.379862,-3034.844362,19763.498651,4903.011187
153.380171,-5773.606348,12953.603985,-3600.648841
153.380481,-3182.885551,6069.688724,-6358.592633
153.380790,-1628.453072,9474.636058,6818.249932
153.381099,-222.061783,4219.173869,-995.924147
153.381409,8586.388927,4293.194464,-12487.356617
153.381718,-370.102971,14359.995275,6588.421283
153.382028,-222.061783,6957.935855,9729.412825
153.382337,5329.482782,4737.318029,-8273.831378
153.382646,-3256.906145,5329.482782,1225.752797
153.382956,-4367.215058,5847.626942,14249.376263
153.383265,4293.194464,7846.182985,-9193.145976
153.383575,444.123565,7698.141797,-12487.356617
153.383884,4145.153275,15174.221811,4519.963438
153.384193,-666.185348,13027.624579,-1532.190996
153.384503,1184.329507,9844.739029,-5362.668486
153.384812,-4885.359217,17838.963202,11721.261119
153.385122,-6291.750507,12065.356855,2374.896044
153.385431,8364.327145,15470.304188,-19612.044749
153.385740,2738.761985,17542.880825,-11184.994271
153.386050,-7550.100608,7031.956449,-383.047749
153.386359,1628.453072,6439.791695,-3677.258390
153.386669,-3034.844362,6217.729913,-229.828649
153.386978,4219.173869,3034.844362,1072.533697
153.387288,740.205942,6661.853478,-1915.238745
153.387597,-1554.432478,8512.368333,5209.449386
153.387906,666.185348,8808.450710,6511.811733
153.388216,8142.265362,4515.256246,-4979.620737
153.388525,-1850.514855,1258.350101,-689.485948
153.388835,-3775.050304,9696.697840,10955.165621
153.389144,-1110.308913,9622.677246,-1455.581446
153.389453,7698.141797,12805.562797,-18386.291952
153.389763,-2812.782580,17468.860231,-4366.744339
153.390072,-3404.947333,14508.036463,7354.516781
153.390382,148.041188,13249.686362,-6281.983084
153.390691,-740.205942,11917.315666,-7201.297681
153.391000,-2294.638420,8808.450710,3983.696590
153.391310,2146.597232,6217.729913,-766.095498
153.391619,6735.874072,6883.915261,-3217.601092
153.391929,1554.432478,7698.141797,5286.058936
153.392238,1628.453072,5551.544565,7507.735880
153.392548,-370.102971,1332.370696,4903.011187
153.392857,3997.112087,6661.853478,5056.230287
153.393166,-1480.411884,7772.162391,-2298.286494
153.393476,-6513.812290,9770.718434,-6052.154434
153.393785,4737.318029,18875.251521,-3830.477490
153.394095,-1110.308913,12509.480420,-4979.620737
153.394404,3552.988522,13397.727550,-7507.735880
153.394713,-6513.812290,14804.118840,1915.238745
153.395023,-7179.997637,9104.533087,5822.325785
153.395332,962.267725,11769.274478,-3677.258390
153.395642,-2590.720797,11251.130318,-4749.792088
153.395951,3478.967927,15988.448347,-3677.258390
153.396260,-2146.597232,9474.636058,-7201.297681
153.396570,-4145.153275,6957.935855,-1149.143247
153.396879,3997.112087,2220.617826,-766.095498
153.397189,1998.556043,5329.482782,-4903.011187
153.397498,-7179.997637,4589.276840,6358.592633
153.397808,-2368.659014,5995.668130,11108.384721
153.398117,5995.668130,3701.029710,-8810.098227
153.398426,962.267725,2146.597232,-9576.193725
153.398736,-5477.523971,7254.018232,12563.966167
153.399045,-3923.091493,8512.368333,4443.353888
153.399355,6291.750507,13989.892304,-18233.072852
153.399664,-814.226536,17912.983796,-8733.488677
153.399973,-2590.720797,16136.489536,5439.278036
153.400283,5847.626942,13841.851115,-5209.449386
153.400592,370.102971,11695.253884,-5669.106685
153.400902,-1258.350101,13693.809927,12334.137518
153.401211,-1184.329507,9474.636058,3217.601092
153.401520,5699.585753,2812.782580,-13176.842566
153.401830,222.061783,9992.780217,-4749.792088
153.402139,-1850.514855,6587.832884,-1532.190996
153.402449,2664.741391,7698.141797,-9729.412825
153.402758,5329.482782,11177.109724,-995.924147
153.403067,2442.679609,3478.967927,8044.002729
153.403377,-1332.370696,7179.997637,2911.162892
153.403686,148.041188,7105.977043,4903.011187
153.403996,444.123565,6513.812290,-153.219100
153.404305,6735.874072,13323.706956,-8886.707777
153.404615,-1406.391290,14434.015869,-3524.039291
153.404924,-3775.050304,9178.553681,919.314598
153.405233,-1850.514855,15396.283594,-6971.469032
153.405543,-4071.132681,10584.944971,-11491.432470
153.405852,1850.514855,9178.553681,-2528.115143
153.406162,-2812.782580,13471.748144,-612.876398
153.406471,-8660.409521,5847.626942,-229.828649
153.406780,12361.439231,10510.924376,-2374.896044
153.407090,4663.297435,-1924.535449,-6358.592633
153.407399,-1998.556043,2220.617826,7124.688131
153.407709,-0.000000,7254.018232,17237.148705
153.408018,1924.535449,4293.194464,1685.410096
153.408327,9474.636058,9918.759623,-9039.926876
153.408637,-8290.306550,8290.306550,8197.221829
153.408946,-2442.679609,12805.562797,5362.668486
153.409256,6809.894666,15100.201217,-17696.806004
153.409565,-3997.112087,14211.954086,-11644.651570
153.409875,1258.350101,16506.592507,4979.620737
153.410184,-3627.009116,15618.345376,-4979.620737
153.410493,-3775.050304,13841.851115,-6128.763984
153.410803,518.144159,16432.571912,5669.106685
153.411112,666.185348,5847.626942,-4060.306139
153.411422,3701.029710,5033.400406,-8120.612279
153.411731,2516.700203,5773.606348,9882.631924
153.412040,-370.102971,-3034.844362,9422.974625
153.412350,1850.514855,5847.626942,-3370.820191
153.412659,-1554.432478,6513.812290,4903.011187
153.412969,1332.370696,6143.709319,-766.095498
153.413278,3182.885551,8512.368333,-12027.699319
153.413587,-5033.400406,9474.636058,2681.334243
153.413897,-5995.668130,12361.439231,8656.879127
153.414206,2516.700203,12065.356855,-9269.755526
153.414516,-888.247130,10881.027347,-12334.137518
153.414825,-3849.070898,11621.233289,1532.190996
153.415135,-6069.688724,13693.809927,-1225.752797
153.415444,2368.659014,16876.695478,-5669.106685
153.415753,3627.009116,16802.674883,3447.429741
153.416063,-1628.453072,8216.285956,1915.238745
153.416372,-4737.318029,5107.421000,-4903.011187
153.416682,666.185348,7846.182985,306.438199
153.416991,4293.194464,5403.503377,-7431.126331
153.417300,-814.226536,4737.318029,-8350.440928
153.417610,-3182.885551,7624.121203,7048.078582
153.417919,-3256.906145,5033.400406,6665.030833
153.418229,3552.988522,3775.050304,-4826.401637
153.418538,-1776.494261,6809.894666,1685.410096
153.418847,-5181.441594,13693.809927,7277.907231
153.419157,3701.029710,15174.221811,-10265.679673
153.419466,5551.544565,13693.809927,-17313.758255
153.419776,-3034.844362,19097.313304,0.000000
153.420085,-4441.235652,10732.986159,5592.497135
153.420394,-1406.391290,11473.192101,-5669.106685
153.420704,296.082377,16284.530724,-1378.971896
153.421013,962.267725,6291.750507,-4903.011187
153.421323,4071.132681,3330.926739,-8044.002729
153.421632,-1110.308913,11547.212695,306.438199
153.421942,592.164754,2664.741391,4519.963438
153.422251,4441.235652,4737.318029,-6971.469032
153.422560,-1850.514855,3034.844362,2298.286494
153.422870,-5699.585753,5551.544565,10955.165621
153.423179,1110.308913,10288.862594,-6894.859482
153.423489,8290.306550,11843.295072,-14555.814462
153.423798,592.164754,15396.283594,-612.876398
153.424107,-7328.038826,8290.306550,6052.154434
153.424417,592.164754,7772.162391,-5592.497135
153.424726,1554.432478,13175.665768,-8656.879127
153.425036,-1628.453072,12509.480420,-7967.393179
153.425345,148.041188,12435.459826,-2681.334243
153.425654,444.123565,14211.954086,2374.896044
153.425964,7624.121203,8734.430116,-7277.907231
153.426273,4145.153275,2590.720797,-5822.325785
153.426583,-7105.977043,4441.235652,13559.890315
153.426892,-2220.617826,4367.215058,8120.612279
153.427202,5107.421000,5773.606348,-14325.985813
153.427511,148.041188,9992.780217,-8656.879127
153.427820,-2146.597232,13989.892304,3677.258390
153.428130,148.041188,9918.759623,-1685.410096
153.428439,1776.494261,13175.665768,-6511.811733
153.428749,3627.009116,11177.109724,-1455.581446
153.429058,222.061783,7179.997637,-2604.724693
153.429367,518.144159,14137.933492,1685.410096
153.429677,-1628.453072,11843.295072,9346.365076
153.429986,-0.000000,11473.192101,-153.219100
153.430296,-2442.679609,8660.409521,-9193.145976
153.430605,-3034.844362,9992.780217,-5056.230287
153.430914,4589.276840,8438.347739,-11031.775171
153.431224,-74.020594,7920.203579,-16471.053207
153.431533,-4367.215058,9104.533087,4826.401637
153.431843,1480.411884,8438.347739,14019.547613
153.432152,3923.091493,1850.514855,3064.381992
153.432462,-4737.318029,3108.864956,6435.202183
153.432771,-4811.338623,7105.977043,9499.584175
153.433080,1702.473667,8142.265362,-8044.002729
153.433390,5847.626942,17320.819043,-21297.454844
153.433699,2368.659014,19689.478057,-10112.460574
153.434009,-4663.297435,9104.533087,1455.581446
153.434318,-3923.091493,15026.180623,-2681.334243
153.434627,-7624.121203,13841.851115,5822.325785
153.434937,6661.853478,9400.615463,-1455.581446
153.435246,1258.350101,11547.212695,-9422.974625
153.435556,-2294.638420,9622.677246,-1608.800546
153.435865,8438.347739,4441.235652,1455.581446
153.436174,6513.812290,9104.533087,-5975.544884
153.436484,-4959.379811,4811.338623,5439.278036
153.436793,-4071.132681,7920.203579,16088.005458
153.437103,-2072.576638,9104.533087,-1455.581446
153.437412,4811.338623,13175.665768,-14555.814462
153.437721,3923.091493,16432.571912,-6128.763984
153.438031,-4219.173869,10066.800811,-5056.230287
153.438340,370.102971,9178.553681,-4903.011187
153.438650,3404.947333,12065.356855,3140.991542
153.438959,-1036.288319,6217.729913,766.095498
153.439269,-3404.947333,10732.986159,-536.266849
153.439578,-3701.029710,10584.944971,7814.174080
153.439887,6587.832884,7846.182985,-6128.763984
153.440197,3701.029710,10732.986159,-14479.204912
153.440506,-2738.761985,6661.853478,536.266849
153.440816,-222.061783,6735.874072,4136.915689
153.441125,3256.906145,7698.141797,-6052.154434
153.441434,296.082377,9548.656652,-536.266849
153.441744,-1258.350101,11177.109724,3830.477490
153.442053,3552.988522,2590.720797,-2451.505594
153.442363,4293.194464,7624.121203,-4519.963438
153.442672,-5551.544565,9770.718434,3600.648841
153.442981,-5625.565159,9474.636058,6588.421283
153.443291,5477.523971,14656.077652,-7277.907231
153.443600,2072.576638,13841.851115,-6741.640382
153.443910,740.205942,16136.489536,-2451.505594
153.444219,-6957.935855,17690.922014,-2757.943793
153.444529,-2146.597232,7402.059420,-4596.572988
153.444838,11399.171507,7179.997637,-10112.460574
153.445147,-2220.617826,11547.212695,-6818.249932
153.445457,-5255.462188,11399.171507,8120.612279
153.445766,3775.050304,8956.491898,3983.696590
153.446076,5329.482782,6217.729913,-6358.592633
153.446385,370.102971,5847.626942,3064.381992
153.446694,-3701.029710,3330.926739,6894.859482
153.447004,-888.247130,-148.041188,-3830.477490
153.447313,2738.761985,11769.274478,-9652.803275
153.447623,-0.000000,12805.562797,-3217.601092
153.447932,-592.164754,12361.439231,-3447.429741
153.448241,814.226536,14211.954086,-2451.505594
153.448551,-1924.535449,9326.594869,2298.286494
153.448860,-74.020594,9474.636058,-995.924147
153.449170,-2738.761985,7846.182985,-153.219100
153.449479,-2368.659014,6291.750507,-1991.848295
153.449789,3478.967927,8512.368333,-9039.926876
153.450098,2146.597232,10140.821405,-8580.269578
153.450407,-3108.864956,11769.274478,2298.286494
153.450717,2590.720797,8364.327145,5669.106685
153.451026,-0.000000,5847.626942,153.219100
153.451336,-1184.329507,5625.565159,229.828649
153.451645,-4071.132681,7920.203579,-1532.190996
153.451954,3849.070898,2886.803174,-6818.249932
153.452264,-222.061783,9474.636058,-5515.887586
153.452573,-4737.318029,11843.295072,1608.800546
153.452883,3997.112087,9548.656652,-3753.867940
153.453192,-0.000000,12213.398043,-3140.991542
153.453501,-2146.597232,9696.697840,6052.154434
153.453811,2220.617826,12435.459826,3753.867940
153.454120,3034.844362,8586.388927,-3140.991542
153.454430,-296.082377,9104.533087,-3370.820191
153.454739,-5329.482782,9178.553681,3294.210641
153.455049,-4441.235652,4885.359217,-2451.505594
153.455358,6217.729913,11769.274478,-13176.842566
153.455667,-444.123565,15322.262999,-7660.954980
153.455977,-3108.864956,10214.842000,3064.381992
153.456286,-7179.997637,7698.141797,5515.887586
153.456596,1998.556043,7105.977043,1838.629195
153.456905,7254.018232,9474.636058,-5898.935335
153.457214,2220.617826,9918.759623,-5592.497135
153.457524,-1776.494261,1924.535449,8580.269578
153.457833,5255.462188,10658.965565,8733.488677
153.458143,2516.700203,6735.874072,-842.705048
153.458452,-2368.659014,7994.224174,919.314598
153.458761,3849.070898,9844.739029,1685.410096
153.459071,-4367.215058,5181.441594,-7814.174080
153.459380,3034.844362,13545.768739,-6205.373534
153.459690,-3404.947333,18653.189738,1149.143247
153.459999,370.102971,8734.430116,-229.828649
153.460308,-222.061783,12805.562797,-2987.772442
153.460618,222.061783,12509.480420,-3064.381992
153.460927,3256.906145,10807.006753,-4443.353888
153.461237,3849.070898,10658.965565,0.000000
153.461546,-5995.668130,7920.203579,13942.938064
153.461856,7031.956449,9326.594869,5975.544884
153.462165,-74.020594,2886.803174,-2834.553343
153.462474,-3701.029710,5329.482782,-1225.752797
153.462784,4145.153275,6513.812290,0.000000
153.463093,2220.617826,4367.215058,-7737.564530
153.463403,592.164754,12953.603985,-2911.162892
153.463712,1628.453072,13397.727550,7660.954980
153.464022,-4145.153275,3108.864956,3830.477490
153.464331,-1036.288319,13693.809927,766.095498
153.464641,-1554.432478,11843.295072,76.609550
153.464950,2368.659014,11621.233289,-2987.772442
153.465260,4515.256246,21391.951724,-12104.308868
153.465569,-74.020594,9770.718434,-5592.497135
153.465878,-1628.453072,10140.821405,6818.249932
153.466188,-8512.368333,8512.368333,3983.696590
153.466497,-1702.473667,8290.306550,3064.381992
153.466807,6439.791695,7698.141797,-2221.676944
153.467116,740.205942,8364.327145,-8197.221829
153.467426,-1924.535449,5773.606348,76.609550
153.467735,2294.638420,4441.235652,2911.162892
153.468045,1184.329507,2220.617826,-3907.087040
153.468354,3701.029710,7031.956449,2681.334243
153.468664,-5847.626942,10807.006753,12257.527968
153.468973,-7920.203579,5329.482782,2834.553343
153.469283,8438.347739,14137.933492,-9422.974625
153.469592,2368.659014,11547.212695,-10189.070123
153.469901,-3404.947333,13323.706956,-3217.601092
153.470211,-962.267725,14508.036463,4213.525239
153.470520,-2516.700203,15026.180623,-1532.190996
153.470830,5699.585753,14285.974681,-11568.042020
153.471139,-1480.411884,8364.327145,-3447.429741
153.471449,-6809.894666,9474.636058,12640.575717
153.471758,3182.885551,7031.956449,766.095498
153.472068,10214.842000,1924.535449,-7890.783629
153.472377,-4441.235652,4145.153275,3447.429741
153.472687,-7031.956449,5773.606348,12027.699319
153.472996,-888.247130,5551.544565,2068.457845
153.473306,9252.574275,12509.480420,-13789.718964
153.473615,-814.226536,13323.706956,-4366.744339
153.473924,-4441.235652,7179.997637,8656.879127
153.474234,-888.247130,13175.665768,3830.477490
153.474543,-148.041188,12435.459826,-4213.525239
153.474853,-592.164754,11325.150913,-2374.896044
153.475162,-1998.556043,13397.727550,-2221.676944
153.475472,-2960.823768,9992.780217,-7431.126331
153.475781,8438.347739,12879.583391,-9652.803275
153.476091,-5181.441594,8586.388927,-383.047749
153.476400,-5181.441594,7920.203579,6818.249932
153.476710,1554.432478,7402.059420,3753.867940
153.477019,3849.070898,1480.411884,-5362.668486
153.477329,1036.288319,4515.256246,-2987.772442
153.477638,-962.267725,3849.070898,6665.030833
153.477947,3034.844362,3701.029710,1532.190996
153.478257,2368.659014,9104.533087,-2604.724693
153.478566,-148.041188,8364.327145,5132.839837
153.478876,-4959.379811,9770.718434,7431.126331
153.479185,1258.350101,17542.880825,-3830.477490
153.479495,5181.441594,18209.066173,-13176.842566
153.479804,3923.091493,18061.024985,-9346.365076
153.480114,-1110.308913,12509.480420,-3830.477490
153.480423,-7105.977043,7476.080014,0.000000
153.480733,5329.482782,13249.686362,1302.362347
153.481042,222.061783,4737.318029,-383.047749
153.481351,-1184.329507,6587.832884,3524.039291
153.481661,3108.864956,8586.388927,8044.002729
153.481970,5033.400406,1480.411884,-3140.991542
153.482280,1110.308913,5625.565159,-3447.429741
153.482589,-4663.297435,5551.544565,7737.564530
153.482899,-3108.864956,3552.988522,6588.421283
153.483208,5329.482782,9844.739029,-9652.803275
153.483518,-2738.761985,12657.521608,-7277.907231
153.483827,962.267725,9326.594869,3064.381992
153.484137,-3478.967927,13693.809927,153.219100
153.484446,-4219.173869,12879.583391,-383.047749
153.484756,3849.070898,12731.542202,-995.924147
153.485065,1406.391290,9252.574275,-6741.640382
153.485374,-2368.659014,12583.501014,-5822.325785
153.485684,2368.659014,12509.480420,2068.457845
153.485993,1998.556043,4885.359217,-383.047749
153.486303,4145.153275,7994.224174,-3983.696590
153.486612,-5403.503377,5625.565159,12257.527968
153.486922,-4663.297435,5181.441594,11568.042020
153.487231,3552.988522,5921.647536,-11261.603821
153.487541,6587.832884,5995.668130,-15092.081311
153.487850,-740.205942,13397.727550,766.095498
153.488160,-1702.473667,9326.594869,1991.848295
153.488469,1628.453072,9696.697840,-1685.410096
153.488779,296.082377,13693.809927,7584.345430
153.489088,-5329.482782,5921.647536,8656.879127
153.489397,-3182.885551,13027.624579,153.219100
153.489707,7254.018232,19097.313304,-7660.954980
153.490016,888.247130,9474.636058,-13406.671215
153.490326,-5033.400406,11177.109724,-7660.954980
153.490635,-1332.370696,14211.954086,919.314598
153.490945,2294.638420,5403.503377,-1991.848295
153.491254,-2590.720797,5625.565159,306.438199
153.491564,-5477.523971,5033.400406,9039.926876
153.491873,1036.288319,-222.061783,3677.258390
153.492183,4959.379811,4737.318029,-4136.915689
153.492492,-3552.988522,2590.720797,919.314598
153.492802,1628.453072,6809.894666,4136.915689
153.493111,-592.164754,12213.398043,-2451.505594
153.493420,-1332.370696,11621.233289,-6971.469032
153.493730,1850.514855,17320.819043,-1991.848295
153.494039,-1998.556043,9992.780217,-842.705048
153.494349,-666.185348,12287.418637,-612.876398
153.494658,1332.370696,13989.892304,4290.134789
153.494968,-4515.256246,10732.986159,-1072.533697
153.495277,518.144159,9252.574275,-6741.640382
153.495587,-148.041188,9548.656652,-3370.820191
153.495896,2368.659014,11769.274478,-8656.879127
153.496206,-2220.617826,10510.924376,-5669.106685
153.496515,2664.741391,9622.677246,3983.696590
153.496825,4663.297435,5551.544565,3217.601092
153.497134,444.123565,2590.720797,2604.724693
153.497443,-518.144159,2368.659014,8580.269578
153.497753,666.185348,5847.626942,1685.410096
153.498062,4219.173869,2368.659014,-7584.345430
153.498372,2294.638420,12435.459826,-3064.381992
153.498681,-2812.782580,8956.491898,5132.839837
153.498991,-6217.729913,11621.233289,2834.553343
153.499300,-1110.308913,18579.169144,-3217.601092
153.499610,4071.132681,14508.036463,-10418.898773
153.499919,-1480.411884,13767.830521,-10801.946522
153.500229,-2738.761985,14211.954086,-5822.325785
153.500538,2220.617826,6661.853478,0.000000
153.500847,2368.659014,12879.583391,3140.991542
153.501157,-2442.679609,7179.997637,5669.106685
153.501466,-4737.318029,2664.741391,8120.612279
153.501776,6291.750507,6069.688724,0.000000
153.502085,2220.617826,4515.256246,-9499.584175
153.502395,-5625.565159,5181.441594,-2145.067394
153.502704,2146.597232,9844.739029,1149.143247
153.503014,3256.906145,1554.432478,-8350.440928
153.503323,444.123565,11991.336260,-2374.896044
153.503633,-1776.494261,7328.038826,9576.193725
153.503942,-1924.535449,8586.388927,766.095498
153.504252,3997.112087,17172.777854,-5132.839837
153.504561,-888.247130,13323.706956,-2221.676944
153.504870,-4367.215058,12583.501014,-2757.943793
153.505180,-814.226536,15988.448347,-5209.449386
153.505489,444.123565,10732.986159,-7354.516781
153.505799,222.061783,12805.562797,-6358.592633
153.506108,-3701.029710,9326.594869,842.705048
153.506418,-3108.864956,5699.585753,7277.907231
153.506727,1628.453072,7698.141797,5209.449386
153.507037,3330.926739,2960.823768,-2145.067394
153.507346,-6809.894666,5551.544565,2374.896044
153.507656,1924.535449,6957.935855,229.828649
153.507965,518.144159,5181.441594,-10418.898773
153.508275,-1036.288319,9844.739029,-6741.640382
153.508584,-1480.411884,10436.903782,4749.792088
153.508893,1702.473667,10584.944971,-1149.143247
153.509203,3330.926739,9252.574275,-3677.258390
153.509512,-4515.256246,11325.150913,9882.631924
153.509822,-444.123565,8882.471304,6588.421283
153.510131,-222.061783,9030.512492,-3370.820191
153.510441,-1184.329507,13693.809927,-9346.365076
153.510750,1628.453072,15766.386565,-14019.547613
153.511060,2738.761985,10362.883188,-13330.061665
153.511369,-7031.956449,11251.130318,1532.190996
153.511679,1406.391290,9548.656652,9269.755526
153.511988,2294.638420,-222.061783,2068.457845
153.512298,-0.000000,2516.700203,6588.421283
153.512607,-4737.318029,1184.329507,14555.814462
153.512916,1332.370696,6735.874072,-4290.134789
153.513226,9252.574275,16210.510130,-17160.539155
153.513535,-2368.659014,11991.336260,-7277.907231
153.513845,-1332.370696,16876.695478,229.828649
153.514154,-7031.956449,14063.912898,-4060.306139
153.514464,888.247130,10955.047942,-4213.525239
153.514773,2664.741391,13841.851115,-3600.648841
153.515083,1850.514855,5033.400406,-4673.182538
153.515392,-1998.556043,6439.791695,3753.867940
153.515702,-2960.823768,5551.544565,11338.213370
153.516011,666.185348,2664.741391,1991.848295
153.516320,-2368.659014,10362.883188,-6511.811733
153.516630,2368.659014,13693.809927,-8886.707777
153.516939,962.267725,9474.636058,-12870.404366
153.517249,-740.205942,7328.038826,-7124.688131
153.517558,-4441.235652,7994.224174,7507.735880
153.517868,1776.494261,7772.162391,6052.154434
153.518177,-962.267725,4737.318029,2681.334243
153.518487,296.082377,9104.533087,1455.581446
153.518796,4959.379811,5625.565159,-4060.306139
153.519106,1924.535449,10510.924376,-8733.488677
153.519415,-296.082377,15470.304188,-4826.401637
153.519725,1924.535449,16136.489536,919.314598
153.520034,-3775.050304,11103.089130,-1455.581446
153.520343,-4737.318029,11769.274478,-536.266849
153.520653,2886.803174,12139.377449,-4443.353888
153.520962,2812.782580,7105.977043,-10342.289223
153.521272,518.144159,8956.491898,-4596.572988
153.521581,1036.288319,9474.636058,6435.202183
153.521891,3997.112087,9252.574275,229.828649
153.522200,-1850.514855,7105.977043,3677.258390
153.522510,-2590.720797,4441.235652,14479.204912
153.522819,1184.329507,10140.821405,5515.887586
153.523129,370.102971,7402.059420,-12104.308868
153.523438,148.041188,10362.883188,-7354.516781
153.523748,-296.082377,12213.398043,-3140.991542
153.524057,-2072.576638,9030.512492,-4903.011187
153.524366,-5773.606348,19467.416275,-1532.190996
153.524676,-0.000000,16802.674883,-995.924147
153.524985,2368.659014,9474.636058,-8733.488677
153.525295,222.061783,11843.295072,-2221.676944
153.525604,-5255.462188,7476.080014,7507.735880
153.525914,3404.947333,4219.173869,0.000000
153.526223,2590.720797,2146.597232,-3830.477490
153.526533,-3256.906145,3552.988522,7354.516781
153.526842,-3478.967927,8290.306550,5209.449386
153.527152,3701.029710,7772.162391,-10418.898773
153.527461,1554.432478,10510.924376,-10265.679673
153.527771,2442.679609,13101.645173,1149.143247
153.528080,-4589.276840,10881.027347,3217.601092
153.528389,-1924.535449,10732.986159,-1532.190996
153.528699,2664.741391,7402.059420,-1455.581446
153.529008,-2072.576638,7031.956449,-2451.505594
153.529318,-2886.803174,9696.697840,1838.629195
153.529627,1628.453072,14878.139434,1915.238745
153.529937,-0.000000,12287.418637,-7124.688131
153.530246,-3923.091493,12805.562797,-4213.525239
153.530556,-2886.803174,13323.706956,3064.381992
153.530865,148.041188,9696.697840,-7277.907231
153.531175,1850.514855,7105.977043,-9882.631924
153.531484,3997.112087,8438.347739,-5669.106685
153.531794,740.205942,2738.761985,612.876398
153.532103,-1702.473667,-2590.720797,9422.974625
153.532412,-6661.853478,3108.864956,13713.109414
153.532722,5181.441594,6587.832884,689.485948
153.533031,3775.050304,8734.430116,-11491.432470
153.533341,-6513.812290,10288.862594,-2604.724693
153.533650,-1850.514855,16210.510130,1762.019645
153.533960,6217.729913,14211.954086,-12717.185267
153.534269,-3997.112087,15544.324782,-8886.707777
153.534579,-6291.750507,13249.686362,12334.137518
153.534888,-3701.029710,8882.471304,4213.525239
153.535198,1702.473667,11547.212695,-8197.221829
153.535507,1480.411884,9474.636058,-6435.202183
153.535816,1924.535449,11843.295072,-7967.393179
153.536126,-4885.359217,7772.162391,-3600.648841
153.536435,-2072.576638,11547.212695,4213.525239
153.536745,5477.523971,8068.244768,-3907.087040
153.537054,1924.535449,1776.494261,-9652.803275
153.537364,-1406.391290,5847.626942,5056.230287
153.537673,3478.967927,1406.391290,8656.879127
153.537983,4219.173869,1702.473667,-3447.429741
153.538292,666.185348,4885.359217,3753.867940
153.538602,-3997.112087,5255.462188,11184.994271
153.538911,-4737.318029,10807.006753,-3217.601092
153.539221,-3330.926739,19467.416275,-12563.966167
153.539530,1554.432478,17542.880825,-14862.252661
153.539839,1332.370696,17764.942608,-16164.615008
153.540149,-814.226536,22058.137072,-8273.831378
153.540458,-3997.112087,14878.139434,4136.915689
153.540768,6661.853478,12657.521608,-2374.896044
153.541077,2442.679609,518.144159,-229.828649
153.541387,-5995.668130,1998.556043,16700.881856
153.541696,2590.720797,3478.967927,8733.488677
153.542006,7846.182985,-888.247130,-9959.241474
153.542315,2072.576638,6587.832884,-4366.744339
153.542625,-3923.091493,3775.050304,6665.030833
153.542934,-5403.503377,8216.285956,459.657299
153.543244,2072.576638,9770.718434,-7124.688131
153.543553,-518.144159,10955.047942,-6971.469032
153.543862,-370.102971,14211.954086,-4213.525239
153.544172,-4811.338623,13175.665768,-1149.143247
153.544481,-2442.679609,14582.057057,-1991.848295
153.544791,3108.864956,14878.139434,-7354.516781
153.545100,5107.421000,13249.686362,-5286.058936
153.545410,-5625.565159,12213.398043,3983.696590
153.545719,4885.359217,8068.244768,3294.210641
153.546029,-518.144159,3108.864956,-2374.896044
153.546338,-2294.638420,7846.182985,1455.581446
153.546648,1998.556043,7920.203579,-536.266849
153.546957,4441.235652,-74.020594,-8120.612279
153.547267,-3330.926739,3701.029710,-3370.820191
153.547576,-1998.556043,8586.388927,6358.592633
153.547885,-222.061783,8216.285956,1149.143247
153.548195,-2812.782580,11621.233289,-4366.744339
153.548504,-2516.700203,14211.954086,-2681.334243
153.548814,2294.638420,10584.944971,-7737.564530
153.549123,1184.329507,14359.995275,-9882.631924
153.549433,-740.205942,15988.448347,1685.410096
153.549742,888.247130,18209.066173,3217.601092
153.550052,6809.894666,10066.800811,-1608.800546
153.550361,-4737.318029,14359.995275,1685.410096
153.550671,2220.617826,7772.162391,-612.876398
153.550980,1702.473667,-0.000000,-5669.106685
153.551290,-4663.297435,5699.585753,-536.266849
153.551599,-1110.308913,3108.864956,995.924147
153.551908,5699.585753,5699.585753,-6281.983084
153.552218,-1258.350101,5847.626942,-1532.190996
153.552527,-740.205942,7179.997637,6971.469032
153.552837,3034.844362,9696.697840,4290.134789
153.553146,2738.761985,9400.615463,-1149.143247
153.553456,-2220.617826,12805.562797,76.609550
153.553765,-518.144159,11917.315666,1225.752797
153.554075,6143.709319,10288.862594,-6358.592633
153.554384,-3552.988522,15396.283594,-3524.039291
153.554694,-2368.659014,15840.407159,459.657299
153.555003,-7254.018232,9400.615463,383.047749
153.555312,962.267725,11917.315666,-6128.763984
153.555622,3478.967927,10510.924376,-7507.735880
153.555931,3182.885551,6439.791695,-4136.915689
153.556241,-8364.327145,2220.617826,5439.278036
153.556550,222.061783,7179.997637,2681.334243
153.556860,6439.791695,4441.235652,-6971.469032
153.557169,1554.432478,6143.709319,-1838.629195
153.557479,3034.844362,3775.050304,5669.106685
153.557788,2072.576638,4293.194464,2604.724693
153.558098,888.247130,7402.059420,3064.381992
153.558407,-2516.700203,10807.006753,7507.735880
153.558717,370.102971,12805.562797,2911.162892
153.559026,-2220.617826,10214.842000,-7814.174080
153.559335,-1998.556043,18061.024985,-10495.508323
153.559645,-1628.453072,16136.489536,-12257.527968
153.559954,-1924.535449,18579.169144,-10035.851024
153.560264,-4515.256246,17912.983796,-3983.696590
153.560573,1480.411884,13323.706956,-3140.991542
153.560883,5847.626942,8142.265362,-1685.410096
153.561192,-370.102971,1924.535449,8197.221829
153.561502,74.020594,-518.144159,14172.766713
153.561811,8438.347739,-148.041188,7277.907231
153.562121,4885.359217,1480.411884,-459.657299
153.562430,-3478.967927,5329.482782,3294.210641
153.562740,2146.597232,4515.256246,-229.828649
153.563049,-2294.638420,9104.533087,-9269.755526
153.563358,-1406.391290,16284.530724,-7201.297681
153.563668,-3997.112087,16136.489536,-2298.286494
153.563977,-3256.906145,11991.336260,-6281.983084
153.564287,-3552.988522,16654.633695,-7124.688131
153.564596,1036.288319,13841.851115,-5132.839837
153.564906,5107.421000,14508.036463,-8350.440928
153.565215,2368.659014,12509.480420,459.657299
153.565525,-2368.659014,5625.565159,10572.117872
153.565835,3997.112087,7105.977043,4979.620737
153.566144,3330.926739,2294.638420,2298.286494
153.566454,-1036.288319,2590.720797,7354.516781
153.566763,1036.288319,5625.565159,0.000000
153.567073,222.061783,2590.720797,-9193.145976
153.567382,-2590.720797,8586.388927,-6894.859482
153.567692,-666.185348,11917.315666,-3753.867940
153.568001,2812.782580,7105.977043,-7814.174080
153.568311,-6365.771101,15174.221811,2298.286494
153.568620,-4219.173869,16580.613101,8044.002729
153.568930,3627.009116,11029.068536,-4060.306139
153.569239,2294.638420,11251.130318,-3677.258390
153.569549,3108.864956,13471.748144,4519.963438
153.569859,1332.370696,11843.295072,-1838.629195
153.570168,-592.164754,10881.027347,-1302.362347
153.570478,-2886.803174,12805.562797,6358.592633
153.570787,296.082377,12805.562797,-2528.115143
153.571097,444.123565,6587.832884,-12104.308868
153.571406,-592.164754,7698.141797,-2987.772442
153.571716,-1036.288319,3997.112087,-766.095498
153.572025,2738.761985,2738.761985,-3064.381992
153.572335,-4441.235652,3997.112087,4903.011187
153.572644,740.205942,8882.471304,9806.022374
153.572954,8882.471304,8068.244768,1762.019645
153.573263,4811.338623,7846.182985,-2834.553343
153.573573,-592.164754,14137.933492,8656.879127
153.573883,-444.123565,11251.130318,5745.716235
153.574192,814.226536,13841.851115,-1302.362347
153.574502,1110.308913,17172.777854,-3447.429741
153.574811,-4737.318029,16358.551318,-4903.011187
153.575121,-592.164754,9696.697840,-10265.679673
153.575430,-3627.009116,12805.562797,-7507.735880
153.575740,6217.729913,14211.954086,-9882.631924
153.576049,148.041188,4219.173869,-4519.963438
153.576359,-6957.935855,10807.006753,8350.440928
153.576668,3775.050304,4811.338623,8197.221829
153.576978,10288.862594,518.144159,-2068.457845
153.577288,1480.411884,4811.338623,4979.620737
153.577597,-1036.288319,3849.070898,12640.575717
153.577907,3701.029710,8142.265362,1225.752797
153.578216,2960.823768,4219.173869,-4366.744339
153.578526,-3404.947333,14434.015869,2911.162892
153.578835,-3552.988522,14285.974681,-1532.190996
153.579145,-148.041188,15988.448347,-13636.499864
153.579454,-6069.688724,19689.478057,-9576.193725
153.579764,1554.432478,19245.354492,-11721.261119
153.580073,9104.533087,9918.759623,-16164.615008
153.580383,-5551.544565,13989.892304,3753.867940
153.580692,1702.473667,9622.677246,15092.081311
153.581002,5699.585753,1258.350101,2221.676944
153.581312,1110.308913,5329.482782,5286.058936
153.581621,2368.659014,5107.421000,13942.938064
153.581931,3997.112087,148.041188,-4213.525239
153.582240,-2368.659014,6291.750507,-7737.564530
153.582550,-2738.761985,15174.221811,766.095498
153.582859,-2368.659014,11991.336260,-8273.831378
153.583169,3997.112087,11029.068536,-17007.320056
153.583478,-1480.411884,9474.636058,-229.828649
153.583788,-2590.720797,10732.986159,7048.078582
153.584097,3701.029710,9844.739029,306.438199
153.584407,-1628.453072,11399.171507,3753.867940
153.584716,-1554.432478,11103.089130,7507.735880
153.585026,5181.441594,13915.871710,-7660.954980
153.585336,4367.215058,15396.283594,-14785.643111
153.585645,2368.659014,14878.139434,-3294.210641
153.585955,-2294.638420,12287.418637,153.219100
153.586264,-5181.441594,10288.862594,4443.353888
153.586574,2368.659014,6439.791695,5592.497135
153.586883,1480.411884,2812.782580,-1991.848295
153.587193,1258.350101,-0.000000,-7277.907231
153.587502,-592.164754,-0.000000,3140.991542
153.587812,-2812.782580,7698.141797,689.485948
153.588121,370.102971,7846.182985,-4213.525239
153.588431,962.267725,17987.004391,-2068.457845
153.588740,444.123565,17690.922014,-4903.011187
153.589050,3256.906145,10732.986159,-8656.879127
153.589360,-2072.576638,13693.809927,1302.362347
153.589669,-1850.514855,11621.233289,6818.249932
153.589979,3404.947333,12583.501014,-3064.381992
153.590288,-1110.308913,6809.894666,1532.190996
153.590598,1628.453072,9770.718434,3983.696590
153.590907,-1184.329507,11843.295072,-4979.620737
153.591217,1480.411884,8956.491898,-6665.030833
153.591526,-1258.350101,9474.636058,-4213.525239
153.591836,-740.205942,6735.874072,-4903.011187
153.592145,6735.874072,5921.647536,-3907.087040
153.592455,-6439.791695,7698.141797,6665.030833
153.592764,3404.947333,8956.491898,3677.258390
153.593074,6069.688724,6439.791695,-1915.238745
153.593384,-1628.453072,9030.512492,3370.820191
153.593693,2516.700203,10214.842000,5056.230287
153.594003,1850.514855,8734.430116,-6281.983084
153.594312,-1184.329507,9104.533087,459.657299
153.594622,-4145.153275,14952.160028,7201.297681
153.594931,-740.205942,15322.262999,-6741.640382
153.595241,296.082377,9918.759623,-10878.556072
153.595550,-1036.288319,12583.501014,-3830.477490
153.595860,1702.473667,5995.668130,-7354.516781
153.596169,222.061783,6883.915261,-4826.401637
153.596479,-5773.606348,9252.574275,9806.022374
153.596789,5995.668130,8808.450710,6128.763984
153.597098,7328.038826,1036.288319,-4213.525239
153.597408,-5403.503377,6291.750507,9116.536426
153.597717,1258.350101,5033.400406,6358.592633
153.598027,5995.668130,-2294.638420,-9806.022374
153.598336,-1628.453072,10807.006753,-3447.429741
153.598646,1776.494261,12805.562797,5822.325785
153.598955,-1110.308913,14878.139434,-6435.202183
153.599265,-814.226536,15692.365970,-5286.058936
153.599574,-3627.009116,15914.427753,2987.772442
153.599884,-3256.906145,15840.407159,-6665.030833
153.600193,-518.144159,11917.315666,-12640.575717
153.600503,-2442.679609,9326.594869,-5362.668486
153.600813,3775.050304,8882.471304,-4290.134789
153.601122,4145.153275,5921.647536,-4366.744339
153.601432,-3478.967927,6069.688724,12334.137518
153.601741,4589.276840,4515.256246,12640.575717
153.602051,5033.400406,-2294.638420,995.924147
153.602360,-2664.741391,4071.132681,5898.935335
153.602670,-888.247130,6069.688724,2374.896044
153.602979,-74.020594,2442.679609,-13253.452115
153.603289,-148.041188,12361.439231,-11797.870669
153.603598,-3404.947333,13767.830521,-7124.688131
153.603908,-2590.720797,16210.510130,-8580.269578
153.604217,3552.988522,17394.839637,-7354.516781
153.604527,-2220.617826,11843.295072,5515.887586
153.604837,-1184.329507,13841.851115,5822.325785
153.605146,-518.144159,8364.327145,2987.772442
153.605456,2442.679609,10362.883188,612.876398
153.605765,5329.482782,8438.347739,-5515.887586
153.606075,-1406.391290,6439.791695,-7737.564530
153.606384,-5995.668130,11917.315666,2374.896044
153.606694,4663.297435,10807.006753,-4519.963438
153.607003,3849.070898,3404.947333,-10189.070123
153.607313,-3997.112087,4367.215058,9039.926876
153.607622,-4441.235652,5107.421000,11338.213370
153.607932,3108.864956,3775.050304,-5822.325785
153.608241,3478.967927,3034.844362,-1915.238745
153.608551,-3182.885551,8734.430116,9499.584175
153.608861,2368.659014,15840.407159,-6128.763984
153.609170,592.164754,14359.995275,-10265.679673
153.609480,-2738.761985,18283.086767,766.095498
153.609789,148.041188,14656.077652,-612.876398
153.610099,-1628.453072,12065.356855,-6818.249932
153.610408,-6069.688724,12065.356855,2681.334243
153.610718,1036.288319,7772.162391,-1685.410096
153.611027,4145.153275,-740.205942,-8350.440928
153.611337,-1924.535449,3775.050304,4443.353888
153.611646,888.247130,6809.894666,9422.974625
153.611956,-666.185348,4737.318029,-1455.581446
153.612265,-5033.400406,10732.986159,3830.477490
153.612575,-1110.308913,11843.295072,2298.286494
153.612885,8660.409521,4589.276840,-19765.263848
153.613194,1554.432478,5033.400406,-12717.185267
153.613504,-6439.791695,10436.903782,10801.946522
153.613813,-1480.411884,15026.180623,11108.384721
153.614123,4885.359217,14137.933492,0.000000
153.614432,-4441.235652,16136.489536,1532.190996
153.614742,1110.308913,10140.821405,1532.190996
153.615051,1480.411884,10066.800811,-9346.365076
153.615361,-4811.338623,14211.954086,-8044.002729
153.615670,2368.659014,13101.645173,-5669.106685
153.615980,2146.597232,7846.182985,-9269.755526
153.616290,-2812.782580,6217.729913,689.485948
153.616599,-592.164754,9548.656652,7124.688131
153.616909,4441.235652,5403.503377,-2451.505594
153.617218,5773.606348,3552.988522,2834.553343
153.617528,-3701.029710,5847.626942,11797.870669
153.617837,2368.659014,8586.388927,1455.581446
153.618147,5403.503377,7476.080014,-6818.249932
153.618456,-3330.926739,12139.377449,-1225.752797
153.618766,-6069.688724,13989.892304,1685.410096
153.619075,3775.050304,13989.892304,-13483.280765
153.619385,-4441.235652,13471.748144,-9806.022374
153.619694,-3701.029710,15618.345376,229.828649
153.620004,296.082377,15396.283594,-8810.098227
153.620314,-1850.514855,12583.501014,-6665.030833
153.620623,-518.144159,9992.780217,5209.449386
153.620933,592.164754,4589.276840,-2604.724693
153.621242,1258.350101,-1850.514855,612.876398
153.621552,4071.132681,3627.009116,8886.707777
153.621861,-3034.844362,4663.297435,3600.648841
153.622171,-2294.638420,4441.235652,-229.828649
153.622480,-2886.803174,10807.006753,2068.457845
153.622790,1998.556043,11769.274478,-9346.365076
153.623099,5033.400406,7994.224174,-18079.853753
153.623409,-5551.544565,11917.315666,-5286.058936
153.623718,-7402.059420,10362.883188,5745.716235
153.624028,7254.018232,13841.851115,-2911.162892
153.624338,-2220.617826,8660.409521,1378.971896
153.624647,-1628.453072,10214.842000,8273.831378
153.624957,-1776.494261,10288.862594,-1762.019645
153.625266,3552.988522,9622.677246,-9806.022374
153.625576,3034.844362,10658.965565,-6511.811733
153.625885,-148.041188,11547.212695,-7354.516781
153.626195,-4885.359217,11843.295072,0.000000
153.626504,3330.926739,14434.015869,3677.258390
153.626814,-0.000000,8364.327145,-2911.162892
153.627123,4367.215058,2960.823768,-2528.115143
153.627433,-8808.450710,148.041188,4673.182538
153.627742,-444.123565,4515.256246,2528.115143
153.628052,2368.659014,3404.947333,-3830.477490
153.628362,-3701.029710,9252.574275,-306.438199
153.628671,2368.659014,16950.716072,3217.601092
153.628981,4293.194464,18061.024985,-6358.592633
153.629290,-2886.803174,16580.613101,-2451.505594
153.629600,-1850.514855,17394.839637,842.705048
153.629909,6217.729913,9178.553681,-13713.109414
153.630219,-2368.659014,7402.059420,-6435.202183
153.630528,-5033.400406,11103.089130,9806.022374
153.630838,4367.215058,9770.718434,-3294.210641
153.631147,7254.018232,7772.162391,-10495.508323
153.631457,-7179.997637,7994.224174,8427.050478
153.631766,-1924.535449,3552.988522,7584.345430
153.632076,8216.285956,5181.441594,-8963.317327
153.632386,-2442.679609,7328.038826,-2987.772442
153.632695,1554.432478,7846.182985,6052.154434
153.633005,3552.988522,4663.297435,-3140.991542
153.633314,-740.205942,3182.885551,-383.047749
153.633624,-2146.597232,15840.407159,10495.508323
153.633933,1258.350101,15988.448347,-1991.848295
153.634243,1776.494261,11251.130318,-9576.193725
153.634552,-2294.638420,15396.283594,1838.629195
153.634862,-3997.112087,13471.748144,-5286.058936
153.635171,-3997.112087,9548.656652,-12257.527968
153.635481,-888.247130,15692.365970,-1378.971896
153.635791,5107.421000,9474.636058,-5669.106685
153.636100,1110.308913,5329.482782,-2987.772442
153.636410,-5477.523971,11399.171507,15245.300410
153.636719,-1628.453072,6513.812290,7277.907231
153.637029,8068.244768,4663.297435,-9346.365076
153.637338,592.164754,3330.926739,-5515.887586
153.637648,-5403.503377,-2220.617826,4749.792088
153.637957,2294.638420,5255.462188,-612.876398
153.638267,-2590.720797,7920.203579,-3064.381992
153.638576,-370.102971,16062.468941,-306.438199
153.638886,1110.308913,17542.880825,-2374.896044
153.639195,1110.308913,5847.626942,-11951.089769
153.639505,962.267725,11991.336260,-4060.306139
153.639815,-5551.544565,13397.727550,2604.724693
153.640124,-2220.617826,16580.613101,-2451.505594
153.640434,-222.061783,22354.219448,-7048.078582
153.640743,4441.235652,10881.027347,-9116.536426
153.641053,4737.318029,6661.853478,-2911.162892
153.641362,-3849.070898,6069.688724,5745.716235
153.641672,888.247130,888.247130,766.095498
153.641981,444.123565,1924.535449,2451.505594
153.642291,-7402.059420,2812.782580,8733.488677
153.642600,4737.318029,9104.533087,-1225.752797
153.642910,3849.070898,9400.615463,-8963.317327
153.643219,-962.267725,8882.471304,-4596.572988
153.643529,-1480.411884,8882.471304,-536.266849
153.643839,962.267725,11917.315666,-9116.536426
153.644148,-814.226536,8956.491898,-5056.230287
153.644458,-6587.832884,14211.954086,11261.603821
153.644767,4071.132681,11991.336260,766.095498
153.645077,2442.679609,11769.274478,-7124.688131
153.645386,-6513.812290,15618.345376,2374.896044
153.645696,-0.000000,8364.327145,-8120.612279
153.646005,6957.935855,10436.903782,-18692.730151
153.646315,-10288.862594,11399.171507,153.219100
153.646624,-5551.544565,11991.336260,9806.022374
153.646934,5921.647536,12139.377449,-11568.042020
153.647243,4441.235652,3256.906145,-9652.803275
153.647553,-1924.535449,2146.597232,10112.460574
153.647863,592.164754,-4293.194464,7890.783629
153.648172,5255.462188,740.205942,-2604.724693
153.648482,-592.164754,8808.450710,8656.879127
153.648791,-2664.741391,10732.986159,10725.336972
153.649101,666.185348,16654.633695,-5822.325785
153.649410,-1850.514855,19615.457463,-12104.308868
153.649720,1036.288319,17616.901420,-13559.890315
153.650029,-3552.988522,12657.521608,-8044.002729
153.650339,-4589.276840,15470.304188,-4673.182538
153.650648,-3478.967927,13767.830521,1532.190996
153.650958,3256.906145,13915.871710,-612.876398
153.651267,-148.041188,8512.368333,2451.505594
153.651577,814.226536,3108.864956,7201.297681
153.651887,3256.906145,3182.885551,3294.210641
153.652196,-2590.720797,-3108.864956,1838.629195
153.652506,3701.029710,9770.718434,2528.115143
153.652815,-2072.576638,-148.041188,-689.485948
153.653125,2812.782580,9696.697840,-5669.106685
153.653434,-4959.379811,11769.274478,1762.019645
153.653744,-3849.070898,11843.295072,-306.438199
153.654053,3330.926739,9400.615463,-5669.106685
153.654363,-2886.803174,10510.924376,-2451.505594
153.654672,2072.576638,14878.139434,-459.657299
153.654982,-1406.391290,15026.180623,-2528.115143
153.655292,-148.041188,17764.942608,1149.143247
153.655601,3404.947333,13693.809927,-383.047749
153.655911,4219.173869,11103.089130,-8503.660028
153.656220,-4441.235652,5477.523971,1991.848295
153.656530,-5847.626942,8438.347739,6971.469032
153.656839,5773.606348,4737.318029,-4903.011187
153.657149,6143.709319,3330.926739,-4673.182538
153.657458,-3627.009116,7624.121203,7048.078582
153.657768,-3849.070898,2368.659014,7431.126331
153.658077,6439.791695,6069.688724,-4903.011187
153.658387,-2294.638420,8068.244768,995.924147
153.658696,888.247130,10288.862594,4903.011187
153.659006,-296.082377,9918.759623,-4213.525239
153.659316,-1332.370696,11843.295072,-6205.373534
153.659625,2442.679609,15618.345376,-3294.210641
153.659935,-1628.453072,16876.695478,-5056.230287
153.660244,-3997.112087,12731.542202,-459.657299
153.660554,-1776.494261,14582.057057,2987.772442
153.660863,9548.656652,15692.365970,-10265.679673
153.661173,-1924.535449,6439.791695,-5362.668486
153.661482,-6809.894666,7105.977043,12027.699319
153.661792,740.205942,3330.926739,-306.438199
153.662101,5107.421000,962.267725,-10725.336972
153.662411,-2812.782580,3997.112087,8580.269578
153.662720,-1554.432478,4515.256246,6741.640382
153.663030,5107.421000,8882.471304,-10189.070123
153.663340,-222.061783,8660.409521,-1149.143247
153.663649,-3478.967927,14656.077652,5209.449386
153.663959,2146.597232,14359.995275,-7967.393179
153.664268,-592.164754,12287.418637,-7277.907231
153.664578,-0.000000,13101.645173,919.314598
153.664887,1480.411884,13101.645173,-6971.469032
153.665197,962.267725,10955.047942,-4213.525239
153.665506,-5773.606348,12139.377449,7354.516781
153.665816,4811.338623,7031.956449,-3064.381992
153.666125,370.102971,4219.173869,-7277.907231
153.666435,-6883.915261,11547.212695,10035.851024
153.666746,-2146.597232,5181.441594,2757.943793
153.667056,5551.544565,7254.018232,-18003.244203
153.667365,592.164754,9474.636058,-7124.688131
153.667675,-1480.411884,5699.585753,3524.039291
153.667984,-1628.453072,9030.512492,-3753.867940
153.668294,4293.194464,7402.059420,2757.943793
153.668604,4737.318029,12139.377449,9269.755526
153.668913,-3330.926739,7105.977043,2451.505594
153.669223,888.247130,5625.565159,2681.334243
153.669533,1776.494261,7920.203579,-2834.553343
153.669842,1480.411884,10510.924376,-7660.954980
153.670152,-3404.947333,13619.789333,-1915.238745
153.670462,-2368.659014,17542.880825,0.000000
153.670771,3627.009116,10436.903782,-9269.755526
153.671081,-2812.782580,11029.068536,-1225.752797
153.671390,-7105.977043,12805.562797,9039.926876
153.671700,3923.091493,5107.421000,-4903.011187
153.672010,3627.009116,4811.338623,-7431.126331
153.672319,-1998.556043,9030.512492,5209.449386
153.672629,-4367.215058,8068.244768,4519.963438
153.672939,7550.100608,12879.583391,-3677.258390
153.673248,3404.947333,9252.574275,0.000000
153.673558,2368.659014,9326.594869,2374.896044
153.673867,-814.226536,7105.977043,2834.553343
153.674177,-3997.112087,5699.585753,2681.334243
153.674487,-148.041188,4589.276840,1838.629195
153.674796,2220.617826,11325.150913,-6665.030833
153.675106,-3108.864956,11769.274478,-8120.612279
153.675416,-7254.018232,16432.571912,1302.362347
153.675725,7698.141797,15692.365970,-8197.221829
153.676035,2220.617826,10362.883188,-14555.814462
153.676344,-3775.050304,13101.645173,4903.011187
153.676654,-5921.647536,7994.224174,11261.603821
153.676964,9400.615463,8734.430116,-3294.210641
153.677273,7994.224174,4293.194464,-2757.943793
153.677583,-2368.659014,6661.853478,10648.727422
153.677893,1258.350101,5255.462188,4596.572988
153.678202,1036.288319,8290.306550,-8350.440928
153.678512,-888.247130,9770.718434,5439.278036
153.678821,-1924.535449,8660.409521,4443.353888
153.679131,-2072.576638,12953.603985,-8044.002729
153.679441,-6957.935855,13989.892304,-4826.401637
153.679750,4737.318029,10658.965565,-7201.297681
153.680060,2220.617826,4737.318029,-10878.556072
153.680370,-3997.112087,12065.356855,2681.334243
153.680679,-2738.761985,12879.583391,5286.058936
153.680989,6143.709319,11029.068536,-3753.867940
153.681299,5699.585753,7920.203579,1991.848295
153.681608,-1850.514855,9104.533087,8963.317327
153.681918,5329.482782,8956.491898,-4366.744339
153.682227,1924.535449,888.247130,-5515.887586
153.682537,-3256.906145,6809.894666,6128.763984
153.682847,-5107.421000,5699.585753,-919.314598
153.683156,-518.144159,10288.862594,-12640.575717
153.683466,-4219.173869,16580.613101,-766.095498
153.683776,3182.885551,12657.521608,-2681.334243
153.684085,4441.235652,8142.265362,-13713.109414
153.684395,-2368.659014,11177.109724,2145.067394
153.684704,-4589.276840,5847.626942,11108.384721
153.685014,370.102971,8586.388927,-995.924147
153.685324,4441.235652,11843.295072,-1608.800546
153.685633,4663.297435,14137.933492,-1378.971896
153.685943,370.102971,8586.388927,-8120.612279
153.686253,-4367.215058,7476.080014,-2528.115143
153.686562,-2368.659014,9326.594869,2834.553343
153.686872,1036.288319,9918.759623,-9729.412825
153.687181,1480.411884,9992.780217,-10955.165621
153.687491,-1480.411884,11547.212695,0.000000
153.687801,-0.000000,1776.494261,2604.724693
153.688110,6587.832884,2368.659014,0.000000
153.688420,-0.000000,8734.430116,4060.306139
153.688730,-666.185348,6587.832884,6435.202183
153.689039,962.267725,11103.089130,6971.469032
153.689349,2590.720797,12731.542202,1838.629195
153.689658,4737.318029,16580.613101,-10648.727422
153.689968,1036.288319,17024.736666,-9422.974625
153.690278,-6143.709319,12065.356855,-1302.362347
153.690587,-2886.803174,14434.015869,-2451.505594
153.690897,2146.597232,12879.583391,-8427.050478
153.691207,-1184.329507,8586.388927,-1608.800546
153.691516,-4071.132681,8808.450710,7890.783629
153.691826,3849.070898,5107.421000,1532.190996
153.692136,4293.194464,2368.659014,-4443.353888
153.692445,-444.123565,5033.400406,4290.134789
153.692755,-1480.411884,3256.906145,5898.935335
153.693064,4885.359217,3775.050304,-1915.238745
153.693374,-3701.029710,9918.759623,995.924147
153.693684,3849.070898,11843.295072,2221.676944
153.693993,-1628.453072,11325.150913,-6971.469032
153.694303,-2072.576638,8586.388927,-5286.058936
153.694613,-3182.885551,8364.327145,612.876398
153.694922,2886.803174,11325.150913,-10418.898773
153.695232,-2294.638420,13767.830521,-7890.783629
153.695541,-2590.720797,11621.233289,11184.994271
153.695851,3478.967927,14285.974681,153.219100
153.696161,4737.318029,9326.594869,-8733.488677
153.696470,-296.082377,8068.244768,5439.278036
153.696780,-296.082377,5625.565159,8273.831378
153.697090,2368.659014,-518.144159,-4979.620737
153.697399,-3775.050304,10807.006753,-229.828649
153.697709,-666.185348,13915.871710,4366.744339
153.698018,4737.318029,8734.430116,-9116.536426
153.698328,-0.000000,7476.080014,-3140.991542
153.698638,-666.185348,11621.233289,4443.353888
153.698947,-2590.720797,7772.162391,-1072.533697
153.699257,-0.000000,9770.718434,-3370.820191
153.699567,3478.967927,8216.285956,-1149.143247
153.699876,-1628.453072,8068.244768,-919.314598
153.700186,1332.370696,13767.830521,0.000000
153.700495,-0.000000,15914.427753,612.876398
153.700805,3849.070898,8512.368333,-612.876398
153.701115,-518.144159,8734.430116,612.876398
153.701424,-7179.997637,12435.459826,-1608.800546
153.701734,-592.164754,8512.368333,-5439.278036
153.702044,1924.535449,4589.276840,-6052.154434
153.702353,-148.041188,7328.038826,-4136.915689
153.702663,-3330.926739,8290.306550,-1302.362347
153.702973,962.267725,10807.006753,-1455.581446
153.703282,3701.029710,4737.318029,2221.676944
153.703592,6069.688724,6143.709319,5669.106685
153.703901,-5625.565159,9178.553681,8963.317327
153.704211,-3034.844362,7624.121203,2298.286494
153.704521,3627.009116,10807.006753,-6358.592633
153.704830,4885.359217,9474.636058,-15092.081311
153.705140,-5995.668130,12213.398043,-7737.564530
153.705450,-4885.359217,19763.498651,-2757.943793
153.705759,4219.173869,13175.665768,-8963.317327
153.706069,814.226536,8290.306550,306.438199
153.706378,-5625.565159,10362.883188,11797.870669
153.706688,-2146.597232,6809.894666,1302.362347
153.706998,5921.647536,7254.018232,-11338.213370
153.707307,4811.338623,-222.061783,-2834.553343
153.707617,1110.308913,1184.329507,2451.505594
153.707927,-3330.926739,10881.027347,2757.943793
153.708236,-5107.421000,12361.439231,4519.963438
153.708546,5995.668130,17764.942608,0.000000
153.708855,8068.244768,9474.636058,-12793.794817
153.709165,-2886.803174,5329.482782,-5439.278036
153.709475,-8364.327145,10066.800811,5975.544884
153.709784,1850.514855,3552.988522,-3294.210641
153.710094,4737.318029,7772.162391,-4290.134789
153.710404,-6735.874072,14137.933492,9652.803275
153.710713,3182.885551,16210.510130,4060.306139
153.711023,5699.585753,10807.006753,-9499.584175
153.711332,-1628.453072,5403.503377,1532.190996
153.711642,-3478.967927,6217.729913,6128.763984
153.711952,-4441.235652,13323.706956,-6205.373534
153.712261,-5699.585753,13175.665768,-6358.592633
153.712571,6217.729913,13841.851115,1608.800546
153.712881,9400.615463,7550.100608,-8503.660028
153.713190,-1554.432478,9178.553681,-6665.030833
153.713500,-7402.059420,10658.965565,15245.300410
153.713810,1998.556043,2294.638420,7048.078582
153.714119,10732.986159,1850.514855,-2681.334243
153.714429,370.102971,10362.883188,3524.039291
153.714738,-7179.997637,9030.512492,4136.915689
153.715048,1332.370696,10955.047942,-5132.839837
153.715358,-518.144159,8216.285956,-4979.620737
153.715667,3478.967927,12805.562797,-7660.954980
153.715977,-1184.329507,15692.365970,-9039.926876
153.716287,-9474.636058,9030.512492,3753.867940
153.716596,-1406.391290,10288.862594,4903.011187
153.716906,5181.441594,10436.903782,-8580.269578
153.717215,4219.173869,8956.491898,-6281.983084
153.717525,-4959.379811,3849.070898,9346.365076
153.717835,-2886.803174,296.082377,10878.556072
153.718144,8956.491898,9548.656652,-4213.525239
153.718454,-2220.617826,13027.624579,-5669.106685
153.718764,-444.123565,14137.933492,-3294.210641
153.719073,-2960.823768,10584.944971,-5515.887586
153.719383,-814.226536,7920.203579,-383.047749
153.719692,6587.832884,11621.233289,-5975.544884
153.720002,-4515.256246,11621.233289,-6665.030833
153.720312,-1332.370696,5329.482782,9499.584175
153.720621,-518.144159,6957.935855,10112.460574
153.720931,4219.173869,8808.450710,-6281.983084
153.721241,-1480.411884,9474.636058,-4366.744339
153.721550,-7550.100608,13915.871710,5669.106685
153.721860,5107.421000,10732.986159,-6971.469032
153.722169,3997.112087,8216.285956,-14019.547613
153.722479,-7031.956449,14508.036463,5056.230287
153.722789,-2220.617826,9844.739029,2757.943793
153.723098,-0.000000,8512.368333,-8963.317327
153.723408,-2368.659014,8290.306550,229.828649
153.723718,-2590.720797,8660.409521,3753.867940
153.724027,3034.844362,7328.038826,-9422.974625
153.724337,1924.535449,3404.947333,-3830.477490
153.724647,-2146.597232,8068.244768,5515.887586
153.724956,1184.329507,11695.253884,0.000000
153.725266,-1406.391290,11177.109724,0.000000
153.725575,4219.173869,10732.986159,5056.230287
153.725885,3849.070898,6365.771101,-7048.078582
153.726195,1702.473667,3775.050304,-7431.126331
153.726504,-6957.935855,8734.430116,4749.792088
153.726814,518.144159,7846.182985,-536.266849
153.727124,1480.411884,12213.398043,-8886.707777
153.727433,-3552.988522,14508.036463,-306.438199
153.727743,-148.041188,13027.624579,919.314598
153.728052,4441.235652,12805.562797,-10572.117872
153.728362,1036.288319,3627.009116,-2528.115143
153.728672,-2738.761985,7846.182985,5209.449386
153.728981,-1628.453072,8956.491898,1072.533697
153.729291,1554.432478,8734.430116,995.924147
153.729601,1776.494261,11325.150913,1532.190996
153.729910,3552.988522,9252.574275,-1608.800546
153.730220,-3552.988522,9326.594869,-4826.401637
153.730529,-6957.935855,10288.862594,229.828649
153.730839,2738.761985,10214.842000,-7354.516781
153.731149,3478.967927,11029.068536,-10495.508323
153.731458,-1332.370696,10955.047942,919.314598
153.731768,2146.597232,7179.997637,3907.087040
153.732078,2072.576638,3034.844362,1762.019645
153.732387,5181.441594,7920.203579,8580.269578
153.732697,-5033.400406,7179.997637,9882.631924
153.733006,-1924.535449,11029.068536,-4826.401637
153.733316,-2146.597232,12435.459826,-5362.668486
153.733626,5329.482782,9844.739029,-9806.022374
153.733935,-4589.276840,13175.665768,-12793.794817
153.734245,-6809.894666,13175.665768,153.219100
153.734555,-1258.350101,11769.274478,1915.238745
153.734864,8364.327145,4885.359217,-2987.772442
153.735174,962.267725,10140.821405,4366.744339
153.735484,-5773.606348,6809.894666,10955.165621
153.735793,4071.132681,7402.059420,-3217.601092
153.736103,3404.947333,5847.626942,-6971.469032
153.736412,-1480.411884,3404.947333,5592.497135
153.736722,-2072.576638,13397.727550,4749.792088
153.737032,-222.061783,13619.789333,-8197.221829
153.737341,-296.082377,11917.315666,-3753.867940
153.737651,-2072.576638,12139.377449,0.000000
153.737961,1480.411884,10140.821405,-12180.918418
153.738270,-1924.535449,10066.800811,-4903.011187
153.738580,-1998.556043,14434.015869,7584.345430
153.738889,-1258.350101,4589.276840,1838.629195
153.739199,-0.000000,12361.439231,1072.533697
153.739509,-3478.967927,12435.459826,5745.716235
153.739818,6735.874072,10807.006753,-4903.011187
153.740128,-148.041188,5699.585753,-11338.213370
153.740438,-8216.285956,8438.347739,3983.696590
153.740747,814.226536,11621.233289,-3217.601092
153.741057,7254.018232,9548.656652,-15934.786358
153.741366,1036.288319,4663.297435,5898.935335
153.741676,-6513.812290,9548.656652,14709.033562
153.741986,2590.720797,9178.553681,-2911.162892
153.742295,5921.647536,1998.556043,-5286.058936
153.742605,-6735.874072,7105.977043,7201.297681
153.742915,-222.061783,4959.379811,0.000000
153.743224,3478.967927,11843.295072,-13100.233016
153.743534,-1998.556043,18357.107362,-5975.544884
153.743843,-444.123565,8068.244768,-1608.800546
153.744153,-1480.411884,11547.212695,-3064.381992
153.744463,-4441.235652,18135.045579,2451.505594
153.744772,1924.535449,11843.295072,-1838.629195
153.745082,3330.926739,9992.780217,-7890.783629
153.745392,-2072.576638,5403.503377,1455.581446
153.745701,-2664.741391,6883.915261,4290.134789
153.746011,1184.329507,9622.677246,-9422.974625
153.746321,2738.761985,1998.556043,-3600.648841
153.746630,-740.205942,7772.162391,9269.755526
153.746940,1480.411884,9326.594869,3600.648841
153.747249,2146.597232,9104.533087,-3753.867940
153.747559,-5181.441594,9548.656652,995.924147
153.747869,3478.967927,7402.059420,-3753.867940
153.748178,-1258.350101,7698.141797,-10265.679673
153.748488,-7328.038826,17616.901420,-1072.533697
153.748798,222.061783,13545.768739,-4443.353888
153.749107,6809.894666,12139.377449,-7814.174080
153.749417,-1110.308913,6957.935855,5592.497135
153.749726,-4737.318029,10436.903782,12257.527968
153.750036,-888.247130,7550.100608,1149.143247
153.750346,1480.411884,5551.544565,-4366.744339
153.750655,148.041188,6587.832884,-4749.792088
153.750965,-888.247130,10066.800811,-12563.966167
153.751275,518.144159,9474.636058,-9116.536426
153.751584,-962.267725,13841.851115,536.266849
153.751894,5551.544565,6587.832884,919.314598
153.752203,592.164754,6291.750507,3524.039291
153.752513,-3330.926739,3997.112087,13559.890315
153.752823,-2368.659014,1776.494261,11184.994271
153.753132,5551.544565,7920.203579,-3524.039291
153.753442,-518.144159,7328.038826,-8810.098227
153.753752,-2664.741391,13915.871710,-9806.022374
153.754061,-2442.679609,23538.548956,-10878.556072
153.754371,-2220.617826,15766.386565,-5669.106685
153.754680,1924.535449,17246.798449,-2298.286494
153.754990,3997.112087,14952.160028,-3600.648841
153.755300,-3775.050304,5329.482782,4903.011187
153.755609,-1480.411884,-1554.432478,16164.615008
153.755919,7920.203579,888.247130,0.000000
153.756229,5255.462188,2442.679609,-9116.536426
153.756538,-5181.441594,11325.150913,5822.325785
153.756848,-3923.091493,10214.842000,5209.449386
153.757158,4367.215058,13841.851115,-11414.822920
153.757467,740.205942,15248.242405,-6665.030833
153.757777,1406.391290,13841.851115,1072.533697
153.758086,-7550.100608,8438.347739,-919.314598
153.758396,-518.144159,8068.244768,4136.915689
153.758706,148.041188,8364.327145,-919.314598
153.759015,3404.947333,14211.954086,-8656.879127
153.759325,1332.370696,9770.718434,-1762.019645
153.759635,-6143.709319,9326.594869,7277.907231
153.759944,-1184.329507,10288.862594,612.876398
153.760254,-148.041188,12879.583391,-4596.572988
153.760563,740.205942,13027.624579,-5669.106685
153.760873,4441.235652,5921.647536,-8197.221829
153.761183,3701.029710,3627.009116,-3064.381992
153.761492,-5477.523971,6661.853478,5898.935335
153.761802,3108.864956,5699.585753,2528.115143
153.762112,1184.329507,4515.256246,1302.362347
153.762421,666.185348,6661.853478,6741.640382
153.762731,-4219.173869,8290.306550,7201.297681
153.763040,-888.247130,12805.562797,-4060.306139
153.763350,2368.659014,3849.070898,-10878.556072
153.763660,-1036.288319,8660.409521,-7354.516781
153.763969,-3701.029710,16728.654289,-4136.915689
153.764279,-4737.318029,18283.086767,-1302.362347
153.764589,-1998.556043,19393.395680,-1072.533697
153.764898,12657.521608,10881.027347,-6128.763984
153.765208,-2368.659014,7994.224174,-612.876398
153.765517,-7476.080014,1776.494261,12487.356617
153.765827,1036.288319,740.205942,5898.935335
153.766137,4145.153275,9622.677246,-7584.345430
153.766446,-4663.297435,6957.935855,-995.924147
153.766756,1554.432478,10658.965565,-2987.772442
153.767066,5329.482782,9696.697840,-15475.129060
153.767375,4367.215058,8586.388927,-4749.792088
153.767685,-4367.215058,8512.368333,7354.516781
153.767994,-1258.350101,8660.409521,4903.011187
153.768304,6735.874072,10214.842000,3907.087040
153.768614,-1850.514855,7624.121203,8656.879127
153.768923,-1702.473667,10214.842000,229.828649
153.769233,148.041188,9326.594869,-9116.536426
153.769543,-5255.462188,13989.892304,-11568.042020
153.769852,296.082377,12583.501014,-15704.957709
153.770162,-1332.370696,13027.624579,-7277.907231
153.770471,-2220.617826,18061.024985,2528.115143
153.770781,-1480.411884,12953.603985,536.266849
153.771091,5477.523971,9400.615463,-3753.867940
153.771400,222.061783,-2960.823768,3217.601092
153.771710,4145.153275,-1406.391290,7124.688131
153.772020,-222.061783,3034.844362,995.924147
153.772329,1406.391290,5181.441594,612.876398
153.772639,-592.164754,9622.677246,4749.792088
153.772948,3478.967927,8216.285956,-3064.381992
153.773258,2072.576638,11029.068536,-7354.516781
153.773568,-7328.038826,13397.727550,-383.047749
153.773877,3182.885551,5699.585753,0.000000
153.774187,-592.164754,9918.759623,-5822.325785
153.774497,-1036.288319,16062.468941,3677.258390
153.774806,-4885.359217,12435.459826,4213.525239
153.775116,888.247130,17172.777854,-5362.668486
153.775425,-1776.494261,10066.800811,-4903.011187
153.775735,-1776.494261,9474.636058,-2068.457845
153.776045,-2664.741391,10362.883188,-4749.792088
153.776354,-0.000000,9696.697840,-1149.143247
153.776664,-1258.350101,10881.027347,1149.143247
153.776974,4737.318029,8956.491898,-1685.410096
153.777283,4293.194464,5921.647536,-1149.143247
153.777593,-2294.638420,1702.473667,4290.134789
153.777902,1850.514855,-0.000000,5975.544884
153.778212,962.267725,4293.194464,2298.286494
153.778522,1258.350101,12731.542202,1838.629195
153.778831,-2072.576638,11547.212695,306.438199
153.779141,-3330.926739,10140.821405,-4903.011187
153.779451,-2072.576638,10807.006753,-7890.783629
153.779760,1702.473667,11621.233289,-10725.336972
153.780070,-2516.700203,18949.272115,-9576.193725
153.780379,962.267725,15692.365970,842.705048
153.780689,-814.226536,13619.789333,2987.772442
153.780999,4145.153275,12287.418637,-1302.362347
153.781308,1702.473667,4737.318029,5745.716235
153.781618,-4219.173869,592.164754,8427.050478
153.781928,-0.000000,-888.247130,6205.373534
153.782237,2738.761985,4737.318029,-3983.696590
153.782547,-2220.617826,11769.274478,-6741.640382
153.782856,2220.617826,13619.789333,-11414.822920
153.783166,1332.370696,9548.656652,-8810.098227
153.783476,-1628.453072,9104.533087,383.047749
153.783785,3330.926739,9252.574275,2374.896044
153.784095,4737.318029,11399.171507,1225.752797
153.784405,2442.679609,8734.430116,10725.336972
153.784714,-5477.523971,6217.729913,11491.432470
153.785024,-2590.720797,14952.160028,-2221.676944
153.785333,1036.288319,13101.645173,-13023.623466
153.785643,-2368.659014,14359.995275,-12640.575717
153.785953,-0.000000,11325.150913,-12257.527968
153.786262,-3330.926739,12509.480420,-8580.269578
153.786572,-6365.771101,18949.272115,2145.067394
153.786882,2960.823768,10584.944971,2451.505594
153.787191,5477.523971,3182.885551,-2298.286494
153.787501,-666.185348,444.123565,3294.210641
153.787810,148.041188,-4737.318029,10955.165621
153.788120,-1110.308913,1850.514855,6052.154434
153.788430,1776.494261,3478.967927,1608.800546
153.788739,1332.370696,14211.954086,-5286.058936
153.789049,666.185348,15100.201217,-11414.822920
153.789359,-962.267725,9918.759623,-6205.373534
153.789668,-1332.370696,12139.377449,-6052.154434
153.789978,4589.276840,11991.336260,-7507.735880
153.790287,-1332.370696,14211.954086,3830.477490
153.790597,-9474.636058,10584.944971,14479.204912
153.790907,5773.606348,8882.471304,-612.876398
153.791216,8364.327145,10807.006753,-14785.643111
153.791526,-4663.297435,12213.398043,766.095498
153.791836,-8438.347739,1554.432478,8656.879127
153.792145,-296.082377,6069.688724,-3907.087040
153.792455,3552.988522,11547.212695,-11951.089769
153.792764,3775.050304,11177.109724,-6588.421283
153.793074,2294.638420,14804.118840,1455.581446
153.793384,-0.000000,6735.874072,2681.334243
153.793693,4071.132681,6291.750507,0.000000
153.794003,1036.288319,6291.750507,-689.485948
153.794313,2516.700203,7254.018232,3600.648841
153.794622,-4219.173869,12805.562797,7201.297681
153.794932,-0.000000,12435.459826,-383.047749
153.795241,1924.535449,9104.533087,-7967.393179
153.795551,-5995.668130,10732.986159,-5056.230287
153.795861,-2146.597232,10436.903782,-6818.249932
153.796170,-1480.411884,11843.295072,-4979.620737
153.796480,-0.000000,16802.674883,919.314598
153.796790,3478.967927,14804.118840,-1838.629195
153.797099,-0.000000,11695.253884,-3907.087040
153.797409,-1258.350101,3034.844362,4366.744339
153.797718,-4219.173869,2516.700203,9806.022374
153.798028,1406.391290,8734.430116,1302.362347
153.798338,4145.153275,7772.162391,-3677.258390
153.798647,1554.432478,12213.398043,-153.219100
153.798957,2220.617826,7402.059420,-4596.572988
153.799267,1628.453072,9474.636058,-4596.572988
153.799576,-5847.626942,12731.542202,3140.991542
153.799886,2886.803174,11399.171507,-4903.011187
153.800195,3923.091493,10436.903782,-6128.763984
153.800505,-2812.782580,14211.954086,3753.867940
153.800815,-1110.308913,10214.842000,3753.867940
153.801124,2220.617826,9400.615463,-6971.469032
153.801434,222.061783,8142.265362,-3447.429741
153.801744,-370.102971,9326.594869,6358.592633
153.802053,-0.000000,10510.924376,-1225.752797
153.802363,7105.977043,8956.491898,-5362.668486
153.802672,-2442.679609,7105.977043,2374.896044
153.802982,-4071.132681,8586.388927,5286.058936
153.803292,814.226536,12953.603985,-2834.553343
153.803601,1702.473667,12657.521608,-7737.564530
153.803911,-148.041188,11399.171507,-4903.011187
153.804221,666.185348,4145.153275,1532.190996
153.804530,-3034.844362,9104.533087,2451.505594
153.804840,2442.679609,9696.697840,76.609550
153.805149,-518.144159,9548.656652,-995.924147
153.805459,-1628.453072,9400.615463,3140.991542
153.805769,-1850.514855,7698.141797,2604.724693
153.806078,-1776.494261,10955.047942,-6358.592633
153.806388,-1184.329507,7179.997637,-4979.620737
153.806698,-962.267725,12139.377449,-4366.744339
153.807007,888.247130,8142.265362,-6358.592633
153.807317,4589.276840,5995.668130,-2604.724693
153.807626,-5107.421000,7920.203579,7660.954980
153.807936,-3108.864956,4071.132681,6665.030833
153.808246,5329.482782,5403.503377,766.095498
153.808555,-1480.411884,6883.915261,306.438199
153.808865,148.041188,11843.295072,-2374.896044
153.809175,-1258.350101,13989.892304,-3524.039291
153.809484,592.164754,15618.345376,-5286.058936
153.809794,3034.844362,15470.304188,-4290.134789
153.810103,-3775.050304,13397.727550,-2451.505594
153.810413,3330.926739,10881.027347,612.876398
153.810723,666.185348,7920.203579,-4826.401637
153.811032,4145.153275,9474.636058,-3140.991542
153.811342,-2738.761985,-0.000000,7201.297681
153.811652,-2738.761985,7254.018232,7124.688131
153.811961,1850.514855,9548.656652,-1685.410096
153.812271,8364.327145,11473.192101,-5286.058936
153.812580,-5477.523971,9770.718434,306.438199
153.812890,-4885.359217,11399.171507,1608.800546
153.813200,962.267725,14137.933492,-9346.365076
153.813509,518.144159,9622.677246,-19075.777900
153.813819,-1850.514855,12287.418637,-9806.022374
153.814129,-7254.018232,11695.253884,1991.848295
153.814438,-1628.453072,12953.603985,76.609550
153.814748,5477.523971,11991.336260,-9576.193725
153.815057,2664.741391,9770.718434,-6818.249932
153.815367,-2664.741391,5033.400406,3830.477490
153.815677,-3849.070898,2368.659014,4596.572988
153.815986,2146.597232,7105.977043,-8427.050478
153.816296,3701.029710,8216.285956,-13330.061665
153.816606,-4589.276840,7920.203579,-9422.974625
153.816915,-4515.256246,8734.430116,-6281.983084
153.817225,370.102971,7846.182985,-11184.994271
153.817534,4885.359217,7476.080014,-15168.690860
153.817844,1702.473667,5773.606348,-4903.011187
153.818154,-2146.597232,6217.729913,4060.306139
153.818463,-148.041188,6069.688724,2604.724693
153.818773,5625.565159,12805.562797,-9193.145976
153.819083,6661.853478,12213.398043,-14938.862211
153.819392,-2812.782580,12657.521608,-10725.336972
153.819702,-1998.556043,13989.892304,-5209.449386
153.820011,4737.318029,11695.253884,-12870.404366
153.820321,6809.894666,10955.047942,-18079.853753
153.820631,-6291.750507,8216.285956,-3294.210641
153.820940,-8586.388927,8660.409521,4749.792088
153.821250,4145.153275,6439.791695,-11568.042020
153.821560,6661.853478,6735.874072,-22446.598091
153.821869,-148.041188,6661.853478,-13176.842566
153.822179,-5625.565159,9030.512492,-5822.325785
153.822488,3256.906145,9104.533087,-10189.070123
153.822798,7920.203579,7994.224174,-10112.460574
153.823108,-3478.967927,11177.109724,-1685.410096
153.823417,-2886.803174,7105.977043,-459.657299
153.823727,-1406.391290,8512.368333,-10878.556072
153.824037,3108.864956,6365.771101,-20991.016645
153.824346,-7328.038826,9474.636058,-15092.081311
153.824656,370.102971,10955.047942,-10725.336972
153.824965,-3923.091493,14952.160028,-14096.157163
153.825275,2738.761985,14359.995275,-14402.595362
153.825585,-7402.059420,11621.233289,-7048.078582
153.825894,-814.226536,9030.512492,-6052.154434
153.826204,-1554.432478,6291.750507,-11874.480219
153.826514,4885.359217,4145.153275,-17083.929605
153.826823,-4219.173869,6883.915261,-10955.165621
153.827133,740.205942,9474.636058,-3600.648841
153.827442,1406.391290,11177.109724,-9422.974625
153.827752,6661.853478,10807.006753,-13100.233016
153.828062,-666.185348,8216.285956,-6741.640382
153.828371,-5551.544565,7179.997637,-3217.601092
153.828681,-592.164754,9548.656652,-12104.308868
153.828991,4885.359217,6957.935855,-22063.550342
153.829300,222.061783,10955.047942,-17313.758255
153.829610,-4441.235652,13915.871710,-5669.106685
153.829919,-518.144159,16728.654289,-9346.365076
153.830229,5477.523971,13175.665768,-16394.443657
153.830539,4737.318029,9992.780217,-10725.336972
153.830848,-3775.050304,7031.956449,306.438199
153.831158,-2442.679609,5625.565159,-1378.971896
153.831468,2960.823768,11695.253884,-12334.137518
153.831777,4515.256246,10658.965565,-18692.730151
153.832087,-3404.947333,10881.027347,-13406.671215
153.832396,-4441.235652,10140.821405,-7507.735880
153.832706,-2146.597232,14952.160028,-11184.994271
153.833016,1776.494261,12583.501014,-16317.834107
153.833325,2220.617826,7476.080014,-13483.280765
153.833635,-518.144159,4663.297435,-3677.258390
153.833945,-666.185348,1554.432478,76.609550
153.834254,-3478.967927,6661.853478,-2604.724693
153.834564,1110.308913,8660.409521,-6741.640382
153.834873,518.144159,10584.944971,-11338.213370
153.835183,-3849.070898,15988.448347,-14325.985813
153.835493,-1850.514855,16062.468941,-12487.356617
153.835802,-1332.370696,16950.716072,-16547.662757
153.836112,-1036.288319,16210.510130,-14096.157163
153.836422,-2146.597232,10288.862594,-10265.679673
153.836731,-444.123565,7550.100608,-9269.755526
153.837041,5255.462188,2516.700203,-9346.365076
153.837350,3330.926739,1924.535449,-4749.792088
153.837660,962.267725,4071.132681,-306.438199
153.837970,-2664.741391,9622.677246,383.047749
153.838279,962.267725,11621.233289,-8656.879127
153.838589,-370.102971,11769.274478,-18462.901502
153.838899,1924.535449,14359.995275,-20991.016645
153.839208,-1036.288319,11843.295072,-17313.758255
153.839518,518.144159,10732.986159,-14019.547613
153.839827,-1480.411884,10214.842000,-14479.204912
153.840137,1998.556043,10510.924376,-3524.039291
153.840447,-1998.556043,11029.068536,-229.828649
153.840756,814.226536,8882.471304,-6435.202183
153.841066,2960.823768,8068.244768,-13253.452115
153.841376,3404.947333,6365.771101,-11568.042020
153.841685,-4663.297435,7328.038826,-10801.946522
153.841995,-3034.844362,9326.594869,-7507.735880
153.842304,-0.000000,12287.418637,-11874.480219
153.842614,-148.041188,11103.089130,-12563.966167
153.842924,-4145.153275,10362.883188,-9576.193725
153.843233,-0.000000,9178.553681,-13789.718964
153.843543,2294.638420,8586.388927,-18539.511052
153.843853,-1998.556043,7031.956449,-12257.527968
153.844162,-2590.720797,7772.162391,-4443.353888
153.844472,1924.535449,8660.409521,-5745.716235
153.844782,3923.091493,8290.306550,-8350.440928
153.845091,-296.082377,7031.956449,-6818.249932
153.845401,-3849.070898,7105.977043,-6511.811733
153.845710,-0.000000,8956.491898,-10418.898773
153.846020,1110.308913,12139.377449,-18156.463303
153.846330,2442.679609,14211.954086,-19688.654299
153.846639,-2294.638420,14137.933492,-10725.336972
153.846949,1184.329507,14137.933492,-3447.429741
153.847259,518.144159,9992.780217,-9422.974625
153.847568,1554.432478,5181.441594,-11108.384721
153.847878,-1998.556043,5255.462188,-6358.592633
153.848187,-1702.473667,7179.997637,-6665.030833
153.848497,518.144159,11473.192101,-12104.308868
153.848807,2368.659014,15988.448347,-15628.348159
153.849116,1184.329507,17024.736666,-15628.348159
153.849426,444.123565,13323.706956,-13789.718964
153.849736,666.185348,9992.780217,-11491.432470
153.850045,2146.597232,3552.988522,-10112.460574
153.850355,2664.741391,-222.061783,-7048.078582
153.850664,-1258.350101,-1184.329507,-2374.896044
153.850974,-1924.535449,1628.453072,-1685.410096
153.851284,2220.617826,5699.585753,-7890.783629
153.851593,2442.679609,12509.480420,-15858.176809
153.851903,-1406.391290,16580.613101,-15704.957709
153.852213,-1184.329507,17394.839637,-14709.033562
153.852522,-518.144159,16284.530724,-16471.053207
153.852832,-814.226536,13619.789333,-15015.471761
153.853141,-2812.782580,7105.977043,-8963.317327
153.853451,-2590.720797,5329.482782,-4290.134789
153.853761,-1776.494261,5847.626942,-5515.887586
153.854070,1628.453072,8068.244768,-9652.803275
153.854380,1628.453072,8808.450710,-13789.718964
153.854690,-0.000000,9178.553681,-14938.862211
153.854999,-888.247130,10807.006753,-11261.603821
153.855309,888.247130,11251.130318,-10189.070123
153.855618,2664.741391,8290.306550,-11261.603821
153.855928,1332.370696,5773.606348,-6971.469032
153.856238,-1332.370696,2960.823768,-1532.190996
153.856547,1924.535449,2442.679609,-5822.325785
153.856857,2664.741391,7772.162391,-11338.213370
153.857167,1258.350101,10732.986159,-8503.660028
153.857476,-814.226536,14582.057057,-7201.297681
153.857786,962.267725,16432.571912,-12027.699319
153.858095,814.226536,15174.221811,-14479.204912
153.858405,-2590.720797,12583.501014,-13100.233016
153.858715,-2886.803174,9326.594869,-10112.460574
153.859024,-148.041188,8956.491898,-9729.412825
153.859334,518.144159,8512.368333,-8656.879127
153.859644,-370.102971,9548.656652,-6128.763984
153.859953,-0.000000,7476.080014,-6894.859482
153.860263,-0.000000,6587.832884,-8886.707777
153.860572,-0.000000,7179.997637,-8273.831378
153.860882,370.102971,6661.853478,-7201.297681
153.861192,1036.288319,7550.100608,-6511.811733
153.861501,-1480.411884,6513.812290,-3830.477490
153.861811,-222.061783,6957.935855,-3677.258390
153.862121,2294.638420,8364.327145,-7660.954980
153.862430,-0.000000,9474.636058,-7737.564530
153.862740,-1924.535449,9474.636058,-4979.620737
153.863049,-2220.617826,12731.542202,-3907.087040
153.863359,-1628.453072,12435.459826,-9806.022374
153.863669,-3923.091493,11769.274478,-11184.994271
153.863978,-4885.359217,11621.233289,-10035.851024
153.864288,-2368.659014,9696.697840,-14632.424012
153.864598,-2664.741391,11917.315666,-13406.671215
153.864907,-1110.308913,13915.871710,-10801.946522
153.865217,-0.000000,13915.871710,-10955.165621
153.865526,222.061783,13027.624579,-13100.233016
153.865836,222.061783,13249.686362,-8886.707777
153.866146,-370.102971,12509.480420,-10035.851024
153.866455,-74.020594,10658.965565,-14172.766713
153.866765,222.061783,9770.718434,-16854.100956
153.867075,3552.988522,6513.812290,-18462.901502
153.867384,2368.659014,7476.080014,-17160.539155
153.867694,2664.741391,7105.977043,-12257.527968
153.868003,3330.926739,7105.977043,-6665.030833
153.868313,3256.906145,5551.544565,-4060.306139
153.868623,9252.574275,-0.000000,-4596.572988
153.868932,-8364.327145,-2368.659014,-2987.772442
153.869242,592.164754,6883.915261,-9806.022374
153.869551,-2072.576638,7328.038826,-19995.092498
153.869861,3849.070898,17098.757260,-28192.314326
153.870171,-4737.318029,14878.139434,-24515.055936
153.870480,-2886.803174,15988.448347,-18769.339701
153.870790,3256.906145,14952.160028,-15934.786358
153.871100,1702.473667,10658.965565,-10189.070123
153.871409,2294.638420,6439.791695,-2221.676944
153.871719,3330.926739,-222.061783,-3600.648841
153.872028,12583.501014,8512.368333,-5898.935335
153.872338,4145.153275,9844.739029,3447.429741
153.872648,-8586.388927,740.205942,-18462.901502
153.872957,-5107.421000,1702.473667,-38534.603549
153.873267,-13693.809927,12213.398043,-12487.356617
153.873577,5181.441594,29682.258274,-1685.410096
153.873886,-9474.636058,15988.448347,-15398.519510
153.874196,962.267725,7698.141797,-25127.932334
153.874505,-9400.615463,5773.606348,-9193.145976
153.874815,-7328.038826,962.267725,-10418.898773
153.875125,-740.205942,10362.883188,-11108.384721
153.875434,2886.803174,16358.551318,-9193.145976
153.875744,14211.954086,17987.004391,-16547.662757
153.876053,-3552.988522,4219.173869,-11951.089769
153.876363,-4219.173869,10732.986159,4673.182538
153.876673,-5181.441594,6661.853478,-2528.115143
153.876982,5773.606348,5551.544565,-29188.238474
153.877292,2072.576638,5403.503377,-23059.474490
153.877602,-6661.853478,7402.059420,-9346.365076
153.877911,-1110.308913,8808.450710,-9652.803275
153.878221,5477.523971,14137.933492,-12180.918418
153.878530,9548.656652,11991.336260,-10112.460574
153.878840,-888.247130,1850.514855,1532.190996
153.879150,-3330.926739,5329.482782,7584.345430
153.879459,-1332.370696,4589.276840,-3140.991542
153.879769,5403.503377,12435.459826,-22676.426741
153.880078,296.082377,12287.418637,-21680.502593
153.880388,-3034.844362,16062.468941,-10955.165621
153.880698,-444.123565,15988.448347,-10418.898773
153.881007,2960.823768,19097.313304,-13866.328514
153.881317,-1924.535449,12953.603985,-2681.334243
153.881627,-3182.885551,9252.574275,-612.876398
153.881936,-296.082377,7402.059420,-10035.851024
153.882246,814.226536,5477.523971,-16700.881856
153.882555,888.247130,6957.935855,-14325.985813
153.882865,3478.967927,10066.800811,-9346.365076
153.883175,666.185348,13545.768739,-1915.238745
153.883484,-2220.617826,11991.336260,1685.410096
153.883794,-296.082377,12953.603985,-3447.429741
153.884104,962.267725,9400.615463,-5745.716235
153.884413,-518.144159,6661.853478,-11491.432470
153.884723,-6143.709319,4441.235652,-12257.527968
153.885032,-3627.009116,6809.894666,-13253.452115
153.885342,-3034.844362,11621.233289,-10878.556072
153.885652,-5403.503377,14137.933492,-7124.688131
153.885961,2738.761985,13101.645173,-8886.707777
153.886271,2664.741391,9548.656652,-6971.469032
153.886580,-518.144159,8512.368333,-1532.190996
153.886890,-444.123565,5477.523971,-842.705048
153.887200,-296.082377,6217.729913,-9039.926876
153.887509,-0.000000,14285.974681,-10725.336972
153.887819,2590.720797,14804.118840,-16854.100956
153.888129,-0.000000,13767.830521,-18692.730151
153.888438,-222.061783,16506.592507,-11491.432470
153.888748,-962.267725,9992.780217,-11721.261119
153.889057,-1332.370696,7698.141797,-14785.643111
153.889367,5329.482782,4811.338623,-9346.365076
153.889677,-0.000000,1850.514855,-6205.373534
153.889986,-4367.215058,5699.585753,-1608.800546
153.890296,5329.482782,7402.059420,-6741.640382
153.890606,-1850.514855,10510.924376,-16624.272307
153.890915,2812.782580,13027.624579,-19918.482948
153.891225,-1184.329507,14434.015869,-16624.272307
153.891534,-2368.659014,16284.530724,-12410.747068
153.891844,1554.432478,9474.636058,-16547.662757
153.892154,2294.638420,7550.100608,-17620.196454
153.892463,2960.823768,6513.812290,-11031.775171
153.892773,-0.000000,3182.885551,-1991.848295
153.893082,-962.267725,5181.441594,-2221.676944
153.893392,6587.832884,10140.821405,-10342.289223
153.893702,6069.688724,11621.233289,-17773.415554
153.894011,-2886.803174,6957.935855,-14172.766713
153.894321,-5995.668130,13323.706956,-8733.488677
153.894631,-4145.153275,11325.150913,-15475.129060
153.894940,7105.977043,9992.780217,-21374.064394
153.895250,-3108.864956,9622.677246,-15321.909960
153.895559,-2072.576638,2220.617826,-4290.134789
153.895869,-3404.947333,5773.606348,-1072.533697
153.896179,2146.597232,9918.759623,-10342.289223
153.896488,518.144159,8882.471304,-12104.308868
153.896798,-5477.523971,12657.521608,-10035.851024
153.897107,518.144159,16728.654289,-12947.013916
153.897417,-0.000000,12583.501014,-20684.578446
153.897727,5551.544565,13175.665768,-21910.331243
153.898036,-518.144159,8512.368333,-11951.089769
153.898346,-4219.173869,9474.636058,-1378.971896
153.898656,-814.226536,9400.615463,-2604.724693
153.898965,8882.471304,6365.771101,-9806.022374
153.899275,592.164754,2664.741391,-12410.747068
153.899584,-1036.288319,2738.761985,-4979.620737
153.899894,1258.350101,3997.112087,-5209.449386
153.900204,2442.679609,8068.244768,-14249.376263
153.900513,-0.000000,10214.842000,-7354.516781
153.900823,-2220.617826,10066.800811,-3294.210641
153.901133,666.185348,5699.585753,-9039.926876
153.901442,296.082377,7328.038826,-13636.499864
153.901752,-2368.659014,6587.832884,-7660.954980
153.902061,2812.782580,9992.780217,-7277.907231
153.902371,4737.318029,7772.162391,-4213.525239
153.902681,-3552.988522,10732.986159,1378.971896
153.902990,1924.535449,11621.233289,-1915.238745
153.903300,3108.864956,10584.944971,-9882.631924
153.903609,1998.556043,11103.089130,-8963.317327
153.903919,-3627.009116,11843.295072,-5056.230287
153.904229,888.247130,10066.800811,-5975.544884
153.904538,5181.441594,10807.006753,-6588.421283
153.904848,-5033.400406,8364.327145,-1685.410096
153.905158,-0.000000,10807.006753,-383.047749
153.905467,1998.556043,9770.718434,-5209.449386
153.905777,1702.473667,10140.821405,1225.752797
153.906086,-1332.370696,10066.800811,4903.011187
153.906396,-222.061783,5625.565159,153.219100
153.906706,-740.205942,12435.459826,-2145.067394
153.907015,-4367.215058,8290.306550,-3907.087040
153.907325,-1628.453072,12879.583391,-4596.572988
153.907635,740.205942,15618.345376,-9039.926876
153.907944,-1258.350101,16284.530724,-5898.935335
153.908254,-2516.700203,13619.789333,-3064.381992
153.908563,2590.720797,8956.491898,-995.924147
153.908873,-3997.112087,12953.603985,4366.744339
153.909183,-74.020594,7105.977043,5362.668486
153.909492,6735.874072,9326.594869,-5745.716235
153.909802,1924.535449,9104.533087,-7737.564530
153.910111,-444.123565,8956.491898,-229.828649
153.910421,-3923.091493,8734.430116,1915.238745
153.910731,3478.967927,10288.862594,-5515.887586
153.911040,1480.411884,11029.068536,-3140.991542
153.911350,3849.070898,9326.594869,-1302.362347
153.911660,2220.617826,5329.482782,-6894.859482
153.911969,-4737.318029,5995.668130,995.924147
153.912279,2294.638420,8364.327145,3294.210641
153.912588,-3701.029710,3478.967927,-6511.811733
153.912898,1628.453072,11177.109724,-3830.477490
153.913208,4441.235652,6957.935855,-229.828649
153.913517,-1036.288319,10436.903782,-1685.410096
153.913827,-1036.288319,8734.430116,2604.724693
153.914137,-444.123565,14211.954086,5286.058936
153.914446,1110.308913,13471.748144,-6971.469032
153.914756,962.267725,9326.594869,-9652.803275
153.915065,-4737.318029,17542.880825,-1685.410096
153.915375,4959.379811,14878.139434,-11108.384721
153.915685,11769.274478,8438.347739,-13559.890315
153.915994,-5625.565159,11769.274478,6971.469032
153.916304,-3034.844362,8216.285956,15934.786358
153.916613,-74.020594,4959.379811,3983.696590
153.916923,2812.782580,8956.491898,-3600.648841
153.917233,740.205942,4811.338623,-2528.115143
153.917542,-1924.535449,11473.192101,-10725.336972
153.917852,-3775.050304,13545.768739,-9346.365076
153.918162,-1110.308913,16136.489536,-6128.763984
153.918471,2220.617826,11621.233289,-5898.935335
153.918781,-0.000000,12065.356855,0.000000
153.919090,-3701.029710,8660.409521,8044.002729
153.919400,2738.761985,-0.000000,229.828649
153.919710,1702.473667,2812.782580,-3830.477490
153.920019,-740.205942,2738.761985,2987.772442
153.920329,-1332.370696,11769.274478,-919.314598
153.920638,-74.020594,11769.274478,-11721.261119
153.920948,6439.791695,13323.706956,-8733.488677
153.921258,1554.432478,7772.162391,4290.134789
153.921567,-5773.606348,6735.874072,689.485948
153.921877,-4441.235652,8290.306550,1302.362347
153.922187,7402.059420,3775.050304,-1225.752797
153.922496,5107.421000,1332.370696,-5056.230287
153.922806,-5033.400406,2072.576638,1685.410096
153.923115,-2442.679609,11399.171507,7354.516781
153.923425,5847.626942,10584.944971,-5439.278036
153.923735,3478.967927,12065.356855,-5592.497135
153.924044,-3552.988522,18283.086767,7967.393179
153.924354,-666.185348,10584.944971,766.095498
153.924664,1036.288319,8216.285956,-11031.775171
153.924973,-370.102971,11177.109724,-3447.429741
153.925283,2590.720797,9178.553681,-3217.601092
153.925592,74.020594,16876.695478,-10265.679673
153.925902,-444.123565,15322.262999,1762.019645
153.926212,-0.000000,10066.800811,4290.134789
153.926521,4441.235652,5107.421000,153.219100
153.926831,3034.844362,5329.482782,6971.469032
153.927140,-4663.297435,10066.800811,8580.269578
153.927450,3108.864956,4145.153275,-4673.182538
153.927760,-222.061783,4811.338623,-5898.935335
153.928069,-2220.617826,12287.418637,2451.505594
153.928379,-814.226536,11991.336260,1225.752797
153.928689,-0.000000,13693.809927,-4366.744339
153.928998,-518.144159,11029.068536,1378.971896
153.929308,1554.432478,7920.203579,1991.848295
153.929617,-6069.688724,9844.739029,1149.143247
153.929927,-2368.659014,6809.894666,2834.553343
153.930237,1776.494261,5699.585753,-3140.991542
153.930546,2516.700203,7994.224174,-3370.820191
153.930856,1184.329507,9400.615463,2068.457845
153.931166,-740.205942,14656.077652,2604.724693
153.931475,3701.029710,11547.212695,2604.724693
153.931785,444.123565,3108.864956,-229.828649
153.932094,-888.247130,5255.462188,3983.696590
153.932404,-666.185348,5625.565159,459.657299
153.932714,-1184.329507,5329.482782,-8197.221829
153.933023,-1406.391290,12213.398043,-1915.238745
153.933333,888.247130,14211.954086,-4213.525239
153.933642,740.205942,12879.583391,-6665.030833
153.933952,-3182.885551,15322.262999,3447.429741
153.934262,1628.453072,11991.336260,5056.230287
153.934571,962.267725,11917.315666,-2451.505594
153.934881,-148.041188,12065.356855,-766.095498
153.935191,-2368.659014,7772.162391,-3140.991542
153.935500,4663.297435,3923.091493,-9576.193725
153.935810,1332.370696,7698.141797,-4519.963438
153.936119,-3775.050304,12583.501014,4136.915689
153.936429,-2294.638420,8290.306550,4749.792088
153.936739,3330.926739,9844.739029,-306.438199
153.937048,-1406.391290,11621.233289,-7660.954980
153.937358,370.102971,9474.636058,-10495.508323
153.937667,2146.597232,5921.647536,-7277.907231
153.937977,-74.020594,5329.482782,-1149.143247
153.938287,2146.597232,9030.512492,766.095498
153.938596,1998.556043,13693.809927,3830.477490
153.938906,-1258.350101,10066.800811,5669.106685
153.939216,-444.123565,8290.306550,995.924147
153.939525,2960.823768,7179.997637,-5745.716235
153.939835,-3849.070898,11251.130318,-2068.457845
153.940144,-4071.132681,10955.047942,-2068.457845
153.940454,-5403.503377,15618.345376,-4366.744339
153.940764,6735.874072,16062.468941,-7967.393179
153.941073,-370.102971,15470.304188,-4673.182538
153.941383,-1036.288319,11769.274478,-229.828649
153.941693,-2294.638420,4959.379811,2374.896044
153.942002,296.082377,4441.235652,2528.115143
153.942312,2146.597232,5551.544565,459.657299
153.942621,444.123565,9104.533087,4519.963438
153.942931,2368.659014,9030.512492,536.266849
153.943241,2294.638420,8216.285956,-3677.258390
153.943550,-592.164754,12509.480420,-4136.915689
153.943860,-3182.885551,13027.624579,-3524.039291
153.944169,222.061783,6217.729913,-5056.230287
153.944479,-2294.638420,8586.388927,1225.752797
153.944789,-4515.256246,6587.832884,5439.278036
153.945098,444.123565,7476.080014,-1455.581446
153.945408,444.123565,8438.347739,-2604.724693
153.945718,-962.267725,7328.038826,1455.581446
153.946027,-3256.906145,8808.450710,3294.210641
153.946337,-370.102971,14137.933492,-2987.772442
153.946646,3404.947333,13027.624579,-4673.182538
153.946956,1184.329507,11251.130318,-2451.505594
153.947266,-0.000000,10140.821405,-1838.629195
153.947575,-3775.050304,8956.491898,3217.601092
153.947885,1924.535449,10510.924376,2451.505594
153.948195,1480.411884,4663.297435,-4596.572988
153.948504,2368.659014,10658.965565,-2145.067394
153.948814,-3034.844362,12805.562797,5286.058936
153.949123,222.061783,12361.439231,-2987.772442
153.949433,5477.523971,11251.130318,-8733.488677
153.949743,1184.329507,8586.388927,3370.820191
153.950052,-8290.306550,9918.759623,6358.592633
153.950362,-2220.617826,10066.800811,3524.039291
153.950671,8216.285956,9474.636058,-5362.668486
153.950981,2590.720797,6883.915261,-6052.154434
153.951291,-1480.411884,8956.491898,612.876398
153.951600,-3849.070898,12213.398043,3140.991542
153.951910,4885.359217,9548.656652,-1762.019645
153.952220,3775.050304,6883.915261,-4443.353888
153.952529,-7105.977043,10807.006753,3983.696590
153.952839,666.185348,7031.956449,2987.772442
153.953148,2368.659014,7772.162391,-9576.193725
153.953458,5329.482782,6291.750507,-7584.345430
153.953768,-1850.514855,6143.709319,7431.126331
153.954077,-2664.741391,5699.585753,6588.421283
153.954387,-1628.453072,11103.089130,-536.266849
153.954696,2368.659014,12213.398043,1149.143247
153.955006,-3404.947333,10955.047942,689.485948
153.955316,-2294.638420,9474.636058,-7354.516781
153.955625,6069.688724,10214.842000,-11491.432470
153.955935,2738.761985,8438.347739,-6741.640382
153.956245,-4367.215058,4219.173869,7584.345430
153.956554,-6587.832884,12731.542202,15398.519510
153.956864,7254.018232,10658.965565,-1378.971896
153.957173,4515.256246,3701.029710,-6894.859482
153.957483,-3849.070898,3404.947333,6511.811733
153.957793,-3108.864956,10214.842000,1225.752797
153.958102,2960.823768,9104.533087,-12334.137518
153.958412,3330.926739,16728.654289,-6281.983084
153.958722,888.247130,16210.510130,1991.848295
153.959031,-3108.864956,12287.418637,2298.286494
153.959341,2812.782580,9844.739029,383.047749
153.959650,3849.070898,8364.327145,919.314598
153.959960,-2442.679609,5921.647536,2374.896044
153.960270,-6439.791695,8660.409521,6818.249932
153.960579,3849.070898,14952.160028,-4903.011187
153.960889,7105.977043,7920.203579,-14709.033562
153.961198,-6957.935855,15248.242405,3140.991542
153.961508,-8734.430116,13175.665768,11108.384721
153.961818,3256.906145,10140.821405,-8810.098227
153.962127,5255.462188,4885.359217,-16471.053207
153.962437,-592.164754,7254.018232,842.705048
153.962747,-2960.823768,6291.750507,8886.707777
153.963056,-666.185348,5847.626942,3294.210641
153.963366,2368.659014,8734.430116,2911.162892
153.963675,5403.503377,8068.244768,0.000000
153.963985,-2886.803174,9178.553681,-2298.286494
153.964295,-5625.565159,11399.171507,-1685.410096
153.964604,1702.473667,18949.272115,-8580.269578
153.964914,-0.000000,12509.480420,-16011.395908
153.965224,-444.123565,7920.203579,-4060.306139
153.965533,-2664.741391,6513.812290,6052.154434
153.965843,1628.453072,8290.306550,-1302.362347
153.966152,-1776.494261,3775.050304,2834.553343
153.966462,-1776.494261,10658.965565,9576.193725
153.966772,3627.009116,5699.585753,-2528.115143
153.967081,444.123565,7920.203579,-9116.536426
153.967391,-1332.370696,9400.615463,842.705048
153.967700,1036.288319,11769.274478,-3140.991542
153.968010,1406.391290,7994.224174,-5975.544884
153.968320,-0.000000,10214.842000,3217.601092
153.968629,-2516.700203,9696.697840,3524.039291
153.968939,4367.215058,8882.471304,-6052.154434
153.969249,6217.729913,6735.874072,-536.266849
153.969558,-3182.885551,15322.262999,6358.592633
153.969868,-4441.235652,11325.150913,3753.867940
153.970177,-0.000000,13471.748144,-3983.696590
153.970487,4293.194464,13323.706956,-7660.954980
153.970797,370.102971,9696.697840,-8886.707777
153.971106,-5847.626942,13545.768739,-6128.763984
153.971416,2516.700203,10732.986159,-1838.629195
153.971725,7031.956449,4145.153275,-689.485948
153.972035,-1924.535449,1332.370696,6281.983084
153.972344,-7031.956449,5551.544565,13253.452115
153.972654,4737.318029,1554.432478,2834.553343
153.972964,5699.585753,6587.832884,-7048.078582
153.973273,-2146.597232,9474.636058,-2221.676944
153.973583,-1406.391290,14952.160028,-5286.058936
153.973892,1184.329507,13101.645173,-11874.480219
153.974202,3478.967927,11843.295072,-2221.676944
153.974511,-9178.553681,14359.995275,9652.803275
153.974821,-2590.720797,15100.201217,153.219100
153.975131,4515.256246,10066.800811,-10035.851024
153.975440,3775.050304,7920.203579,-5822.325785
153.975750,-1036.288319,7772.162391,995.924147
153.976059,-3627.009116,10807.006753,4366.744339
153.976369,1480.411884,13841.851115,2298.286494
153.976678,4663.297435,5181.441594,-1532.190996
153.976988,-1480.411884,3552.988522,-2451.505594
153.977298,-1702.473667,2664.741391,2451.505594
153.977607,3775.050304,6957.935855,-4596.572988
153.977917,1850.514855,3627.009116,-5592.497135
153.978226,-1850.514855,8512.368333,5822.325785
153.978536,-1554.432478,17098.757260,4136.915689
153.978845,4071.132681,13323.706956,-5515.887586
153.979155,1480.411884,11843.295072,-3524.039291
153.979465,-5773.606348,13101.645173,3753.867940
153.979774,-5847.626942,11177.109724,-1149.143247
153.980084,222.061783,13767.830521,-9576.193725
153.980393,1184.329507,12065.356855,-9729.412825
153.980703,-1184.329507,12287.418637,-3064.381992
153.981012,222.061783,11473.192101,1072.533697
153.981322,3108.864956,1406.391290,-1225.752797
153.981632,-740.205942,6069.688724,4213.525239
153.981941,-2072.576638,1554.432478,10035.851024
153.982251,-444.123565,1998.556043,2681.334243
153.982560,-1554.432478,10214.842000,-4443.353888
153.982870,2960.823768,8956.491898,-9806.022374
153.983179,666.185348,8216.285956,-8580.269578
153.983489,1258.350101,7698.141797,-2451.505594
153.983799,-1628.453072,9104.533087,4519.963438
153.984108,-5181.441594,17542.880825,13559.890315
153.984418,-2886.803174,15470.304188,5056.230287
153.984727,3478.967927,10066.800811,-5592.497135
153.985037,-4737.318029,11547.212695,-10418.898773
153.985346,-4885.359217,12731.542202,-9346.365076
153.985656,2294.638420,14359.995275,-10495.508323
153.985966,1406.391290,8882.471304,-7814.174080
153.986275,-2664.741391,7994.224174,6665.030833
153.986585,-7105.977043,12509.480420,12104.308868
153.986894,3404.947333,5625.565159,-536.266849
153.987204,7772.162391,-2072.576638,-9882.631924
153.987513,4737.318029,4737.318029,-4596.572988
153.987823,-6735.874072,3997.112087,-766.095498
153.988133,-1406.391290,6809.894666,3677.258390
153.988442,5255.462188,16284.530724,3907.087040
153.988752,370.102971,13249.686362,-4673.182538
153.989061,-9030.512492,17542.880825,-995.924147
153.989371,-1554.432478,10807.006753,-2681.334243
153.989680,4737.318029,9622.677246,-12334.137518
153.989990,-2664.741391,9030.512492,-8963.317327
153.990300,-3478.967927,15174.221811,1685.410096
153.990609,-444.123565,12805.562797,-919.314598
153.990919,7105.977043,6291.750507,-2911.162892
153.991228,-1480.411884,9844.739029,7124.688131
153.991538,-1184.329507,9770.718434,3294.210641
153.991847,5181.441594,2146.597232,-2068.457845
153.992157,592.164754,3997.112087,-383.047749
153.992467,2738.761985,10066.800811,-459.657299
153.992776,1850.514855,7994.224174,-3064.381992
153.993086,-1036.288319,13027.624579,-1455.581446
153.993395,-444.123565,10362.883188,2068.457845
153.993705,-0.000000,14063.912898,-1378.971896
153.994014,-4219.173869,15026.180623,-2604.724693
153.994324,296.082377,14285.974681,-4060.306139
153.994634,518.144159,15026.180623,-7048.078582
153.994943,-3108.864956,11695.253884,-3677.258390
153.995253,3627.009116,7105.977043,-3830.477490
153.995562,-888.247130,11325.150913,-3600.648841
153.995872,-518.144159,6587.832884,6588.421283
153.996182,370.102971,888.247130,8733.488677
153.996491,1554.432478,5329.482782,2298.286494
153.996801,1554.432478,8660.409521,-2451.505594
153.997110,-1110.308913,5033.400406,-3064.381992
153.997420,814.226536,6957.935855,-4443.353888
153.997729,3108.864956,10881.027347,-3064.381992
153.998039,-7550.100608,13767.830521,3677.258390
153.998349,-2368.659014,15100.201217,0.000000
153.998658,1628.453072,14804.118840,-8044.002729
153.998968,-1998.556043,13915.871710,-5439.278036
153.999277,-5033.400406,10510.924376,-3524.039291
153.999587,2960.823768,12731.542202,-6971.469032
153.999896,5329.482782,9030.512492,-4673.182538
154.000206,-962.267725,7179.997637,6052.154434
154.000516,-4737.318029,12435.459826,7660.954980
154.000825,3923.091493,7402.059420,-1302.362347
154.001135,3849.070898,5921.647536,-4903.011187
154.001444,2960.823768,1702.473667,-229.828649
154.001754,-1258.350101,5625.565159,-1838.629195
154.002063,-3849.070898,9030.512492,153.219100
154.002373,5773.606348,14063.912898,2604.724693
154.002683,7105.977043,8734.430116,766.095498
154.002992,-7105.977043,13619.789333,4290.134789
154.003302,-6661.853478,14656.077652,1225.752797
154.003611,2368.659014,16580.613101,-15551.738609
154.003921,4441.235652,14137.933492,-18999.168350
154.004230,-3627.009116,11473.192101,-766.095498
154.004540,-6365.771101,15840.407159,5056.230287
154.004850,1184.329507,12731.542202,-1838.629195
154.005159,4811.338623,4219.173869,1762.019645
154.005469,888.247130,3627.009116,3830.477490
154.005778,-814.226536,-1628.453072,-536.266849
154.006088,-1258.350101,-1776.494261,612.876398
154.006397,1258.350101,4145.153275,1838.629195
154.006707,2886.803174,7698.141797,-4136.915689
154.007017,-0.000000,11029.068536,-3600.648841
154.007326,-2664.741391,9400.615463,2374.896044
154.007636,1036.288319,13397.727550,-4136.915689
154.007945,-148.041188,13175.665768,-7814.174080
154.008255,-4071.132681,12287.418637,-842.705048
154.008564,-370.102971,17987.004391,-4290.134789
154.008874,1184.329507,9992.780217,-5439.278036
154.009184,-1628.453072,9252.574275,2145.067394
154.009493,-444.123565,11769.274478,4826.401637
154.009803,1110.308913,11843.295072,-5669.106685
154.010112,-1776.494261,8364.327145,-3830.477490
154.010422,-888.247130,4885.359217,-3370.820191
154.010731,4441.235652,7846.182985,-9422.974625
154.011041,3182.885551,4811.338623,-5362.668486
154.011351,-3256.906145,4515.256246,7277.907231
154.011660,3552.988522,4515.256246,7584.345430
154.011970,-666.185348,6957.935855,5592.497135
154.012279,-2146.597232,10732.986159,6281.983084
154.012589,4959.379811,12213.398043,-4903.011187
154.012898,3404.947333,11473.192101,-11951.089769
154.013208,-8512.368333,15988.448347,-3140.991542
154.013518,-4441.235652,20651.745782,-2834.553343
154.013827,8586.388927,13693.809927,-16011.395908
154.014137,1702.473667,10658.965565,-9729.412825
154.014446,-4885.359217,12139.377449,10572.117872
154.014756,1184.329507,3552.988522,7124.688131
154.015065,-0.000000,592.164754,4213.525239
154.015375,-2368.659014,3552.988522,7431.126331
154.015685,4219.173869,6291.750507,-3217.601092
154.015994,3108.864956,9622.677246,-10342.289223
154.016304,-1850.514855,11991.336260,-995.924147
154.016613,-1924.535449,14285.974681,842.705048
154.016923,3775.050304,12065.356855,-9499.584175
154.017232,-2516.700203,10214.842000,-4749.792088
154.017542,2516.700203,12435.459826,3217.601092
154.017852,-1184.329507,5477.523971,1838.629195
154.018161,-1850.514855,5699.585753,2528.115143
154.018471,-1110.308913,7772.162391,2145.067394
154.018780,3552.988522,9178.553681,-3830.477490
154.019090,-1998.556043,12435.459826,-4826.401637
154.019399,-6217.729913,13027.624579,2145.067394
154.019709,7328.038826,16654.633695,-12104.308868
154.020019,8734.430116,6957.935855,-16394.443657
154.020328,1406.391290,7254.018232,1838.629195
154.020638,-5921.647536,5699.585753,15628.348159
154.020947,370.102971,3849.070898,7201.297681
154.021257,8364.327145,5551.544565,1685.410096
154.021566,3552.988522,9474.636058,383.047749
154.021876,-1332.370696,10955.047942,-1915.238745
154.022186,-7846.182985,16728.654289,-3217.601092
154.022495,2072.576638,17172.777854,-12027.699319
154.022805,5107.421000,15248.242405,-17160.539155
154.023114,-2368.659014,13101.645173,-4290.134789
154.023424,-6365.771101,9622.677246,8044.002729
154.023734,4737.318029,6587.832884,2145.067394
154.024043,2886.803174,4589.276840,536.266849
154.024353,-3256.906145,3182.885551,11031.775171
154.024662,-444.123565,8438.347739,5975.544884
154.024972,1406.391290,7179.997637,-6665.030833
154.025281,-222.061783,10658.965565,-7814.174080
154.025591,-4811.338623,12879.583391,-5822.325785
154.025901,518.144159,15100.201217,-12640.575717
154.026210,5625.565159,9992.780217,-11568.042020
154.026520,1702.473667,9474.636058,536.266849
154.026829,-3997.112087,3923.091493,8503.660028
154.027139,-3404.947333,7031.956449,10572.117872
154.027448,2294.638420,6217.729913,6052.154434
154.027758,4589.276840,8068.244768,-8350.440928
154.028068,1036.288319,11917.315666,-12180.918418
154.028377,-4589.276840,13249.686362,-2451.505594
154.028687,1036.288319,16062.468941,-8350.440928
154.028996,3849.070898,13693.809927,-10418.898773
154.029306,814.226536,8290.306550,2298.286494
154.029615,-1184.329507,10362.883188,13176.842566
154.029925,-814.226536,3627.009116,9422.974625
154.030235,4811.338623,5033.400406,-766.095498
154.030544,518.144159,11769.274478,-5975.544884
154.030854,1702.473667,13175.665768,-7048.078582
154.031163,-2368.659014,9474.636058,-4519.963438
154.031473,-4811.338623,13323.706956,-6358.592633
154.031782,2664.741391,9548.656652,-5592.497135
154.032092,-592.164754,9622.677246,-3524.039291
154.032402,-666.185348,1702.473667,6435.202183
154.032711,1776.494261,2368.659014,4519.963438
154.033021,-3330.926739,5625.565159,3370.820191
154.033330,2072.576638,11029.068536,1455.581446
154.033640,6587.832884,14804.118840,-4136.915689
154.033949,1184.329507,14656.077652,-4060.306139
154.034259,-6883.915261,16876.695478,-2604.724693
154.034569,-4145.153275,15692.365970,-6894.859482
154.034878,1776.494261,9474.636058,-14325.985813
154.035188,1554.432478,8586.388927,-9346.365076
154.035497,296.082377,6587.832884,0.000000
154.035807,-2590.720797,2368.659014,5822.325785
154.036116,-888.247130,5255.462188,13942.938064
154.036426,3849.070898,11843.295072,8963.317327
154.036736,8660.409521,5847.626942,-5898.935335
154.037045,-3849.070898,12287.418637,-4903.011187
154.037355,-3775.050304,11695.253884,-1838.629195
154.037664,7476.080014,12287.418637,-12640.575717
154.037974,2516.700203,10658.965565,-9882.631924
154.038283,-9252.574275,11473.192101,7201.297681
154.038593,-6217.729913,16210.510130,9806.022374
154.038903,2146.597232,7624.121203,-4290.134789
154.039212,5773.606348,12139.377449,-7507.735880
154.039522,888.247130,11769.274478,-4749.792088
154.039831,-4737.318029,5995.668130,-4519.963438
154.040141,-5033.400406,8068.244768,3370.820191
154.040450,1924.535449,9474.636058,383.047749
154.040760,5255.462188,4219.173869,-6741.640382
154.041070,-592.164754,8364.327145,3524.039291
154.041379,-444.123565,5329.482782,7431.126331
154.041689,5107.421000,3404.947333,-3524.039291
154.041998,444.123565,6069.688724,-766.095498
154.042308,-0.000000,13545.768739,4979.620737
154.042617,5107.421000,16580.613101,-459.657299
154.042927,-1036.288319,15544.324782,-4290.134789
154.043237,-4663.297435,13323.706956,1915.238745
154.043546,-4367.215058,16062.468941,-4060.306139
154.043856,1924.535449,12287.418637,-13789.718964
154.044165,2590.720797,9474.636058,-8733.488677
154.044475,-222.061783,4811.338623,1685.410096
154.044784,-1776.494261,1924.535449,8120.612279
154.045094,-2368.659014,8734.430116,12257.527968
154.045404,3849.070898,8660.409521,5975.544884
154.045713,5625.565159,-888.247130,-5286.058936
154.046023,-0.000000,3627.009116,-4443.353888
154.046332,-4145.153275,5699.585753,536.266849
154.046642,1998.556043,10955.047942,-3983.696590
154.046951,1184.329507,14211.954086,-8810.098227
154.047261,-2368.659014,13693.809927,-766.095498
154.047571,-148.041188,17098.757260,-766.095498
154.047880,2072.576638,8956.491898,-2911.162892
154.048190,222.061783,8808.450710,-842.705048
154.048499,2368.659014,9622.677246,-153.219100
154.048809,-1258.350101,5625.565159,1302.362347
154.049118,-6661.853478,9030.512492,8427.050478
154.049428,-1036.288319,10288.862594,612.876398
154.049738,7105.977043,6069.688724,-14709.033562
154.050047,-2738.761985,11029.068536,-10265.679673
154.050357,-3849.070898,8438.347739,5209.449386
154.050666,4441.235652,6513.812290,-1302.362347
154.050976,3775.050304,8216.285956,-5515.887586
154.051286,-1480.411884,8512.368333,8350.440928
154.051595,2294.638420,11547.212695,7048.078582
154.051905,1184.329507,7105.977043,-1225.752797
154.052214,-4663.297435,11695.253884,-612.876398
154.052524,5033.400406,9474.636058,-6741.640382
154.052833,-518.144159,6883.915261,-10035.851024
154.053143,-8956.491898,11325.150913,1302.362347
154.053453,-4737.318029,15470.304188,4979.620737
154.053762,3182.885551,14285.974681,-12563.966167
154.054072,4885.359217,8068.244768,-15092.081311
154.054381,-1850.514855,4367.215058,4673.182538
154.054691,-1776.494261,1480.411884,4060.306139
154.055000,-962.267725,7994.224174,3294.210641
154.055310,-74.020594,9548.656652,8350.440928
154.055620,5403.503377,11399.171507,459.657299
154.055929,2146.597232,10955.047942,-6052.154434
154.056239,-5107.421000,8956.491898,-1532.190996
154.056548,-444.123565,11399.171507,-3600.648841
154.056858,5773.606348,5477.523971,-9882.631924
154.057167,-3330.926739,7624.121203,0.000000
154.057477,-2886.803174,11991.336260,9116.536426
154.057787,-592.164754,11103.089130,-383.047749
154.058096,1776.494261,13323.706956,-2757.943793
154.058406,4737.318029,10140.821405,2068.457845
154.058715,2146.597232,10436.903782,-5362.668486
154.059025,1110.308913,10436.903782,-4443.353888
154.059334,-2368.659014,7772.162391,4519.963438
154.059644,3849.070898,13027.624579,1915.238745
154.059954,-1110.308913,13323.706956,-2451.505594
154.060263,-888.247130,5921.647536,-612.876398
154.060573,518.144159,13471.748144,766.095498
154.060882,-296.082377,3478.967927,-4366.744339
154.061192,518.144159,3404.947333,-1532.190996
154.061501,296.082377,9326.594869,1532.190996
154.061811,-3552.988522,10214.842000,383.047749
154.062121,-592.164754,8586.388927,919.314598
154.062430,518.144159,9474.636058,1149.143247
154.062740,2812.782580,9622.677246,-7967.393179
154.063049,-2516.700203,7402.059420,-3447.429741
154.063359,-1110.308913,5699.585753,4213.525239
154.063668,4071.132681,13175.665768,-2451.505594
154.063978,-3330.926739,16580.613101,2528.115143
154.064288,-74.020594,16876.695478,4903.011187
154.064597,2072.576638,14878.139434,-2681.334243
154.064907,1332.370696,8068.244768,-7507.735880
154.065216,-222.061783,1998.556043,-3677.258390
154.065526,-7105.977043,2442.679609,612.876398
154.065835,1406.391290,4071.132681,-689.485948
154.066145,1332.370696,8660.409521,-919.314598
154.066455,1184.329507,9696.697840,1838.629195
154.066764,2220.617826,8364.327145,842.705048
154.067074,-2960.823768,8068.244768,-995.924147
154.067383,1554.432478,9252.574275,3753.867940
154.067693,2886.803174,10436.903782,0.000000
154.068002,-5107.421000,13027.624579,-2757.943793
154.068312,-3552.988522,23168.445985,766.095498
154.068622,3997.112087,15174.221811,-7967.393179
154.068931,-1184.329507,13323.706956,-10648.727422
154.069241,-666.185348,7105.977043,-612.876398
154.069550,-2072.576638,4959.379811,1532.190996
154.069860,-1480.411884,3256.906145,2221.676944
154.070170,2368.659014,5921.647536,4060.306139
154.070479,-1480.411884,6069.688724,1072.533697
154.070789,3701.029710,4885.359217,-5669.106685
154.071098,5625.565159,6143.709319,-8120.612279
154.071408,1776.494261,7846.182985,842.705048
154.071718,-1184.329507,6291.750507,7737.564530
154.072027,-3997.112087,11843.295072,8044.002729
154.072337,666.185348,17616.901420,306.438199
154.072646,6069.688724,13545.768739,-6435.202183
154.072956,-444.123565,13841.851115,-7277.907231
154.073266,-8512.368333,10510.924376,-1225.752797
154.073575,-1628.453072,14582.057057,-6665.030833
154.073885,2516.700203,12139.377449,-9193.145976
154.074194,-2664.741391,11325.150913,-229.828649
154.074504,-2590.720797,13323.706956,4673.182538
154.074814,2442.679609,3404.947333,-2068.457845
154.075123,2294.638420,2738.761985,-1915.238745
154.075433,-1554.432478,1924.535449,-1685.410096
154.075742,666.185348,-1702.473667,2681.334243
154.076052,-2590.720797,7328.038826,2451.505594
154.076362,3701.029710,16284.530724,1455.581446
154.076671,4737.318029,11769.274478,-6128.763984
