#time,accel_x,accel_y,accel_z
115.312328,-0.000000,9992.780217,-1991.848295
115.312638,-370.102971,9030.512492,-2145.067394
115.312947,-74.020594,9474.636058,-1532.190996
115.313257,-0.000000,10214.842000,-919.314598
115.313566,-1480.411884,9548.656652,-1072.533697
115.313876,740.205942,9992.780217,-383.047749
115.314185,-74.020594,8734.430116,-2298.286494
115.314495,-0.000000,9252.574275,-1762.019645
115.314804,-592.164754,9696.697840,-995.924147
115.315114,1036.288319,9918.759623,-1225.752797
115.315423,148.041188,9918.759623,-1149.143247
115.315733,370.102971,10066.800811,-1149.143247
115.316042,296.082377,9104.533087,-995.924147
115.316352,-518.144159,8586.388927,-1685.410096
115.316661,444.123565,10288.862594,-1225.752797
115.316971,-0.000000,9030.512492,-1072.533697
115.317281,370.102971,8808.450710,-1072.533697
115.317590,592.164754,9622.677246,-306.438199
115.317900,-444.123565,11103.089130,1378.971896
115.318209,666.185348,7846.182985,689.485948
115.318519,2738.761985,5921.647536,1072.533697
115.318828,4959.379811,7772.162391,3600.648841
115.319138,2590.720797,7698.141797,9729.412825
115.319447,-2886.803174,6661.853478,13406.671215
115.319757,4219.173869,8512.368333,8656.879127
115.320066,7476.080014,8142.265362,1838.629195
115.320376,1850.514855,7031.956449,4366.744339
115.320685,-4589.276840,9548.656652,14479.204912
115.320995,888.247130,11621.233289,12027.699319
115.321304,2220.617826,9918.759623,4060.306139
115.321614,370.102971,12583.501014,7967.393179
115.321923,-1036.288319,11769.274478,12410.747068
115.322233,-15174.221811,8734.430116,9882.631924
115.322542,26499.372724,20133.601622,-6818.249932
115.322852,-14359.995275,9474.636058,3677.258390
115.323161,-9104.533087,15766.386565,23289.303139
115.323471,-11917.315666,9178.553681,24132.008187
115.323780,3034.844362,10732.986159,0.000000
115.324090,10214.842000,15988.448347,-3753.867940
115.324399,-14878.139434,6661.853478,11414.822920
115.324709,-1628.453072,12879.583391,6358.592633
115.325019,-1998.556043,3775.050304,3753.867940
115.325328,-2886.803174,10807.006753,5592.497135
115.325638,222.061783,5403.503377,17620.196454
115.325947,-0.000000,2812.782580,12334.137518
115.326257,-1850.514855,3034.844362,14172.766713
115.326566,-1480.411884,2664.741391,18233.072852
115.326876,2590.720797,8290.306550,5515.887586
115.327185,-3182.885551,4515.256246,1532.190996
115.327495,1702.473667,16210.510130,4290.134789
115.327804,1110.308913,11251.130318,-459.657299
115.328114,4441.235652,14063.912898,306.438199
115.328423,-0.000000,11029.068536,21220.845295
115.328733,-1924.535449,5995.668130,24591.665486
115.329042,3478.967927,5329.482782,15858.176809
115.329352,1036.288319,5329.482782,9576.193725
115.329661,666.185348,11029.068536,6128.763984
115.329971,6587.832884,13693.809927,-4136.915689
115.330280,4219.173869,17172.777854,-3524.039291
115.330590,-1184.329507,14804.118840,13483.280765
115.330899,-7402.059420,13841.851115,17926.634653
115.331209,-2812.782580,11177.109724,9576.193725
115.331518,2294.638420,10436.903782,-536.266849
115.331828,4663.297435,8068.244768,-4060.306139
115.332137,-740.205942,8364.327145,4979.620737
115.332447,370.102971,10732.986159,14709.033562
115.332757,-962.267725,9178.553681,16317.834107
115.333066,3034.844362,7179.997637,7201.297681
115.333376,3034.844362,4811.338623,2604.724693
115.333685,-5255.462188,222.061783,3064.381992
115.333995,-4663.297435,6587.832884,5362.668486
115.334304,1850.514855,9918.759623,-3447.429741
115.334614,8216.285956,7994.224174,-6665.030833
115.334923,1998.556043,6735.874072,7967.393179
115.335233,-7698.141797,8290.306550,23672.350888
115.335542,-3552.988522,9696.697840,19075.777900
115.335852,4959.379811,10214.842000,306.438199
115.336161,3330.926739,10066.800811,-5898.935335
115.336471,-1480.411884,8586.388927,-459.657299
115.336780,-6661.853478,12657.521608,1532.190996
115.337090,6143.709319,14804.118840,-6588.421283
115.337399,8290.306550,13027.624579,536.266849
115.337709,-4219.173869,8734.430116,23212.693589
115.338018,-3404.947333,5773.606348,28651.971625
115.338328,6661.853478,3849.070898,8733.488677
115.338637,888.247130,9622.677246,3447.429741
115.338947,5551.544565,3256.906145,2834.553343
115.339256,2886.803174,814.226536,-2987.772442
115.339566,4219.173869,3923.091493,-3294.210641
115.339876,-15544.324782,-1480.411884,24285.227287
115.340185,10362.883188,20355.663405,20761.187996
115.340495,5107.421000,2738.761985,2604.724693
115.340804,-8512.368333,8586.388927,7584.345430
115.341114,592.164754,15396.283594,13483.280765
115.341423,7994.224174,9178.553681,-14479.204912
115.341733,1998.556043,15988.448347,-3600.648841
115.342042,-7328.038826,15988.448347,27119.780629
115.342352,-0.000000,13619.789333,11414.822920
115.342661,-1554.432478,11177.109724,-1915.238745
115.342971,-6735.874072,16062.468941,11031.775171
115.343280,1258.350101,14359.995275,4366.744339
115.343590,3775.050304,12435.459826,-11184.994271
115.343899,74.020594,12583.501014,-689.485948
115.344209,-6365.771101,11621.233289,17007.320056
115.344518,444.123565,16802.674883,7201.297681
115.344828,1184.329507,8512.368333,-4519.963438
115.345137,592.164754,11251.130318,3294.210641
115.345447,-3552.988522,8734.430116,9576.193725
115.345756,592.164754,4219.173869,2528.115143
115.346066,4737.318029,3701.029710,4903.011187
115.346375,740.205942,2590.720797,13866.328514
115.346685,222.061783,-740.205942,2451.505594
115.346994,4071.132681,2960.823768,1532.190996
115.347304,-3182.885551,9548.656652,10955.165621
115.347614,-3478.967927,7994.224174,7814.174080
115.347923,4441.235652,13027.624579,-1685.410096
115.348233,-1628.453072,7402.059420,-5975.544884
115.348542,-3923.091493,5033.400406,-3830.477490
115.348852,-1332.370696,11843.295072,-153.219100
115.349161,-1776.494261,11917.315666,4136.915689
115.349471,-592.164754,14285.974681,5822.325785
115.349780,4885.359217,17024.736666,4903.011187
115.350090,3701.029710,10066.800811,-1762.019645
115.350399,1258.350101,7402.059420,-2221.676944
115.350709,1480.411884,8882.471304,4826.401637
115.351018,-2812.782580,9548.656652,2681.334243
115.351328,1850.514855,12361.439231,-6281.983084
115.351637,2738.761985,12361.439231,-8350.440928
115.351947,-1406.391290,7328.038826,-5669.106685
115.352256,-1628.453072,10436.903782,1302.362347
115.352566,-2442.679609,9178.553681,3983.696590
115.352875,-1258.350101,8438.347739,1455.581446
115.353185,4811.338623,10584.944971,-3217.601092
115.353494,1480.411884,5699.585753,-7124.688131
115.353804,296.082377,10140.821405,-612.876398
115.354113,-4293.194464,9696.697840,3447.429741
115.354423,-3775.050304,12731.542202,3447.429741
115.354732,5699.585753,11399.171507,-9729.412825
115.355042,3701.029710,6439.791695,-14862.252661
115.355352,-5699.585753,6513.812290,-306.438199
115.355661,-3849.070898,6365.771101,6971.469032
115.355971,3108.864956,7698.141797,995.924147
115.356280,3627.009116,6587.832884,-1762.019645
115.356590,5403.503377,3923.091493,-919.314598
115.356899,-296.082377,4885.359217,3140.991542
115.357209,222.061783,11547.212695,1302.362347
115.357518,222.061783,11251.130318,-2528.115143
115.357828,3775.050304,11843.295072,-7048.078582
115.358137,6291.750507,11695.253884,-9882.631924
115.358447,1924.535449,9474.636058,-4290.134789
115.358756,-4293.194464,10732.986159,5515.887586
115.359066,-4071.132681,9030.512492,10189.070123
115.359375,9030.512492,10362.883188,-995.924147
115.359685,6365.771101,6513.812290,-10342.289223
115.359994,-3775.050304,9400.615463,766.095498
115.360304,-3108.864956,9918.759623,1991.848295
115.360613,-4219.173869,8142.265362,-5132.839837
115.360923,-1110.308913,15026.180623,-5592.497135
115.361232,1480.411884,12731.542202,-8580.269578
115.361542,2442.679609,8808.450710,-11644.651570
115.361851,-3701.029710,9844.739029,4673.182538
115.362161,-7179.997637,7772.162391,19382.216099
115.362471,3923.091493,11843.295072,3524.039291
115.362780,9178.553681,3404.947333,-7124.688131
115.363090,-2294.638420,5477.523971,3753.867940
115.363399,-6957.935855,11103.089130,10725.336972
115.363709,-0.000000,9030.512492,229.828649
115.364018,-1036.288319,11621.233289,-6511.811733
115.364328,-1110.308913,15100.201217,-5286.058936
115.364637,-444.123565,4885.359217,-9576.193725
115.364947,1480.411884,10288.862594,-3524.039291
115.365256,-5403.503377,13101.645173,10801.946522
115.365566,-592.164754,8956.491898,7584.345430
115.365875,6587.832884,8216.285956,-689.485948
115.366185,1924.535449,5033.400406,-536.266849
115.366494,-4145.153275,8216.285956,3830.477490
115.366804,-4145.153275,7476.080014,2604.724693
115.367113,-3849.070898,8956.491898,-3294.210641
115.367423,1924.535449,11843.295072,-7584.345430
115.367732,5107.421000,9696.697840,-15321.909960
115.368042,-2072.576638,7624.121203,-7048.078582
115.368351,-4663.297435,10140.821405,6894.859482
115.368661,-4663.297435,5255.462188,8810.098227
115.368970,3923.091493,7994.224174,2451.505594
115.369279,6587.832884,8068.244768,-4826.401637
115.369589,-0.000000,4441.235652,-612.876398
115.369898,-3627.009116,12805.562797,6205.373534
115.370208,-3182.885551,11251.130318,1762.019645
115.370517,4219.173869,14211.954086,-11108.384721
115.370827,5403.503377,11991.336260,-13100.233016
115.371136,2072.576638,12731.542202,-3830.477490
115.371446,-5773.606348,13545.768739,6052.154434
115.371755,-3849.070898,10510.924376,10955.165621
115.372065,7476.080014,10214.842000,1455.581446
115.372374,6217.729913,5773.606348,-8120.612279
115.372684,-3701.029710,5329.482782,2451.505594
115.372993,-3923.091493,9770.718434,9269.755526
115.373302,-666.185348,10732.986159,-4060.306139
115.373612,3923.091493,10807.006753,-10495.508323
115.373921,-0.000000,11399.171507,-6128.763984
115.374231,-222.061783,5625.565159,-2451.505594
115.374540,370.102971,9104.533087,2911.162892
115.374850,-2664.741391,8364.327145,6665.030833
115.375159,2960.823768,4071.132681,2068.457845
115.375469,6143.709319,6069.688724,-3600.648841
115.375778,-444.123565,5921.647536,-2451.505594
115.376088,-2590.720797,7550.100608,2298.286494
115.376397,-370.102971,7994.224174,-1762.019645
115.376707,-1480.411884,11177.109724,-6205.373534
115.377016,-2146.597232,13471.748144,-7507.735880
115.377326,5551.544565,10732.986159,-11414.822920
115.377635,-0.000000,11473.192101,-6128.763984
115.377944,-5403.503377,14285.974681,8044.002729
115.378254,-74.020594,9326.594869,9806.022374
115.378563,7698.141797,7994.224174,-1685.410096
115.378873,2294.638420,7105.977043,-1608.800546
115.379182,-5255.462188,6143.709319,9116.536426
115.379492,-1924.535449,8734.430116,1455.581446
115.379801,-2886.803174,7994.224174,-4136.915689
115.380111,222.061783,12879.583391,-5592.497135
115.380420,-296.082377,9252.574275,-10265.679673
115.380730,-1776.494261,7994.224174,-7507.735880
115.381039,-2812.782580,13767.830521,4979.620737
115.381349,-1332.370696,9474.636058,5669.106685
115.381658,-1258.350101,9178.553681,2451.505594
115.381967,2960.823768,7105.977043,1302.362347
115.382277,-2886.803174,4515.256246,2451.505594
115.382586,-1406.391290,9844.739029,459.657299
115.382896,-1554.432478,5625.565159,-2451.505594
115.383205,-2590.720797,9992.780217,-3294.210641
115.383515,-518.144159,11325.150913,-4136.915689
115.383824,-74.020594,9474.636058,-10878.556072
115.384134,-2516.700203,12213.398043,-4903.011187
115.384443,-370.102971,10436.903782,1762.019645
115.384753,-222.061783,8808.450710,1838.629195
115.385062,3108.864956,8364.327145,1762.019645
115.385372,4219.173869,3627.009116,1455.581446
115.385681,2072.576638,7550.100608,1072.533697
115.385991,-3256.906145,9326.594869,6052.154434
115.386300,-2664.741391,10881.027347,4213.525239
115.386609,3849.070898,14730.098246,-11031.775171
115.386919,5255.462188,11621.233289,-15475.129060
115.387228,-444.123565,14359.995275,-2987.772442
115.387538,-4589.276840,12361.439231,3907.087040
115.387847,2146.597232,10436.903782,3753.867940
115.388157,7031.956449,10288.862594,4443.353888
115.388466,148.041188,5403.503377,4673.182538
115.388776,370.102971,4811.338623,3600.648841
115.389085,-1480.411884,7846.182985,1991.848295
115.389395,-2368.659014,8734.430116,1838.629195
115.389704,-370.102971,12509.480420,-3140.991542
115.390014,1406.391290,12361.439231,-11874.480219
115.390323,-0.000000,10436.903782,-9729.412825
115.390632,-962.267725,13693.809927,3524.039291
115.390942,-4515.256246,8956.491898,5439.278036
115.391251,296.082377,7624.121203,4290.134789
115.391561,2220.617826,4663.297435,1838.629195
115.391870,888.247130,444.123565,-995.924147
115.392180,-740.205942,7402.059420,5132.839837
115.392489,-4515.256246,6957.935855,2757.943793
115.392799,-1480.411884,9104.533087,-2987.772442
115.393108,5403.503377,14137.933492,-12563.966167
115.393418,2516.700203,8882.471304,-13713.109414
115.393727,-6143.709319,12953.603985,612.876398
115.394037,888.247130,11843.295072,7048.078582
115.394346,1702.473667,11695.253884,0.000000
115.394656,3404.947333,10066.800811,-1149.143247
115.394965,666.185348,3108.864956,-995.924147
115.395274,814.226536,6513.812290,1072.533697
115.395584,-592.164754,11029.068536,-459.657299
115.395893,-4219.173869,8512.368333,2221.676944
115.396203,3330.926739,14656.077652,-4366.744339
115.396512,3775.050304,9770.718434,-14325.985813
115.396822,-0.000000,10658.965565,-7354.516781
115.397131,-5181.441594,13989.892304,5132.839837
115.397441,-222.061783,7698.141797,6052.154434
115.397750,3701.029710,9252.574275,-2451.505594
115.398060,3404.947333,7105.977043,-4060.306139
115.398369,-1850.514855,5329.482782,-689.485948
115.398679,-4515.256246,8438.347739,1302.362347
115.398988,-6291.750507,7698.141797,-766.095498
115.399297,1998.556043,9844.739029,-10955.165621
115.399607,2738.761985,9918.759623,-14479.204912
115.399916,-2516.700203,9622.677246,-9346.365076
115.400226,-3256.906145,9178.553681,1685.410096
115.400535,-2368.659014,9178.553681,2757.943793
115.400845,2886.803174,8438.347739,-1072.533697
115.401154,4219.173869,5551.544565,-3983.696590
115.401464,-0.000000,4515.256246,-4366.744339
115.401773,-1702.473667,6069.688724,2911.162892
115.402083,-2738.761985,8882.471304,4443.353888
115.402392,-0.000000,12287.418637,-4060.306139
115.402702,6883.915261,13027.624579,-11031.775171
115.403011,2146.597232,12435.459826,-10725.336972
115.403321,-814.226536,11769.274478,-2834.553343
115.403630,-3256.906145,17246.798449,5592.497135
115.403939,1554.432478,13693.809927,3370.820191
115.404249,7105.977043,12065.356855,-4290.134789
115.404558,2738.761985,7328.038826,-3524.039291
115.404868,-1332.370696,7105.977043,4213.525239
115.405177,-2294.638420,7994.224174,4903.011187
115.405487,-3256.906145,6883.915261,1378.971896
115.405796,3997.112087,11103.089130,-6818.249932
115.406106,2590.720797,7772.162391,-10801.946522
115.406415,-1850.514855,7179.997637,-842.705048
115.406725,-5995.668130,12953.603985,2221.676944
115.407034,-1036.288319,6513.812290,76.609550
115.407344,2960.823768,9474.636058,-3370.820191
115.407653,1258.350101,5477.523971,-5132.839837
115.407962,148.041188,4441.235652,1608.800546
115.408272,-3701.029710,5847.626942,7814.174080
115.408581,-7105.977043,4811.338623,5822.325785
115.408891,2664.741391,7179.997637,-4903.011187
115.409200,1554.432478,5995.668130,-12947.013916
115.409510,1036.288319,9252.574275,-8273.831378
115.409819,-2812.782580,14211.954086,-612.876398
115.410129,-2516.700203,11547.212695,-842.705048
115.410438,222.061783,11325.150913,2068.457845
115.410748,6513.812290,10807.006753,4290.134789
115.411057,-222.061783,4737.318029,-1608.800546
115.411367,-1628.453072,10214.842000,6511.811733
115.411676,-1332.370696,8808.450710,7354.516781
115.411985,3552.988522,10066.800811,-2145.067394
115.412295,6143.709319,13397.727550,-6741.640382
115.412604,-814.226536,12287.418637,-5745.716235
115.412914,148.041188,14730.098246,-1302.362347
115.413223,-1924.535449,15618.345376,-1991.848295
115.413533,-2146.597232,11473.192101,-1532.190996
115.413842,6883.915261,13619.789333,-2145.067394
115.414152,2368.659014,3997.112087,-4366.744339
115.414461,-2960.823768,5699.585753,4290.134789
115.414771,-6365.771101,6587.832884,12027.699319
115.415080,-2960.823768,2220.617826,842.705048
115.415390,5847.626942,8734.430116,-13176.842566
115.415699,-0.000000,6291.750507,-11644.651570
115.416009,-7328.038826,9770.718434,-1225.752797
115.416318,-1184.329507,11621.233289,2221.676944
115.416627,-2294.638420,8586.388927,-4443.353888
115.416937,2368.659014,7476.080014,229.828649
115.417246,296.082377,6217.729913,-1762.019645
115.417556,-4219.173869,4959.379811,-2068.457845
115.417865,-2738.761985,5995.668130,3294.210641
115.418175,-814.226536,11029.068536,1302.362347
115.418484,2442.679609,11399.171507,-7890.783629
115.418794,3627.009116,13619.789333,-8963.317327
115.419103,-4219.173869,9622.677246,-3983.696590
115.419413,-1702.473667,15618.345376,0.000000
115.419722,-0.000000,11621.233289,-689.485948
115.420032,1776.494261,12139.377449,766.095498
115.420341,2294.638420,12583.501014,919.314598
115.420650,518.144159,4885.359217,2987.772442
115.420960,-592.164754,8216.285956,2834.553343
115.421269,-4811.338623,9844.739029,2834.553343
115.421579,1258.350101,10510.924376,-4903.011187
115.421888,3552.988522,12213.398043,-12104.308868
115.422198,-1036.288319,9326.594869,-6818.249932
115.422507,518.144159,10436.903782,2528.115143
115.422817,-2590.720797,9992.780217,2374.896044
115.423126,-0.000000,4885.359217,612.876398
115.423436,2590.720797,6957.935855,-383.047749
115.423745,-74.020594,7031.956449,-3217.601092
115.424055,1850.514855,6661.853478,-3140.991542
115.424364,-962.267725,7994.224174,-1149.143247
115.424674,-4071.132681,6661.853478,612.876398
115.424983,1628.453072,8068.244768,306.438199
115.425292,2368.659014,7031.956449,-6511.811733
115.425602,-0.000000,7846.182985,-5362.668486
115.425911,-296.082377,9474.636058,612.876398
115.426221,-1924.535449,11621.233289,1532.190996
115.426530,5773.606348,14137.933492,1072.533697
115.426840,2812.782580,9474.636058,-3294.210641
115.427149,370.102971,9400.615463,-1149.143247
115.427459,-1184.329507,10140.821405,4443.353888
115.427768,-2072.576638,12213.398043,3370.820191
115.428078,1184.329507,10807.006753,-4519.963438
115.428387,3849.070898,13767.830521,-8810.098227
115.428697,2294.638420,10066.800811,-4903.011187
115.429006,-0.000000,11843.295072,1608.800546
115.429315,-2220.617826,12583.501014,1532.190996
115.429625,-1184.329507,11399.171507,2911.162892
115.429934,6217.729913,11843.295072,-1991.848295
115.430244,962.267725,6143.709319,-5975.544884
115.430553,-2368.659014,8882.471304,-842.705048
115.430863,-5107.421000,8956.491898,3983.696590
115.431172,-1184.329507,9844.739029,-2528.115143
115.431482,3478.967927,10955.047942,-9422.974625
115.431791,666.185348,6735.874072,-7354.516781
115.432101,-1480.411884,7920.203579,1991.848295
115.432410,-2812.782580,8512.368333,4136.915689
115.432720,-1406.391290,7698.141797,2451.505594
115.433029,2294.638420,8216.285956,-1685.410096
115.433339,2738.761985,7105.977043,-6741.640382
115.433648,-3997.112087,8290.306550,-1991.848295
115.433957,-3034.844362,10436.903782,2451.505594
115.434267,-1702.473667,12213.398043,0.000000
115.434576,814.226536,14952.160028,-5822.325785
115.434886,3552.988522,9252.574275,-6435.202183
115.435195,-2738.761985,6883.915261,-2451.505594
115.435505,-3108.864956,12805.562797,2528.115143
115.435814,-0.000000,9030.512492,3524.039291
115.436124,5699.585753,13027.624579,-612.876398
115.436433,5847.626942,8882.471304,-4903.011187
115.436743,-1850.514855,8142.265362,2374.896044
115.437052,-3256.906145,9622.677246,5439.278036
115.437362,-3552.988522,8808.450710,-689.485948
115.437671,-2442.679609,13989.892304,-4826.401637
115.437980,518.144159,10807.006753,-10725.336972
115.438290,2812.782580,8438.347739,-13483.280765
115.438599,-2220.617826,13915.871710,-3064.381992
115.438909,-6661.853478,9326.594869,8963.317327
115.439218,1554.432478,8364.327145,1455.581446
115.439528,4737.318029,7624.121203,-2834.553343
115.439837,-814.226536,1776.494261,612.876398
115.440147,-1110.308913,5403.503377,5745.716235
115.440456,-3404.947333,7105.977043,-2221.676944
115.440766,-2442.679609,8364.327145,-6128.763984
115.441075,3330.926739,14508.036463,-7967.393179
115.441385,2146.597232,7624.121203,-13023.623466
115.441694,-0.000000,10066.800811,-3907.087040
115.442004,-4071.132681,15470.304188,7277.907231
115.442313,-2146.597232,8068.244768,4673.182538
115.442622,9548.656652,8142.265362,-1072.533697
115.442932,2886.803174,5329.482782,-4136.915689
115.443241,-1850.514855,5921.647536,2681.334243
115.443551,-4145.153275,13989.892304,9806.022374
115.443860,-1628.453072,10214.842000,-1378.971896
115.444170,7031.956449,14285.974681,-11338.213370
115.444479,814.226536,12065.356855,-8427.050478
115.444789,-3701.029710,10140.821405,-2681.334243
115.445098,-0.000000,11473.192101,1838.629195
115.445408,-592.164754,8808.450710,1225.752797
115.445717,2960.823768,10288.862594,1685.410096
115.446027,4441.235652,6735.874072,153.219100
115.446336,3108.864956,3923.091493,1991.848295
115.446645,-2886.803174,8586.388927,4136.915689
115.446955,-5255.462188,8512.368333,2911.162892
115.447264,1480.411884,12139.377449,-6588.421283
115.447574,4885.359217,10732.986159,-13559.890315
115.447883,-518.144159,7031.956449,-10648.727422
115.448193,-5699.585753,10288.862594,2911.162892
115.448502,-2516.700203,5773.606348,6665.030833
115.448812,1184.329507,5847.626942,2145.067394
115.449121,3552.988522,6069.688724,-5898.935335
115.449431,1110.308913,2442.679609,-1532.190996
115.449740,-4071.132681,8438.347739,3140.991542
115.450050,-3849.070898,9918.759623,2757.943793
115.450359,666.185348,10214.842000,-6741.640382
115.450669,5847.626942,14434.015869,-9652.803275
115.450978,-0.000000,11103.089130,-7814.174080
115.451287,-3108.864956,10955.047942,3907.087040
115.451597,-1406.391290,13693.809927,5592.497135
115.451906,3923.091493,10510.924376,612.876398
115.452216,4219.173869,10140.821405,2374.896044
115.452525,-962.267725,6069.688724,2451.505594
115.452835,-148.041188,6957.935855,-766.095498
115.453144,-1332.370696,10140.821405,-1072.533697
115.453454,-7031.956449,10214.842000,2451.505594
115.453763,2516.700203,14804.118840,-5975.544884
115.454073,5329.482782,10510.924376,-13866.328514
115.454382,-1702.473667,11103.089130,-6052.154434
115.454692,-5699.585753,10807.006753,10035.851024
115.455001,-1184.329507,7920.203579,7431.126331
115.455310,5403.503377,9030.512492,-2528.115143
115.455620,4293.194464,6735.874072,-2911.162892
115.455929,-3627.009116,2442.679609,3524.039291
115.456239,-3108.864956,6439.791695,2911.162892
115.456548,-4145.153275,8142.265362,-3064.381992
115.456858,-814.226536,11399.171507,-6818.249932
115.457167,1998.556043,9844.739029,-10495.508323
115.457477,-1850.514855,9770.718434,-7737.564530
115.457786,-1628.453072,13027.624579,2298.286494
115.458096,-0.000000,9400.615463,4060.306139
115.458405,4663.297435,8438.347739,1915.238745
115.458715,3627.009116,8882.471304,2604.724693
115.459024,-148.041188,4367.215058,2834.553343
115.459334,222.061783,6957.935855,2911.162892
115.459643,-1406.391290,11251.130318,2681.334243
115.459952,370.102971,11029.068536,-1302.362347
115.460262,4959.379811,15988.448347,-7584.345430
115.460571,-592.164754,10732.986159,-9959.241474
115.460881,-2590.720797,12213.398043,-1455.581446
115.461190,1850.514855,14730.098246,1532.190996
115.461500,-962.267725,10436.903782,-383.047749
115.461809,4885.359217,12065.356855,1532.190996
115.462119,3034.844362,8142.265362,766.095498
115.462428,148.041188,5403.503377,2834.553343
115.462738,-0.000000,7254.018232,6894.859482
115.463047,-4145.153275,8142.265362,842.705048
115.463357,4293.194464,11399.171507,-6281.983084
115.463666,4811.338623,9252.574275,-11644.651570
115.463975,-4441.235652,8956.491898,-4673.182538
115.464285,-3775.050304,11695.253884,2374.896044
115.464594,296.082377,6291.750507,-1838.629195
115.464904,1628.453072,5995.668130,-459.657299
115.465213,814.226536,8512.368333,2221.676944
115.465523,-1850.514855,4811.338623,2451.505594
115.465832,1776.494261,8586.388927,3140.991542
115.466142,-3997.112087,8956.491898,2145.067394
115.466451,-592.164754,9696.697840,-3907.087040
115.466761,5403.503377,13619.789333,-8886.707777
115.467071,-666.185348,11325.150913,-9039.926876
115.467380,1036.288319,15544.324782,-842.705048
115.467690,-2294.638420,11177.109724,-1302.362347
115.467999,1110.308913,10214.842000,1915.238745
115.468309,5033.400406,13101.645173,2681.334243
115.468618,-1110.308913,4515.256246,1991.848295
115.468928,-222.061783,5033.400406,5669.106685
115.469237,-2590.720797,5921.647536,5898.935335
115.469547,-1480.411884,8290.306550,-3907.087040
115.469857,5995.668130,15692.365970,-9806.022374
115.470166,222.061783,13989.892304,-11874.480219
115.470476,-2664.741391,11769.274478,-4136.915689
115.470785,-2886.803174,12361.439231,5439.278036
115.471095,-148.041188,9770.718434,2221.676944
115.471404,3701.029710,9030.512492,0.000000
115.471714,888.247130,4441.235652,919.314598
115.472023,-518.144159,1184.329507,3217.601092
115.472333,-0.000000,6217.729913,3294.210641
115.472643,-4071.132681,6883.915261,-459.657299
115.472952,2220.617826,9326.594869,-6894.859482
115.473262,1998.556043,10288.862594,-11491.432470
115.473571,518.144159,10510.924376,-12257.527968
115.473881,-1628.453072,13101.645173,-383.047749
115.474190,-1998.556043,10288.862594,2911.162892
115.474500,1924.535449,10658.965565,2298.286494
115.474809,4515.256246,8586.388927,3983.696590
115.475119,1406.391290,4737.318029,2911.162892
115.475429,-2294.638420,7624.121203,6358.592633
115.475738,-2220.617826,9770.718434,2757.943793
115.476048,-148.041188,13101.645173,-6128.763984
115.476357,4811.338623,14952.160028,-10955.165621
115.476667,740.205942,12953.603985,-10801.946522
115.476976,-3701.029710,11325.150913,0.000000
115.477286,-444.123565,11917.315666,4903.011187
115.477595,-74.020594,9474.636058,1915.238745
115.477905,5255.462188,10140.821405,459.657299
115.478215,740.205942,3701.029710,1991.848295
115.478524,-666.185348,5107.421000,4596.572988
115.478834,-740.205942,8364.327145,2987.772442
115.479143,-2738.761985,8660.409521,-306.438199
115.479453,2072.576638,13545.768739,-7354.516781
115.479762,2738.761985,8660.409521,-13100.233016
115.480072,-2516.700203,10881.027347,-4826.401637
115.480381,-4367.215058,10807.006753,5592.497135
115.480691,-592.164754,6883.915261,3064.381992
115.481001,6439.791695,9178.553681,-3294.210641
115.481310,-444.123565,4219.173869,-612.876398
115.481620,-1628.453072,3552.988522,5132.839837
115.481929,-1036.288319,9474.636058,3447.429741
115.482239,-3849.070898,9400.615463,-919.314598
115.482548,2738.761985,14730.098246,-4749.792088
115.482858,2886.803174,10807.006753,-10112.460574
115.483167,1332.370696,11399.171507,-7507.735880
115.483477,1110.308913,13915.871710,4826.401637
115.483787,-148.041188,7031.956449,4060.306139
115.484096,3627.009116,10881.027347,229.828649
115.484406,1332.370696,9548.656652,-306.438199
115.484715,1036.288319,3997.112087,536.266849
115.485025,-1850.514855,10584.944971,2451.505594
115.485334,-4367.215058,9400.615463,306.438199
115.485644,962.267725,12287.418637,-3753.867940
115.485953,4441.235652,13693.809927,-9806.022374
115.486263,370.102971,10807.006753,-8580.269578
115.486573,-3923.091493,12805.562797,2911.162892
115.486882,-2294.638420,10140.821405,6052.154434
115.487192,3034.844362,9844.739029,-919.314598
115.487501,3627.009116,11695.253884,-3600.648841
115.487811,-888.247130,-0.000000,0.000000
115.488120,-3701.029710,4737.318029,5592.497135
115.488430,-3701.029710,6439.791695,3983.696590
115.488739,-2146.597232,5921.647536,-2834.553343
115.489049,1480.411884,13175.665768,-7431.126331
115.489359,1480.411884,11621.233289,-11031.775171
115.489668,-1110.308913,10881.027347,-5439.278036
115.489978,-1258.350101,12805.562797,1532.190996
115.490287,-1850.514855,6809.894666,2068.457845
115.490597,6217.729913,11547.212695,0.000000
115.490906,2146.597232,7698.141797,-153.219100
115.491216,-4441.235652,4811.338623,4903.011187
115.491525,-666.185348,8512.368333,7890.783629
115.491835,-2220.617826,7772.162391,-2451.505594
115.492145,4145.153275,11251.130318,-9729.412825
115.492454,1924.535449,11251.130318,-8427.050478
115.492764,-1406.391290,10732.986159,-5669.106685
115.493073,-2590.720797,14730.098246,1532.190996
115.493383,-1480.411884,11621.233289,2911.162892
115.493692,518.144159,11251.130318,306.438199
115.494002,5403.503377,10436.903782,-1378.971896
115.494311,814.226536,4515.256246,-1378.971896
115.494621,-2886.803174,8512.368333,5132.839837
115.494931,-2368.659014,8438.347739,6741.640382
115.495240,-666.185348,7624.121203,-2757.943793
115.495550,4589.276840,12805.562797,-8197.221829
115.495859,-1554.432478,9252.574275,-7967.393179
115.496169,-4293.194464,12361.439231,-2145.067394
115.496478,-740.205942,7031.956449,1149.143247
115.496788,370.102971,8882.471304,-2757.943793
115.497097,5625.565159,9992.780217,-4290.134789
115.497407,-1406.391290,2294.638420,842.705048
115.497716,-1776.494261,6735.874072,12104.308868
115.498026,-0.000000,7254.018232,5898.935335
115.498336,-74.020594,6661.853478,-4290.134789
115.498645,2516.700203,11621.233289,-5975.544884
115.498955,-444.123565,12213.398043,-9652.803275
115.499264,-962.267725,14730.098246,-7814.174080
115.499574,5847.626942,13915.871710,1455.581446
115.499883,-666.185348,14137.933492,1685.410096
115.500193,740.205942,8438.347739,1838.629195
115.500502,2072.576638,6587.832884,383.047749
115.500812,-1258.350101,6217.729913,3217.601092
115.501122,-1850.514855,6957.935855,3294.210641
115.501431,2442.679609,10584.944971,-4290.134789
115.501741,370.102971,14656.077652,-8044.002729
115.502050,3478.967927,14730.098246,-9806.022374
115.502360,-1406.391290,9770.718434,-5822.325785
115.502669,-3330.926739,13545.768739,766.095498
115.502979,-1406.391290,8956.491898,4903.011187
115.503288,3330.926739,7328.038826,766.095498
115.503598,5847.626942,7105.977043,-5515.887586
115.503908,-4293.194464,2960.823768,3064.381992
115.504217,-2738.761985,7624.121203,4979.620737
115.504527,-2812.782580,4663.297435,-4903.011187
115.504836,444.123565,11769.274478,-7431.126331
115.505146,-1776.494261,13841.851115,-6818.249932
115.505455,-1406.391290,9104.533087,-7584.345430
115.505765,3552.988522,14656.077652,-3140.991542
115.506074,-3552.988522,9548.656652,2451.505594
115.506384,962.267725,8956.491898,3294.210641
115.506694,1036.288319,9696.697840,1608.800546
115.507003,888.247130,6735.874072,-2451.505594
115.507313,-2294.638420,5329.482782,689.485948
115.507622,-2590.720797,9030.512492,1455.581446
115.507932,-3034.844362,8290.306550,-1608.800546
115.508241,3552.988522,11621.233289,-3830.477490
115.508551,2664.741391,11473.192101,-8656.879127
115.508860,-7031.956449,10881.027347,-1838.629195
115.509170,3330.926739,14211.954086,5209.449386
115.509480,2072.576638,12731.542202,-1838.629195
115.509789,2960.823768,9918.759623,-2374.896044
115.510099,2146.597232,8586.388927,306.438199
115.510408,-3552.988522,6143.709319,-76.609550
115.510718,-222.061783,10066.800811,766.095498
115.511027,-2516.700203,8364.327145,1149.143247
115.511337,-666.185348,11251.130318,-6281.983084
115.511646,2960.823768,10955.047942,-10572.117872
115.511956,-3775.050304,6217.729913,-5515.887586
115.512266,-2072.576638,7179.997637,1838.629195
115.512575,1554.432478,4737.318029,0.000000
115.512885,1332.370696,9844.739029,2911.162892
115.513194,-444.123565,9252.574275,2987.772442
115.513504,2146.597232,3923.091493,-3983.696590
115.513813,-2442.679609,11325.150913,-3064.381992
115.514123,-2442.679609,10066.800811,383.047749
115.514432,-2368.659014,8882.471304,-2987.772442
115.514742,3256.906145,13693.809927,-9729.412825
115.515052,2664.741391,9252.574275,-7814.174080
115.515361,1554.432478,10140.821405,3294.210641
115.515671,-3182.885551,9844.739029,8886.707777
115.515980,1258.350101,8586.388927,4749.792088
115.516290,5625.565159,10436.903782,1991.848295
115.516599,-444.123565,8142.265362,-3677.258390
115.516909,-2072.576638,10288.862594,153.219100
115.517218,-0.000000,12583.501014,-3140.991542
115.517528,-1258.350101,13841.851115,-5132.839837
115.517838,-0.000000,14878.139434,-5362.668486
115.518147,3182.885551,10584.944971,-9652.803275
115.518457,-1628.453072,9696.697840,-3524.039291
115.518766,-4441.235652,10436.903782,9882.631924
115.519076,1332.370696,6365.771101,8350.440928
115.519385,6069.688724,8660.409521,-7431.126331
115.519695,2590.720797,6735.874072,-2068.457845
115.520004,-5033.400406,5403.503377,5515.887586
115.520314,-1628.453072,5995.668130,0.000000
115.520624,-4293.194464,7179.997637,-6435.202183
115.520933,-2516.700203,11843.295072,-3907.087040
115.521243,1924.535449,11695.253884,-9806.022374
115.521552,1406.391290,9474.636058,-13406.671215
115.521862,-2368.659014,10066.800811,229.828649
115.522171,-2072.576638,9548.656652,6128.763984
115.522481,1924.535449,9030.512492,766.095498
115.522790,4367.215058,7105.977043,383.047749
115.523100,222.061783,5551.544565,4060.306139
115.523410,-2960.823768,6957.935855,3677.258390
115.523719,-1924.535449,8586.388927,919.314598
115.524029,-1036.288319,11325.150913,-3677.258390
115.524338,4441.235652,16580.613101,-12717.185267
115.524648,-74.020594,11029.068536,-12487.356617
115.524957,-2220.617826,14434.015869,-766.095498
115.525267,-1332.370696,12583.501014,4443.353888
115.525576,3404.947333,11621.233289,842.705048
115.525886,3478.967927,10584.944971,2068.457845
115.526196,-296.082377,4441.235652,4903.011187
115.526505,-1554.432478,4441.235652,4366.744339
115.526815,-4071.132681,6439.791695,3983.696590
115.527124,-0.000000,9844.739029,-4673.182538
115.527434,2664.741391,10510.924376,-11874.480219
115.527743,1036.288319,11103.089130,-9806.022374
115.528053,-3775.050304,10955.047942,-2451.505594
115.528362,-3256.906145,9252.574275,4749.792088
115.528672,1110.308913,8216.285956,2374.896044
115.528982,962.267725,7550.100608,459.657299
115.529291,3627.009116,5847.626942,-842.705048
115.529601,-3627.009116,3775.050304,1608.800546
115.529910,-1110.308913,9918.759623,3600.648841
115.530220,-1258.350101,8216.285956,-5209.449386
115.530529,1184.329507,12805.562797,-12334.137518
115.530839,1332.370696,12879.583391,-8503.660028
115.531148,-2590.720797,10658.965565,-2757.943793
115.531458,1850.514855,13545.768739,3677.258390
115.531768,-740.205942,8660.409521,5286.058936
115.532077,5551.544565,6661.853478,1072.533697
115.532387,2812.782580,8882.471304,2145.067394
115.532696,-1480.411884,6365.771101,-842.705048
115.533006,-1776.494261,10436.903782,919.314598
115.533315,-814.226536,14359.995275,-3753.867940
115.533625,-1628.453072,10658.965565,-5669.106685
115.533934,2812.782580,14063.912898,-8580.269578
115.534244,1332.370696,12139.377449,-7814.174080
115.534554,-4293.194464,10436.903782,4366.744339
115.534863,-740.205942,8438.347739,9039.926876
115.535173,3478.967927,4145.153275,306.438199
115.535482,4219.173869,6735.874072,0.000000
115.535792,-3775.050304,5625.565159,5209.449386
115.536101,-4293.194464,5773.606348,1225.752797
115.536411,-1036.288319,9030.512492,-5975.544884
115.536720,-3108.864956,9400.615463,-6971.469032
115.537030,1850.514855,14656.077652,-9499.584175
115.537340,444.123565,10066.800811,-11874.480219
115.537649,-1406.391290,11547.212695,-4673.182538
115.537959,-1924.535449,8142.265362,7507.735880
115.538268,1998.556043,3701.029710,3447.429741
115.538578,3552.988522,5921.647536,3447.429741
115.538887,1332.370696,5847.626942,4213.525239
115.539197,2590.720797,7698.141797,1378.971896
115.539506,148.041188,11251.130318,612.876398
115.539816,518.144159,13915.871710,-3217.601092
115.540126,444.123565,16876.695478,-8273.831378
115.540435,3182.885551,16728.654289,-9806.022374
115.540745,-3849.070898,13841.851115,-4136.915689
115.541054,-518.144159,15766.386565,229.828649
115.541364,2516.700203,11103.089130,-2068.457845
115.541673,2368.659014,8364.327145,612.876398
115.541983,1258.350101,7254.018232,3524.039291
115.542292,222.061783,5477.523971,1838.629195
115.542602,-962.267725,3478.967927,3294.210641
115.542912,-592.164754,5329.482782,4213.525239
115.543221,-1184.329507,8364.327145,-3983.696590
115.543531,-148.041188,10658.965565,-8963.317327
115.543840,222.061783,11177.109724,-8963.317327
115.544150,-4737.318029,10214.842000,-3370.820191
115.544459,1628.453072,10362.883188,-2374.896044
115.544769,-444.123565,6883.915261,0.000000
115.545078,-370.102971,10288.862594,1225.752797
115.545388,2146.597232,3404.947333,1302.362347
115.545698,-1406.391290,1776.494261,3983.696590
115.546007,-3256.906145,7402.059420,6971.469032
115.546317,-74.020594,2886.803174,0.000000
115.546626,3775.050304,10214.842000,-9806.022374
115.546936,1628.453072,13693.809927,-10801.946522
115.547245,-2368.659014,14359.995275,-3294.210641
115.547555,888.247130,15396.283594,-766.095498
115.547864,370.102971,14804.118840,-306.438199
115.548174,2146.597232,12139.377449,2681.334243
115.548484,148.041188,6365.771101,4136.915689
115.548793,962.267725,4885.359217,3294.210641
115.549103,740.205942,7328.038826,2221.676944
115.549412,-74.020594,8660.409521,76.609550
115.549722,-666.185348,11177.109724,-2451.505594
115.550031,2220.617826,15322.262999,-9729.412825
115.550341,-1628.453072,13101.645173,-11184.994271
115.550650,-3478.967927,12065.356855,-459.657299
115.550960,-1036.288319,11177.109724,612.876398
115.551270,1036.288319,6513.812290,1685.410096
115.551579,2960.823768,8216.285956,4213.525239
115.551889,-1702.473667,592.164754,4060.306139
115.552198,-2812.782580,518.144159,5822.325785
115.552508,-1332.370696,4145.153275,842.705048
115.552817,-3256.906145,7994.224174,-4596.572988
115.553127,2738.761985,13619.789333,-11568.042020
115.553436,-962.267725,10510.924376,-12334.137518
115.553746,-2146.597232,12065.356855,-3294.210641
115.554055,-2294.638420,11843.295072,3294.210641
115.554365,1702.473667,6957.935855,2068.457845
115.554675,3701.029710,7179.997637,2987.772442
115.554984,4293.194464,3108.864956,3294.210641
115.555294,-1332.370696,4071.132681,6741.640382
115.555603,-1924.535449,7254.018232,5056.230287
115.555913,296.082377,11843.295072,-4136.915689
115.556222,-962.267725,15322.262999,-7890.783629
115.556532,5403.503377,18283.086767,-10725.336972
115.556841,-1406.391290,15618.345376,-9882.631924
115.557151,-1258.350101,12139.377449,-1225.752797
115.557461,4589.276840,12139.377449,1685.410096
115.557770,-296.082377,7550.100608,2145.067394
115.558080,3849.070898,7105.977043,4596.572988
115.558389,-0.000000,4737.318029,4596.572988
115.558699,-2664.741391,5477.523971,4060.306139
115.559008,1702.473667,5477.523971,0.000000
115.559318,-4811.338623,9844.739029,-4979.620737
115.559627,2516.700203,11917.315666,-11951.089769
115.559937,-2072.576638,8734.430116,-10801.946522
115.560247,-4293.194464,7105.977043,-1762.019645
115.560556,-1184.329507,6365.771101,2604.724693
115.560866,-444.123565,8808.450710,689.485948
115.561175,2294.638420,5329.482782,-1532.190996
115.561485,2294.638420,1924.535449,-1378.971896
115.561794,-1036.288319,6365.771101,3830.477490
115.562104,-3923.091493,4885.359217,5362.668486
115.562413,666.185348,7920.203579,-1455.581446
115.562723,4071.132681,13989.892304,-9576.193725
115.563033,962.267725,12361.439231,-9422.974625
115.563342,-1998.556043,12731.542202,-3217.601092
115.563652,-1036.288319,14211.954086,2145.067394
115.563961,888.247130,10658.965565,383.047749
115.564271,3701.029710,11399.171507,1072.533697
115.564580,3627.009116,7920.203579,0.000000
115.564890,-0.000000,10362.883188,4443.353888
115.565199,-1850.514855,9474.636058,4826.401637
115.565509,1036.288319,9474.636058,766.095498
115.565819,444.123565,13175.665768,-5592.497135
115.566128,-592.164754,14359.995275,-8810.098227
115.566438,-1110.308913,11029.068536,-4213.525239
115.566747,-1998.556043,11769.274478,0.000000
115.567057,3404.947333,10955.047942,459.657299
115.567366,3182.885551,8660.409521,-689.485948
115.567676,148.041188,4589.276840,995.924147
115.567970,-1406.391290,-296.082377,5209.449386
115.568279,-4441.235652,814.226536,6511.811733
115.568589,-444.123565,5181.441594,1378.971896
115.568898,-962.267725,7105.977043,-5132.839837
115.569208,962.267725,8660.409521,-8503.660028
115.569517,-296.082377,11177.109724,-8963.317327
115.569827,-3034.844362,13767.830521,-2834.553343
115.570136,-2368.659014,10584.944971,1991.848295
115.570446,1924.535449,13619.789333,-536.266849
115.570755,3775.050304,9474.636058,-3983.696590
115.571065,2960.823768,5403.503377,3447.429741
115.571374,296.082377,7031.956449,10725.336972
115.571684,-1702.473667,7550.100608,4060.306139
115.571993,3478.967927,7920.203579,-1378.971896
115.572303,3256.906145,11769.274478,-5439.278036
115.572612,-962.267725,14137.933492,-7201.297681
115.572922,-1332.370696,13989.892304,-2068.457845
115.573231,1332.370696,17246.798449,-2987.772442
115.573541,1406.391290,15026.180623,-6588.421283
115.573850,3701.029710,13471.748144,-459.657299
115.574160,518.144159,8586.388927,3677.258390
115.574469,-2738.761985,4811.338623,7354.516781
115.574779,3256.906145,5107.421000,6971.469032
115.575088,-2146.597232,5995.668130,-1302.362347
115.575398,-0.000000,9770.718434,-4519.963438
115.575707,-592.164754,9770.718434,-6281.983084
115.576017,-3552.988522,11769.274478,-9193.145976
115.576326,-74.020594,12435.459826,-7584.345430
115.576636,-518.144159,8438.347739,-612.876398
115.576945,-1628.453072,9474.636058,2604.724693
115.577255,2960.823768,7476.080014,229.828649
115.577564,666.185348,740.205942,1378.971896
115.577874,-3034.844362,4663.297435,8197.221829
115.578183,-2812.782580,3923.091493,4290.134789
115.578493,1850.514855,10658.965565,-5898.935335
115.578802,3108.864956,14582.057057,-11874.480219
115.579112,2368.659014,10214.842000,-5132.839837
115.579421,-2368.659014,15692.365970,153.219100
115.579730,1332.370696,14582.057057,919.314598
115.580040,2590.720797,13619.789333,153.219100
115.580349,2664.741391,11843.295072,536.266849
115.580659,370.102971,7550.100608,2298.286494
115.580968,-518.144159,6291.750507,6588.421283
115.581278,5181.441594,10362.883188,-3064.381992
115.581587,-1184.329507,10214.842000,-8427.050478
115.581897,-1332.370696,13693.809927,-2374.896044
115.582206,-1702.473667,10584.944971,-7354.516781
115.582516,592.164754,9992.780217,-5515.887586
115.582825,1554.432478,12583.501014,1532.190996
115.583135,-2738.761985,7105.977043,4290.134789
115.583444,4071.132681,3256.906145,4903.011187
115.583754,1184.329507,4219.173869,3600.648841
115.584063,-1998.556043,4737.318029,1608.800546
115.584373,-1258.350101,6439.791695,-536.266849
115.584682,-0.000000,6957.935855,-5745.716235
115.584992,-4737.318029,12361.439231,-9193.145976
115.585301,962.267725,11547.212695,-10265.679673
115.585611,148.041188,9918.759623,-5898.935335
115.585920,-3478.967927,11769.274478,3600.648841
115.586230,74.020594,7402.059420,6281.983084
115.586539,1776.494261,6291.750507,2911.162892
115.586849,3997.112087,8290.306550,-1225.752797
115.587158,-592.164754,6809.894666,3140.991542
115.587468,-2590.720797,9252.574275,2911.162892
115.587777,1184.329507,11991.336260,-1685.410096
115.588087,1850.514855,11991.336260,-6281.983084
115.588396,962.267725,14804.118840,-5745.716235
115.588706,-1554.432478,10955.047942,-2604.724693
115.589015,-962.267725,10955.047942,1149.143247
115.589325,1924.535449,13027.624579,1608.800546
115.589634,888.247130,10362.883188,-1378.971896
115.589944,1332.370696,10955.047942,1915.238745
115.590253,-444.123565,8956.491898,-459.657299
115.590563,-0.000000,9104.533087,-1838.629195
115.590872,1036.288319,8956.491898,-2298.286494
115.591182,-4219.173869,9622.677246,-766.095498
115.591491,-1702.473667,9992.780217,-2681.334243
115.591801,814.226536,7402.059420,-5515.887586
115.592110,-740.205942,6439.791695,-2681.334243
115.592420,-1998.556043,6809.894666,3907.087040
115.592729,962.267725,6291.750507,1915.238745
115.593039,148.041188,7328.038826,-766.095498
115.593348,222.061783,8438.347739,-1991.848295
115.593658,-1480.411884,4515.256246,-536.266849
115.593967,-444.123565,9400.615463,-689.485948
115.594277,-2072.576638,10881.027347,-689.485948
115.594586,-296.082377,10362.883188,-4903.011187
115.594895,5181.441594,12435.459826,-8733.488677
115.595205,-740.205942,10436.903782,-1378.971896
115.595514,-296.082377,11843.295072,6894.859482
115.595824,222.061783,11251.130318,3447.429741
115.596133,4441.235652,11695.253884,-2374.896044
115.596443,1480.411884,12435.459826,-3140.991542
115.596752,-0.000000,8882.471304,-612.876398
115.597062,-666.185348,7402.059420,1838.629195
115.597371,-1702.473667,10214.842000,-306.438199
115.597681,74.020594,9918.759623,-3983.696590
115.597990,1628.453072,11251.130318,-7354.516781
115.598300,-0.000000,11547.212695,-6971.469032
115.598609,-1110.308913,10214.842000,1149.143247
115.598919,3256.906145,10362.883188,3217.601092
115.599228,592.164754,9548.656652,-536.266849
115.599538,1554.432478,8290.306550,1378.971896
115.599847,-0.000000,4959.379811,1608.800546
115.600157,-3256.906145,4811.338623,76.609550
115.600466,-2738.761985,9918.759623,-1149.143247
115.600776,-2886.803174,7254.018232,-4826.401637
115.601085,222.061783,13175.665768,-9039.926876
115.601395,370.102971,10510.924376,-9576.193725
115.601704,-1702.473667,9696.697840,-2834.553343
115.602014,2072.576638,9400.615463,6741.640382
115.602323,1110.308913,8512.368333,3907.087040
115.602633,1480.411884,10140.821405,2068.457845
115.602942,2442.679609,6291.750507,-1225.752797
115.603252,1036.288319,4071.132681,2911.162892
115.603561,-2294.638420,7254.018232,5209.449386
115.603871,-2812.782580,8216.285956,-2298.286494
115.604180,1110.308913,14211.954086,-7660.954980
115.604490,888.247130,16210.510130,-9729.412825
115.604799,962.267725,13767.830521,-4903.011187
115.605109,-0.000000,16358.551318,-1302.362347
115.605418,2146.597232,10807.006753,153.219100
115.605728,592.164754,10881.027347,2145.067394
115.606037,2368.659014,7328.038826,2298.286494
115.606347,-1924.535449,4145.153275,1532.190996
115.606656,-962.267725,3923.091493,4903.011187
115.606966,-444.123565,8438.347739,0.000000
115.607275,-1036.288319,10955.047942,-7277.907231
115.607585,-1258.350101,12953.603985,-9346.365076
115.607894,-74.020594,9696.697840,-8044.002729
115.608204,-2442.679609,8660.409521,-2374.896044
115.608513,1998.556043,9474.636058,919.314598
115.608823,-1554.432478,6957.935855,1915.238745
115.609132,592.164754,5921.647536,-153.219100
115.609442,2146.597232,4737.318029,1149.143247
115.609751,-3849.070898,4885.359217,2528.115143
115.610060,-962.267725,9326.594869,-383.047749
115.610370,-1480.411884,9992.780217,-6971.469032
115.610679,1036.288319,11991.336260,-9959.241474
115.610989,2146.597232,14211.954086,-10265.679673
115.611298,-2812.782580,10066.800811,-2374.896044
115.611608,-2294.638420,9104.533087,5975.544884
115.611917,74.020594,5329.482782,3600.648841
115.612227,4219.173869,9992.780217,1072.533697
115.612536,2072.576638,7920.203579,4519.963438
115.612846,-3997.112087,8438.347739,4826.401637
115.613155,814.226536,9548.656652,-1685.410096
115.613465,2886.803174,9992.780217,-5056.230287
115.613774,-1702.473667,16728.654289,-8733.488677
115.614084,1628.453072,14137.933492,-9499.584175
115.614393,-222.061783,11991.336260,-6205.373534
115.614703,-1480.411884,9770.718434,-306.438199
115.615012,-370.102971,9474.636058,6894.859482
115.615322,4441.235652,7550.100608,2604.724693
115.615631,888.247130,1406.391290,1378.971896
115.615941,-2072.576638,4737.318029,5209.449386
115.616250,-4589.276840,9030.512492,6665.030833
115.616560,-740.205942,6809.894666,-6052.154434
115.616869,-3701.029710,9696.697840,-7507.735880
115.617179,740.205942,14656.077652,-9576.193725
115.617488,-1406.391290,9696.697840,-10189.070123
115.617798,-1628.453072,9030.512492,-2451.505594
115.618107,1480.411884,9326.594869,4060.306139
115.618417,1258.350101,8586.388927,4366.744339
115.618726,1406.391290,9696.697840,4826.401637
115.619036,2072.576638,5181.441594,-536.266849
115.619345,1702.473667,4441.235652,229.828649
115.619655,3404.947333,9178.553681,3217.601092
115.619964,-3627.009116,13619.789333,-1608.800546
115.620274,4219.173869,15322.262999,-10495.508323
115.620583,-370.102971,15618.345376,-9039.926876
115.620893,-5255.462188,15322.262999,0.000000
115.621202,4145.153275,12287.418637,-995.924147
115.621512,2220.617826,10288.862594,-6435.202183
115.621821,-1258.350101,12287.418637,1991.848295
115.622131,1406.391290,6143.709319,4903.011187
115.622440,666.185348,4811.338623,536.266849
115.622750,-2072.576638,4885.359217,3064.381992
115.623059,-3256.906145,6883.915261,6588.421283
115.623369,-222.061783,10807.006753,-4903.011187
115.623678,3997.112087,9770.718434,-14096.157163
115.623988,-3701.029710,10732.986159,-2757.943793
115.624297,-4663.297435,11843.295072,1455.581446
115.624607,3775.050304,10732.986159,-7660.954980
115.624916,-1480.411884,6957.935855,-3064.381992
115.625226,-74.020594,7698.141797,5898.935335
115.625535,-222.061783,4219.173869,1455.581446
115.625844,-1628.453072,2294.638420,995.924147
115.626154,2220.617826,9992.780217,1149.143247
115.626463,-3108.864956,9400.615463,-229.828649
115.626773,4441.235652,12657.521608,-7967.393179
115.627082,1036.288319,10658.965565,-9729.412825
115.627392,-1628.453072,12287.418637,-3600.648841
115.627701,3923.091493,15988.448347,2681.334243
115.628011,-740.205942,8734.430116,-153.219100
115.628320,2886.803174,12065.356855,4366.744339
115.628630,1184.329507,9030.512492,4443.353888
115.628939,-1184.329507,5403.503377,1838.629195
115.629249,518.144159,6587.832884,2374.896044
115.629558,-1776.494261,10732.986159,-3600.648841
115.629868,1554.432478,13397.727550,-9346.365076
115.630177,1480.411884,14434.015869,-10955.165621
115.630487,-2664.741391,12361.439231,-2987.772442
115.630796,-1554.432478,14137.933492,2068.457845
115.631106,2590.720797,9770.718434,1608.800546
115.631415,444.123565,5847.626942,1302.362347
115.631725,-0.000000,3923.091493,3217.601092
115.632034,-2516.700203,3330.926739,3370.820191
115.632344,740.205942,2368.659014,459.657299
115.632653,-888.247130,9844.739029,-4979.620737
115.632963,-5773.606348,10955.047942,-5209.449386
115.633272,222.061783,13323.706956,-4903.011187
115.633582,-0.000000,14508.036463,-11184.994271
115.633891,-0.000000,10214.842000,-7124.688131
115.634201,370.102971,9326.594869,1225.752797
115.634510,962.267725,8438.347739,5439.278036
115.634820,3997.112087,7698.141797,7890.783629
115.635129,592.164754,3849.070898,3600.648841
115.635439,518.144159,2590.720797,2987.772442
115.635748,-0.000000,4737.318029,2298.286494
115.636058,-10214.842000,9918.759623,-3370.820191
115.636367,1184.329507,14878.139434,-10725.336972
115.636677,2072.576638,15618.345376,-11338.213370
115.636986,-2368.659014,18949.272115,-1685.410096
115.637296,814.226536,13693.809927,1608.800546
115.637605,888.247130,11177.109724,1685.410096
115.637915,1702.473667,13323.706956,1915.238745
115.638224,2368.659014,4293.194464,5515.887586
115.638534,370.102971,2516.700203,3830.477490
115.638843,-518.144159,6587.832884,3753.867940
115.639153,-2368.659014,11769.274478,3753.867940
115.639462,-592.164754,10288.862594,-6511.811733
115.639772,2294.638420,13323.706956,-13713.109414
115.640081,-5033.400406,7624.121203,-2757.943793
115.640391,740.205942,11103.089130,1455.581446
115.640700,2442.679609,7624.121203,-5132.839837
115.641009,-1850.514855,9252.574275,459.657299
115.641319,-1036.288319,5699.585753,5975.544884
115.641628,-148.041188,2368.659014,689.485948
115.641938,-370.102971,8882.471304,-689.485948
115.642247,-3849.070898,9474.636058,919.314598
115.642557,-2146.597232,12435.459826,-3064.381992
115.642866,7031.956449,12065.356855,-10955.165621
115.643176,-1628.453072,11917.315666,-5898.935335
115.643485,1776.494261,13101.645173,4366.744339
115.643795,592.164754,17542.880825,1072.533697
115.644104,6809.894666,9622.677246,1532.190996
115.644414,4293.194464,13693.809927,919.314598
115.644723,-5551.544565,5995.668130,-1608.800546
115.645033,-74.020594,5181.441594,842.705048
115.645342,-1110.308913,12361.439231,-2451.505594
115.645652,-2590.720797,10362.883188,-5132.839837
115.645961,-370.102971,12213.398043,-5515.887586
115.646271,2590.720797,14508.036463,-5209.449386
115.646580,518.144159,13545.768739,-2987.772442
115.646890,-962.267725,9548.656652,2834.553343
115.647199,-1702.473667,5773.606348,4290.134789
115.647509,3997.112087,5625.565159,-1762.019645
115.647818,1850.514855,4589.276840,-1608.800546
115.648128,-4441.235652,3330.926739,5822.325785
115.648437,-2294.638420,6513.812290,2911.162892
115.648747,-814.226536,9696.697840,-6741.640382
115.649056,-3478.967927,9104.533087,-4749.792088
115.649366,-1332.370696,11917.315666,-6894.859482
115.649675,-1332.370696,10807.006753,-8120.612279
115.649985,2886.803174,11103.089130,-3370.820191
115.650294,518.144159,9918.759623,919.314598
115.650604,-1110.308913,12287.418637,1455.581446
115.650913,5699.585753,7328.038826,4060.306139
115.651223,-0.000000,3923.091493,4136.915689
115.651532,-2368.659014,2368.659014,4290.134789
115.651842,-6069.688724,5625.565159,1532.190996
115.652151,-518.144159,7624.121203,-6588.421283
115.652461,3034.844362,14285.974681,-12257.527968
115.652770,-148.041188,17838.963202,-6741.640382
115.653080,-1776.494261,14285.974681,0.000000
115.653389,3775.050304,13249.686362,-7124.688131
115.653699,-0.000000,11029.068536,-1378.971896
115.654008,-0.000000,9474.636058,6435.202183
115.654318,3627.009116,4663.297435,4979.620737
115.654627,-888.247130,4515.256246,-306.438199
115.654937,-2220.617826,7698.141797,4136.915689
115.655246,-2368.659014,11177.109724,536.266849
115.655556,4071.132681,10732.986159,-13406.671215
115.655865,-1036.288319,10214.842000,-7890.783629
115.656174,-2886.803174,13175.665768,-459.657299
115.656484,592.164754,9548.656652,-3983.696590
115.656793,666.185348,7476.080014,-4673.182538
115.657103,-2072.576638,6883.915261,6665.030833
115.657412,-962.267725,3478.967927,5898.935335
115.657722,1628.453072,3849.070898,-995.924147
115.658031,1258.350101,5995.668130,-842.705048
115.658341,-2442.679609,12065.356855,-229.828649
115.658650,-2812.782580,9918.759623,-1532.190996
115.658960,2590.720797,14211.954086,-3064.381992
115.659269,814.226536,11029.068536,-7584.345430
115.659579,6883.915261,17764.942608,-689.485948
115.659888,2738.761985,12583.501014,5592.497135
115.660198,2146.597232,12805.562797,-1149.143247
115.660507,1628.453072,4885.359217,-612.876398
115.660817,-5255.462188,5921.647536,4519.963438
115.661126,-74.020594,8808.450710,4366.744339
115.661436,1628.453072,9400.615463,-3830.477490
115.661745,-222.061783,13693.809927,-8963.317327
115.662055,222.061783,10584.944971,-2911.162892
115.662364,296.082377,16136.489536,-6588.421283
115.662674,-4293.194464,7476.080014,-1532.190996
115.662983,3182.885551,8068.244768,6665.030833
115.663293,740.205942,8734.430116,-3140.991542
115.663602,-0.000000,5477.523971,-1149.143247
115.663912,-0.000000,6809.894666,8273.831378
115.664221,-4811.338623,3627.009116,1685.410096
115.664531,4959.379811,9178.553681,-9193.145976
115.664840,-4441.235652,8438.347739,-5515.887586
115.665150,-6513.812290,9030.512492,-3524.039291
115.665459,592.164754,10658.965565,-7507.735880
115.665769,2516.700203,11029.068536,-8580.269578
115.666078,1628.453072,15396.283594,-1455.581446
115.666388,-666.185348,7476.080014,6511.811733
115.666697,296.082377,9622.677246,7890.783629
115.667007,5847.626942,6587.832884,306.438199
115.667316,2886.803174,5847.626942,-4826.401637
115.667626,-4663.297435,9770.718434,4290.134789
115.667935,-1850.514855,7920.203579,3064.381992
115.668245,5181.441594,15174.221811,-11184.994271
115.668554,2812.782580,12657.521608,-12563.966167
115.668864,-3330.926739,13767.830521,-383.047749
115.669173,-2812.782580,14359.995275,3983.696590
115.669483,5033.400406,9030.512492,-2911.162892
115.669792,-2738.761985,12583.501014,1762.019645
115.670102,3701.029710,10807.006753,4290.134789
115.670411,-0.000000,9548.656652,-4596.572988
115.670720,-2886.803174,3627.009116,1991.848295
115.671030,3478.967927,9400.615463,2145.067394
115.671339,-3997.112087,6069.688724,-8733.488677
115.671649,-222.061783,9104.533087,-4136.915689
115.671958,-2368.659014,12879.583391,-612.876398
115.672268,2516.700203,5995.668130,-7737.564530
115.672577,4219.173869,10436.903782,-4519.963438
115.672887,-9622.677246,5699.585753,8580.269578
115.673196,-1258.350101,7328.038826,4290.134789
115.673506,7550.100608,5773.606348,-7124.688131
115.673815,-370.102971,6291.750507,-3447.429741
115.674125,-5107.421000,11251.130318,5745.716235
115.674434,-4367.215058,7624.121203,0.000000
115.674744,1332.370696,12657.521608,-9116.536426
115.675053,5847.626942,11843.295072,-9576.193725
115.675363,2072.576638,10362.883188,-2374.896044
115.675672,-3108.864956,10732.986159,7967.393179
115.675981,-2220.617826,9844.739029,5132.839837
115.676291,5107.421000,10510.924376,766.095498
115.676600,4219.173869,8068.244768,1915.238745
115.676910,-2368.659014,9622.677246,5669.106685
115.677219,1554.432478,6883.915261,-4060.306139
115.677529,-3849.070898,11103.089130,-7584.345430
115.677838,-1554.432478,12657.521608,-2451.505594
115.678148,1258.350101,13471.748144,-5056.230287
115.678457,-1628.453072,13471.748144,-6205.373534
115.678767,1998.556043,9548.656652,4826.401637
115.679076,4811.338623,15026.180623,2221.676944
115.679386,-518.144159,6513.812290,-2451.505594
115.679695,-1702.473667,5847.626942,9959.241474
115.680005,-1110.308913,4811.338623,5286.058936
115.680314,2368.659014,3997.112087,-8120.612279
115.680624,-296.082377,5255.462188,-1532.190996
115.680933,-12583.501014,7846.182985,1685.410096
115.681242,-814.226536,14211.954086,-10418.898773
115.681552,8734.430116,11547.212695,-16164.615008
115.681861,444.123565,10510.924376,-5286.058936
115.682171,-740.205942,12435.459826,5286.058936
115.682480,-2590.720797,4441.235652,8197.221829
115.682790,4737.318029,7772.162391,5515.887586
115.683099,7105.977043,4811.338623,1149.143247
115.683409,444.123565,11473.192101,2681.334243
115.683718,1702.473667,9104.533087,5822.325785
115.684028,1110.308913,14656.077652,-7584.345430
115.684337,1998.556043,12583.501014,-15934.786358
115.684647,-1702.473667,16654.633695,-9576.193725
115.684956,-2590.720797,13175.665768,-306.438199
115.685266,3552.988522,9548.656652,-2911.162892
115.685575,1628.453072,10881.027347,689.485948
115.685885,296.082377,8290.306550,8273.831378
115.686194,3923.091493,10288.862594,3370.820191
115.686503,-3256.906145,-74.020594,3907.087040
115.686813,2812.782580,4885.359217,2681.334243
115.687122,518.144159,8882.471304,-7890.783629
115.687432,-6143.709319,10214.842000,-8197.221829
115.687741,-888.247130,17542.880825,-3600.648841
115.688051,-0.000000,9622.677246,-9039.926876
115.688360,6513.812290,11547.212695,-7507.735880
115.688670,-4145.153275,6439.791695,6205.373534
115.688979,-6439.791695,3330.926739,7354.516781
115.689289,5773.606348,4589.276840,2221.676944
115.689598,3552.988522,2590.720797,-3830.477490
115.689908,-3627.009116,7105.977043,383.047749
115.690217,-4145.153275,10510.924376,4366.744339
115.690527,-1850.514855,13471.748144,-7201.297681
115.690836,8364.327145,14211.954086,-15168.690860
115.691146,2664.741391,13397.727550,-7967.393179
115.691455,-5107.421000,13101.645173,5515.887586
115.691764,1110.308913,9992.780217,7584.345430
115.692074,7550.100608,10658.965565,-459.657299
115.692383,1332.370696,5995.668130,2068.457845
115.692693,-296.082377,9104.533087,7660.954980
115.693002,-2368.659014,6957.935855,2374.896044
115.693312,666.185348,6883.915261,-4443.353888
115.693621,962.267725,16062.468941,-7814.174080
115.693931,-148.041188,15396.283594,-11797.870669
115.694240,-1628.453072,12731.542202,-8350.440928
115.694550,-740.205942,10658.965565,1762.019645
115.694859,6587.832884,10140.821405,-1378.971896
115.695169,814.226536,3182.885551,459.657299
115.695478,-5551.544565,4219.173869,16471.053207
115.695788,-74.020594,4737.318029,9806.022374
115.696097,3997.112087,-1036.288319,-8350.440928
115.696407,-592.164754,6957.935855,-3830.477490
115.696716,-11695.253884,9252.574275,536.266849
115.697025,-2368.659014,11029.068536,-9806.022374
115.697335,5255.462188,14211.954086,-17926.634653
115.697644,-1184.329507,15026.180623,-12947.013916
115.697954,-2960.823768,9326.594869,4979.620737
115.698263,1036.288319,9326.594869,8733.488677
115.698573,444.123565,8364.327145,3907.087040
115.698882,6883.915261,3849.070898,2681.334243
115.699192,-666.185348,5773.606348,5515.887586
115.699501,-370.102971,2886.803174,6205.373534
115.699811,3627.009116,14434.015869,-5209.449386
115.700120,-4811.338623,12657.521608,-11261.603821
115.700430,888.247130,17320.819043,-9959.241474
115.700739,-0.000000,16876.695478,-5056.230287
115.701049,-2664.741391,14211.954086,-5515.887586
115.701358,4441.235652,12509.480420,-459.657299
115.701668,-444.123565,10066.800811,4826.401637
115.701977,-1258.350101,11547.212695,6971.469032
115.702286,1554.432478,4293.194464,6205.373534
115.702596,3108.864956,5625.565159,-153.219100
115.702905,1924.535449,6143.709319,-3983.696590
115.703215,-7328.038826,7254.018232,3677.258390
115.703524,-5921.647536,13989.892304,-1915.238745
115.703834,3108.864956,14285.974681,-14019.547613
115.704143,3404.947333,10955.047942,-12410.747068
115.704453,-3552.988522,9326.594869,-919.314598
115.704762,-3701.029710,7105.977043,7660.954980
115.705072,-444.123565,4663.297435,3370.820191
115.705381,4737.318029,4663.297435,-459.657299
115.705691,222.061783,2516.700203,3370.820191
115.706000,-4589.276840,2960.823768,8656.879127
115.706310,-3775.050304,7698.141797,612.876398
115.706619,2960.823768,11399.171507,-12870.404366
115.706929,5995.668130,13915.871710,-12793.794817
115.707238,-5255.462188,15618.345376,-3217.601092
115.707547,2812.782580,13323.706956,842.705048
115.707857,6735.874072,14211.954086,-4596.572988
115.708166,-2812.782580,8956.491898,5132.839837
115.708476,2442.679609,9474.636058,12717.185267
115.708785,1628.453072,3849.070898,2451.505594
115.709095,-1110.308913,6217.729913,-2298.286494
115.709404,962.267725,12213.398043,612.876398
115.709714,-7254.018232,9992.780217,-6665.030833
115.710023,296.082377,18505.148550,-11108.384721
115.710333,1850.514855,16506.592507,-8503.660028
115.710642,5181.441594,13471.748144,-10955.165621
115.710952,666.185348,9178.553681,0.000000
115.711261,-7550.100608,4959.379811,16088.005458
115.711571,-1702.473667,592.164754,11261.603821
115.711880,7031.956449,-148.041188,-689.485948
115.712190,-444.123565,1850.514855,-459.657299
115.712499,-7254.018232,3701.029710,4596.572988
115.712808,-4441.235652,10436.903782,-3677.258390
115.713118,2664.741391,13249.686362,-16471.053207
115.713427,1554.432478,16950.716072,-16700.881856
115.713737,-4441.235652,14508.036463,-4290.134789
115.714046,-148.041188,9770.718434,1915.238745
115.714356,3256.906145,10288.862594,153.219100
115.714665,3108.864956,4737.318029,1762.019645
115.714975,2664.741391,2516.700203,10035.851024
115.715284,-3182.885551,2960.823768,10648.727422
115.715594,3478.967927,7624.121203,3064.381992
115.715903,1776.494261,11843.295072,-5592.497135
115.716213,-5625.565159,15618.345376,-9806.022374
115.716522,3330.926739,19393.395680,-11797.870669
115.716832,-2738.761985,14582.057057,-12487.356617
115.717141,3256.906145,12435.459826,-5515.887586
115.717451,518.144159,14137.933492,1762.019645
115.717760,-3182.885551,9622.677246,5975.544884
115.718070,3404.947333,7920.203579,8044.002729
115.718379,1998.556043,4663.297435,3600.648841
115.718688,1110.308913,2294.638420,-229.828649
115.718998,-4293.194464,8660.409521,2834.553343
115.719307,-6883.915261,7698.141797,-1608.800546
115.719617,1184.329507,13101.645173,-13023.623466
115.719926,2516.700203,10510.924376,-14019.547613
115.720236,-3552.988522,7698.141797,-4519.963438
115.720545,-3775.050304,8586.388927,2145.067394
115.720855,-3404.947333,8290.306550,1838.629195
115.721164,1258.350101,8882.471304,0.000000
115.721474,2294.638420,4441.235652,2145.067394
115.721783,74.020594,3034.844362,4673.182538
115.722093,-148.041188,8586.388927,1378.971896
115.722402,-740.205942,9844.739029,-3370.820191
115.722712,1184.329507,12583.501014,-8120.612279
115.723021,962.267725,13767.830521,-6511.811733
115.723331,-3256.906145,13915.871710,-4826.401637
115.723640,4589.276840,14285.974681,-2374.896044
115.723949,-888.247130,11991.336260,2221.676944
115.724259,1924.535449,13175.665768,4443.353888
115.724568,4737.318029,9104.533087,2298.286494
115.724878,370.102971,5551.544565,612.876398
115.725187,296.082377,5699.585753,1455.581446
115.725497,-4959.379811,10732.986159,459.657299
115.725806,-4367.215058,9770.718434,-3677.258390
115.726116,5551.544565,15470.304188,-6894.859482
115.726425,2886.803174,14508.036463,-12717.185267
115.726735,1702.473667,8882.471304,-3217.601092
115.727044,-4811.338623,9992.780217,9576.193725
115.727354,-6143.709319,8438.347739,7814.174080
115.727663,7698.141797,8734.430116,-2681.334243
115.727973,888.247130,370.102971,-2068.457845
115.728282,-5181.441594,-74.020594,6128.763984
115.728592,-4441.235652,3108.864956,4519.963438
115.728901,-8882.471304,9844.739029,-4443.353888
115.729210,4145.153275,12361.439231,-9882.631924
115.729520,296.082377,12065.356855,-7967.393179
115.729829,222.061783,15618.345376,-6281.983084
115.730139,1036.288319,12805.562797,-919.314598
115.730448,-2368.659014,12213.398043,3064.381992
115.730758,5329.482782,10214.842000,3600.648841
115.731067,5033.400406,8142.265362,3447.429741
115.731377,-814.226536,4293.194464,3907.087040
115.731686,2368.659014,7254.018232,3983.696590
115.731996,-2442.679609,10584.944971,-1378.971896
115.732305,2664.741391,11769.274478,-6818.249932
115.732615,1554.432478,15618.345376,-8044.002729
115.732924,1332.370696,14952.160028,-5592.497135
115.733234,-296.082377,14285.974681,-4290.134789
115.733543,-2590.720797,14878.139434,-1762.019645
115.733853,-1036.288319,11029.068536,3294.210641
115.734162,6291.750507,6735.874072,-1455.581446
115.734471,-666.185348,2590.720797,-1608.800546
115.734781,-3849.070898,4737.318029,7814.174080
115.735090,-4811.338623,9770.718434,9269.755526
115.735400,-1554.432478,7179.997637,-5286.058936
115.735709,5107.421000,10288.862594,-9882.631924
115.736019,-1110.308913,9548.656652,-8810.098227
115.736328,-2516.700203,9030.512492,-5286.058936
115.736638,-3627.009116,11769.274478,-1608.800546
115.736947,-3701.029710,8882.471304,-383.047749
115.737257,3404.947333,7105.977043,-2145.067394
115.737566,1258.350101,4737.318029,1991.848295
115.737876,-1850.514855,5625.565159,4366.744339
115.738185,-2072.576638,5329.482782,919.314598
115.738495,-0.000000,9178.553681,-3064.381992
115.738804,1184.329507,10584.944971,-4903.011187
115.739114,3627.009116,11695.253884,-6665.030833
115.739423,888.247130,12435.459826,-4443.353888
115.739732,1036.288319,16284.530724,-536.266849
115.740042,962.267725,13397.727550,459.657299
115.740351,2886.803174,8586.388927,-383.047749
115.740661,3034.844362,8290.306550,1762.019645
115.740970,-296.082377,7179.997637,1378.971896
115.741280,740.205942,8364.327145,-689.485948
115.741589,-4589.276840,9474.636058,-2145.067394
115.741899,-814.226536,12435.459826,-5056.230287
115.742208,3182.885551,13545.768739,-11261.603821
115.742518,-1036.288319,10732.986159,-8427.050478
115.742827,-1554.432478,11473.192101,4443.353888
115.743137,-2590.720797,13027.624579,7507.735880
115.743446,962.267725,7698.141797,689.485948
115.743756,2368.659014,3849.070898,612.876398
115.744065,-3997.112087,666.185348,2451.505594
115.744375,-1406.391290,-444.123565,766.095498
115.744684,-4367.215058,7772.162391,-3753.867940
115.744993,-5107.421000,8216.285956,-5669.106685
115.745303,3034.844362,9844.739029,-8120.612279
115.745612,-74.020594,12731.542202,-7967.393179
115.745922,-222.061783,12361.439231,766.095498
115.746231,3478.967927,12435.459826,1762.019645
115.746541,-0.000000,6217.729913,0.000000
115.746850,6809.894666,8882.471304,3294.210641
115.747160,962.267725,7254.018232,4290.134789
115.747469,1776.494261,7179.997637,2221.676944
115.747779,1628.453072,9622.677246,76.609550
115.748088,-1998.556043,13397.727550,-5056.230287
115.748398,-1702.473667,12583.501014,-8197.221829
115.748707,4145.153275,12509.480420,-7507.735880
115.749017,-3923.091493,15840.407159,-4903.011187
115.749326,2146.597232,15766.386565,1225.752797
115.749636,-1406.391290,9770.718434,3217.601092
115.749945,1332.370696,9400.615463,2911.162892
115.750254,4885.359217,5847.626942,-1532.190996
115.750564,-1110.308913,1702.473667,-2221.676944
115.750873,-3256.906145,8068.244768,4826.401637
115.751183,-5107.421000,8364.327145,3677.258390
115.751492,-0.000000,8586.388927,-7507.735880
115.751802,5329.482782,7402.059420,-7814.174080
115.752111,-5033.400406,7105.977043,-2068.457845
115.752421,-2516.700203,5995.668130,2068.457845
115.752730,-1998.556043,5699.585753,1378.971896
115.753040,-1332.370696,8586.388927,-1149.143247
115.753349,2516.700203,8216.285956,-612.876398
115.753659,-2294.638420,7402.059420,383.047749
115.753968,1406.391290,10066.800811,-306.438199
115.754278,-1184.329507,11991.336260,-459.657299
115.754587,-2442.679609,12065.356855,612.876398
115.754897,4441.235652,12139.377449,-6971.469032
115.755206,3701.029710,11843.295072,-6358.592633
115.755515,1110.308913,12361.439231,1608.800546
115.755825,444.123565,14211.954086,4290.134789
115.756134,-2368.659014,11917.315666,4749.792088
115.756444,5329.482782,9326.594869,459.657299
115.756753,1036.288319,7994.224174,-612.876398
115.757063,814.226536,5847.626942,-1149.143247
115.757372,-2294.638420,12731.542202,612.876398
115.757682,-8142.265362,10436.903782,0.000000
115.757991,5403.503377,10732.986159,-8733.488677
115.758301,3256.906145,9918.759623,-11951.089769
115.758610,-3404.947333,7846.182985,-1455.581446
115.758920,-2516.700203,12065.356855,7354.516781
115.759229,-1850.514855,10881.027347,4596.572988
115.759539,2738.761985,9548.656652,-459.657299
115.759848,2886.803174,4737.318029,306.438199
115.760158,-4071.132681,-0.000000,-1608.800546
115.760467,-3404.947333,2146.597232,1685.410096
115.760776,-7550.100608,8660.409521,-1225.752797
115.761086,-1332.370696,8142.265362,-8733.488677
115.761395,6143.709319,14582.057057,-11797.870669
115.761705,-1702.473667,12065.356855,-3907.087040
115.762014,2294.638420,13323.706956,3370.820191
115.762324,-814.226536,8734.430116,5209.449386
115.762633,2664.741391,8438.347739,1685.410096
115.762943,6291.750507,5995.668130,2757.943793
115.763252,-0.000000,4811.338623,5822.325785
115.763562,-740.205942,6809.894666,4213.525239
115.763871,-7105.977043,13619.789333,1378.971896
115.764181,-1628.453072,15026.180623,-9116.536426
115.764490,5403.503377,17616.901420,-15858.176809
115.764800,4219.173869,16876.695478,-11874.480219
115.765109,-370.102971,14730.098246,-2451.505594
115.765419,370.102971,12435.459826,4136.915689
115.765728,-3701.029710,7105.977043,8273.831378
115.766037,4737.318029,5921.647536,7124.688131
115.766347,2368.659014,-1850.514855,2221.676944
115.766656,-4515.256246,1406.391290,3447.429741
115.766966,-3552.988522,10214.842000,5056.230287
115.767275,-3997.112087,11991.336260,-7277.907231
115.767585,7772.162391,13471.748144,-20148.311597
115.767894,296.082377,9770.718434,-10418.898773
115.768204,-5477.523971,7105.977043,-1991.848295
115.768513,-1628.453072,11029.068536,4596.572988
115.768823,-1776.494261,4811.338623,4596.572988
115.769132,518.144159,4515.256246,4366.744339
115.769442,4515.256246,4885.359217,3217.601092
115.769751,-1258.350101,5625.565159,1685.410096
115.770061,-2220.617826,13397.727550,1532.190996
115.770370,-2072.576638,10732.986159,-2987.772442
115.770680,4219.173869,12953.603985,-13559.890315
115.770989,3775.050304,13397.727550,-9882.631924
115.771298,-1850.514855,9326.594869,995.924147
115.771608,1776.494261,15100.201217,6358.592633
115.771917,3330.926739,16210.510130,1225.752797
115.772227,3330.926739,10214.842000,919.314598
115.772536,4293.194464,5107.421000,2374.896044
115.772846,-1036.288319,4885.359217,-383.047749
115.773155,-2146.597232,9992.780217,-2145.067394
115.773464,-3404.947333,13101.645173,-919.314598
115.773774,-370.102971,13323.706956,-6894.859482
115.774083,3923.091493,12287.418637,-11491.432470
115.774392,-0.000000,9252.574275,-6205.373534
115.774702,148.041188,6513.812290,7048.078582
115.775011,1924.535449,8808.450710,7354.516781
115.775321,-3849.070898,6217.729913,4903.011187
115.775630,2220.617826,5033.400406,6205.373534
115.775939,1332.370696,2220.617826,-2528.115143
115.776249,-4515.256246,4663.297435,-3830.477490
115.776558,-5699.585753,10881.027347,1991.848295
115.776867,-5625.565159,8808.450710,-7890.783629
115.777177,4737.318029,13989.892304,-17160.539155
115.777486,3627.009116,12287.418637,-7890.783629
115.777796,-6291.750507,10066.800811,3600.648841
115.778105,5477.523971,10436.903782,5056.230287
115.778414,2960.823768,8660.409521,1072.533697
115.778724,2664.741391,4145.153275,4136.915689
115.779033,3034.844362,4219.173869,10418.898773
115.779342,-592.164754,4515.256246,2221.676944
115.779652,-7031.956449,14063.912898,-1072.533697
115.779961,-6217.729913,14952.160028,-4903.011187
115.780271,5847.626942,11991.336260,-13023.623466
115.780580,2812.782580,19467.416275,-11184.994271
115.780889,-2072.576638,16580.613101,-5362.668486
115.781199,2886.803174,10658.965565,-3524.039291
115.781508,-888.247130,10732.986159,3294.210641
115.781817,1628.453072,6883.915261,11184.994271
115.782127,3849.070898,4515.256246,6281.983084
115.782436,-74.020594,592.164754,2145.067394
115.782746,740.205942,8216.285956,3907.087040
115.783055,-7031.956449,4737.318029,0.000000
115.783364,-148.041188,8438.347739,-8733.488677
115.783674,1480.411884,13767.830521,-9806.022374
115.783983,-2590.720797,11547.212695,-10648.727422
115.784293,-444.123565,12953.603985,-1302.362347
115.784602,-3627.009116,11917.315666,1302.362347
115.784911,-2368.659014,8512.368333,-383.047749
115.785221,6513.812290,5255.462188,306.438199
115.785530,-888.247130,1554.432478,1455.581446
115.785839,-3627.009116,5699.585753,6128.763984
115.786149,5625.565159,5995.668130,1838.629195
115.786458,-2072.576638,10288.862594,-7890.783629
115.786768,2590.720797,11695.253884,-7354.516781
115.787077,3552.988522,16136.489536,-3217.601092
115.787386,-2294.638420,13915.871710,-7737.564530
115.787696,3330.926739,18135.045579,-3370.820191
115.788005,1184.329507,14952.160028,3753.867940
115.788314,1850.514855,6587.832884,766.095498
115.788624,6069.688724,6735.874072,-153.219100
115.788933,-3775.050304,3923.091493,0.000000
115.789243,-2516.700203,8734.430116,5362.668486
115.789552,-1924.535449,12805.562797,-2145.067394
115.789861,2590.720797,11843.295072,-11261.603821
115.790171,3034.844362,17320.819043,-10725.336972
115.790480,-2590.720797,8364.327145,-5898.935335
115.790789,1184.329507,9252.574275,-1685.410096
115.791099,-296.082377,9326.594869,1608.800546
115.791408,-4589.276840,4737.318029,9806.022374
115.791718,2368.659014,3330.926739,3983.696590
115.792027,2220.617826,-2812.782580,-3830.477490
115.792336,-2220.617826,5255.462188,2528.115143
115.792646,-9030.512492,8142.265362,6818.249932
115.792955,-4589.276840,10881.027347,-9499.584175
115.793264,7550.100608,12953.603985,-21144.235745
115.793574,-1702.473667,12583.501014,-10648.727422
115.793883,-2220.617826,15248.242405,919.314598
115.794193,5181.441594,11917.315666,1225.752797
115.794502,-74.020594,11769.274478,2145.067394
115.794811,4885.359217,7624.121203,8963.317327
115.795121,4885.359217,1554.432478,7124.688131
115.795430,-888.247130,1776.494261,2451.505594
115.795739,-1406.391290,14063.912898,4443.353888
115.796049,4145.153275,12287.418637,-9806.022374
115.796358,6365.771101,17246.798449,-19305.606550
115.796668,-592.164754,16728.654289,-11261.603821
115.796977,-4737.318029,14878.139434,76.609550
115.797286,4145.153275,14359.995275,-1225.752797
115.797596,148.041188,10955.047942,689.485948
115.797905,666.185348,8216.285956,8810.098227
115.798214,2960.823768,3552.988522,6128.763984
115.798524,1406.391290,-1850.514855,459.657299
115.798833,-3182.885551,5403.503377,8350.440928
115.799143,-9178.553681,8956.491898,2834.553343
115.799452,518.144159,12361.439231,-8580.269578
115.799761,2886.803174,13989.892304,-15015.471761
115.800071,-1036.288319,8438.347739,-11414.822920
115.800380,-740.205942,11103.089130,612.876398
115.800689,-4367.215058,9474.636058,6741.640382
115.800999,-1776.494261,6735.874072,3524.039291
115.801308,8216.285956,5181.441594,-1455.581446
115.801618,-1628.453072,1776.494261,766.095498
115.801927,-3849.070898,6957.935855,8503.660028
115.802236,-1184.329507,11843.295072,1302.362347
115.802546,-1036.288319,12065.356855,-11491.432470
115.802855,6143.709319,13619.789333,-9729.412825
115.803165,-0.000000,11399.171507,-4826.401637
115.803474,-518.144159,11769.274478,-2604.724693
115.803783,-1406.391290,16136.489536,4136.915689
115.804093,-2368.659014,15914.427753,5515.887586
115.804402,9252.574275,8512.368333,-3140.991542
115.804711,3256.906145,3627.009116,-4443.353888
115.805021,-7105.977043,4959.379811,4903.011187
115.805330,-2146.597232,8956.491898,5286.058936
115.805640,-0.000000,11621.233289,-6894.859482
115.805949,1184.329507,17616.901420,-3983.696590
115.806258,1998.556043,10214.842000,-3677.258390
115.806568,-1110.308913,6809.894666,-4903.011187
115.806877,-148.041188,10214.842000,-536.266849
115.807186,-5699.585753,9178.553681,6281.983084
115.807496,-1258.350101,6217.729913,6052.154434
115.807805,6439.791695,4367.215058,-2374.896044
115.808115,-592.164754,3256.906145,-2681.334243
115.808424,-7031.956449,6069.688724,7354.516781
115.808733,-10288.862594,7698.141797,5132.839837
115.809043,3404.947333,9178.553681,-13559.890315
115.809352,6439.791695,11029.068536,-18309.682402
115.809661,-3552.988522,10436.903782,-5286.058936
115.809971,-3775.050304,12213.398043,5286.058936
115.810280,3552.988522,13545.768739,-1608.800546
115.810590,2664.741391,11843.295072,-1455.581446
115.810899,8142.265362,6513.812290,5056.230287
115.811208,2886.803174,2516.700203,4366.744339
115.811518,-3182.885551,2072.576638,4290.134789
115.811827,-5403.503377,8734.430116,4443.353888
115.812136,-1480.411884,10658.965565,-11874.480219
115.812446,8216.285956,12361.439231,-17390.367805
115.812755,-148.041188,16136.489536,-3600.648841
115.813065,-6957.935855,16802.674883,3600.648841
115.813374,5773.606348,17987.004391,-5132.839837
115.813683,-1036.288319,8734.430116,-4443.353888
115.813993,1554.432478,8586.388927,5439.278036
115.814302,1998.556043,-296.082377,5898.935335
115.814611,-518.144159,-0.000000,-766.095498
115.814921,-444.123565,9992.780217,3753.867940
115.815230,-10658.965565,7328.038826,3677.258390
115.815540,2886.803174,11621.233289,-4903.011187
115.815849,4885.359217,9252.574275,-13713.109414
115.816158,-74.020594,11399.171507,-12487.356617
115.816468,-7105.977043,12583.501014,5669.106685
115.816777,-5107.421000,8438.347739,6971.469032
115.817086,4885.359217,6439.791695,-8273.831378
115.817396,3923.091493,4293.194464,-7584.345430
115.817705,-5181.441594,4515.256246,8503.660028
115.818015,-1776.494261,6735.874072,9269.755526
115.818324,2960.823768,11177.109724,-3753.867940
115.818633,-814.226536,12509.480420,-7354.516781
115.818943,3404.947333,13101.645173,-4903.011187
115.819252,3330.926739,11325.150913,-5592.497135
115.819561,-0.000000,21317.931130,-4673.182538
115.819871,5107.421000,16728.654289,3294.210641
115.820180,3108.864956,12139.377449,-3600.648841
115.820490,3997.112087,6883.915261,-4290.134789
115.820799,-3034.844362,4515.256246,7584.345430
115.821108,-3552.988522,5403.503377,5975.544884
115.821418,-0.000000,11621.233289,-4519.963438
115.821727,-1332.370696,14063.912898,-6511.811733
115.822037,-740.205942,9030.512492,-3447.429741
115.822346,1628.453072,10436.903782,-5056.230287
115.822655,518.144159,11325.150913,-5669.106685
115.822965,-148.041188,10436.903782,4290.134789
115.823274,-5255.462188,5033.400406,11338.213370
115.823583,3923.091493,6513.812290,-229.828649
115.823893,6439.791695,2738.761985,-9652.803275
115.824202,-8438.347739,3849.070898,2834.553343
115.824512,-8364.327145,8068.244768,8733.488677
115.824821,-2812.782580,9770.718434,-8350.440928
115.825130,7179.997637,13619.789333,-19535.435199
115.825440,-592.164754,9178.553681,-6358.592633
115.825749,-3775.050304,10584.944971,1302.362347
115.826058,2960.823768,11399.171507,-995.924147
115.826368,-592.164754,14137.933492,459.657299
115.826677,2886.803174,9474.636058,3524.039291
115.826987,9252.574275,3478.967927,2451.505594
115.827296,-5773.606348,7031.956449,995.924147
115.827605,-3108.864956,5255.462188,6511.811733
115.827915,296.082377,13915.871710,-4443.353888
115.828224,-518.144159,9696.697840,-17160.539155
115.828533,3034.844362,15470.304188,-7890.783629
115.828843,-5329.482782,15692.365970,-2145.067394
115.829152,1184.329507,11917.315666,-6511.811733
115.829462,3404.947333,12731.542202,1072.533697
115.829771,-5403.503377,10214.842000,9729.412825
115.830080,3701.029710,2146.597232,5439.278036
115.830390,5625.565159,3701.029710,-1072.533697
115.830699,-2368.659014,4811.338623,-2145.067394
115.831008,-9696.697840,6291.750507,11031.775171
115.831318,-5699.585753,12657.521608,-229.828649
115.831627,10066.800811,8734.430116,-19228.997000
115.831937,2590.720797,11695.253884,-12180.918418
115.832246,-9474.636058,9178.553681,9346.365076
115.832555,-6957.935855,9474.636058,7354.516781
115.832865,3182.885551,9844.739029,-6818.249932
115.833174,5699.585753,4293.194464,-5286.058936
115.833483,444.123565,6661.853478,2374.896044
115.833793,-1776.494261,4737.318029,4060.306139
115.834102,740.205942,11991.336260,-1302.362347
115.834412,-4737.318029,11695.253884,-2374.896044
115.834721,5477.523971,10066.800811,-6128.763984
115.835030,3923.091493,10732.986159,-8886.707777
115.835340,-2072.576638,13027.624579,-76.609550
115.835649,2220.617826,16432.571912,6052.154434
115.835958,-444.123565,11177.109724,-3753.867940
115.836268,4071.132681,11177.109724,-1302.362347
115.836577,1110.308913,8956.491898,4903.011187
115.836887,-2072.576638,4737.318029,-3064.381992
115.837196,2368.659014,12287.418637,-2528.115143
115.837505,-6513.812290,16062.468941,2451.505594
115.837815,-1628.453072,10140.821405,-4673.182538
115.838124,9030.512492,10140.821405,-14096.157163
115.838434,-888.247130,6809.894666,-9806.022374
115.838743,-7402.059420,6513.812290,12947.013916
115.839052,-3701.029710,8512.368333,15475.129060
115.839362,2072.576638,6883.915261,-4060.306139
115.839671,8808.450710,3404.947333,-3753.867940
115.839980,-0.000000,3478.967927,7890.783629
115.840290,-11547.212695,4145.153275,7890.783629
115.840599,-4071.132681,7328.038826,-1838.629195
115.840909,-1184.329507,13619.789333,-15704.957709
115.841218,4589.276840,12361.439231,-18769.339701
115.841527,222.061783,12287.418637,-6281.983084
115.841837,1998.556043,15248.242405,2298.286494
115.842146,-0.000000,12657.521608,4290.134789
115.842455,4219.173869,11103.089130,8503.660028
115.842765,4441.235652,4737.318029,4903.011187
115.843074,5403.503377,1554.432478,536.266849
115.843384,-148.041188,5551.544565,5669.106685
115.843693,-3108.864956,14359.995275,-1072.533697
115.844002,-296.082377,16210.510130,-11568.042020
115.844312,2516.700203,14804.118840,-11184.994271
115.844621,2516.700203,14656.077652,-12180.918418
115.844930,3627.009116,9992.780217,-8886.707777
115.845240,-4441.235652,10214.842000,3677.258390
115.845549,-5477.523971,9844.739029,12640.575717
115.845859,1036.288319,3923.091493,4136.915689
115.846168,11029.068536,5107.421000,-3677.258390
115.846477,-2072.576638,888.247130,4213.525239
115.846787,-8882.471304,6883.915261,12180.918418
115.847096,-2886.803174,10881.027347,-1225.752797
115.847405,2368.659014,10214.842000,-17466.977354
115.847715,2368.659014,10658.965565,-13789.718964
115.848024,-5847.626942,10807.006753,-1762.019645
115.848334,-3478.967927,7698.141797,1608.800546
115.848643,-0.000000,8956.491898,3140.991542
115.848952,1924.535449,7105.977043,1072.533697
115.849262,4663.297435,4515.256246,229.828649
115.849571,1332.370696,4663.297435,5056.230287
115.849880,-4885.359217,5699.585753,5975.544884
115.850190,-962.267725,11991.336260,0.000000
115.850499,2960.823768,14137.933492,-13100.233016
115.850809,2738.761985,13471.748144,-10342.289223
115.851118,2146.597232,18801.230927,-3140.991542
115.851427,2368.659014,14804.118840,-5056.230287
115.851737,4663.297435,13471.748144,-2374.896044
115.852046,-2812.782580,7179.997637,8733.488677
115.852355,-0.000000,5033.400406,7890.783629
115.852665,6883.915261,5107.421000,-1072.533697
115.852974,-2960.823768,5995.668130,536.266849
115.853284,-7105.977043,7698.141797,7814.174080
115.853593,-1036.288319,14508.036463,-6281.983084
115.853902,7105.977043,13027.624579,-23825.569988
115.854212,2220.617826,12139.377449,-11338.213370
115.854521,-9992.780217,9770.718434,9039.926876
115.854830,-962.267725,8586.388927,7431.126331
115.855140,4219.173869,9474.636058,1149.143247
115.855449,1406.391290,5403.503377,5515.887586
115.855759,444.123565,4293.194464,8350.440928
115.856068,-0.000000,-2072.576638,3524.039291
115.856377,-8290.306550,3552.988522,-536.266849
115.856687,-4737.318029,13619.789333,-6205.373534
115.856996,2146.597232,12731.542202,-17237.148705
115.857306,2146.597232,16358.551318,-13636.499864
115.857615,-1628.453072,15766.386565,995.924147
115.857924,2368.659014,9622.677246,1302.362347
115.858234,5921.647536,10584.944971,-1072.533697
115.858543,-518.144159,5033.400406,10955.165621
115.858852,6513.812290,5403.503377,14862.252661
115.859162,4663.297435,6883.915261,-919.314598
115.859471,1998.556043,6513.812290,-4519.963438
115.859781,-3478.967927,11843.295072,1915.238745
115.860090,-3330.926739,16580.613101,-8810.098227
115.860399,5033.400406,14508.036463,-17083.929605
115.860709,-1258.350101,17764.942608,-6818.249932
115.861018,-2812.782580,14211.954086,1455.581446
115.861327,1554.432478,10510.924376,0.000000
115.861637,-740.205942,8734.430116,6358.592633
115.861946,2072.576638,4515.256246,8197.221829
115.862256,2960.823768,666.185348,6971.469032
115.862565,-4219.173869,592.164754,3217.601092
115.862874,-2368.659014,4145.153275,4290.134789
115.863184,-2072.576638,5329.482782,-2374.896044
115.863493,-1776.494261,11399.171507,-10189.070123
115.863802,-222.061783,10436.903782,-6665.030833
115.864112,-4663.297435,10807.006753,-4826.401637
115.864421,222.061783,9844.739029,-5898.935335
115.864731,3775.050304,12361.439231,-3370.820191
115.865040,-296.082377,8290.306550,1685.410096
115.865349,-1036.288319,5699.585753,7354.516781
115.865659,5995.668130,6587.832884,6281.983084
115.865968,-1258.350101,2960.823768,3677.258390
115.866277,-3552.988522,7402.059420,2528.115143
115.866587,-1036.288319,15322.262999,-3140.991542
115.866896,3627.009116,14063.912898,-16088.005458
115.867206,6513.812290,17764.942608,-15628.348159
115.867515,-2590.720797,11695.253884,-2681.334243
115.867824,2664.741391,16136.489536,4366.744339
115.868134,296.082377,11991.336260,3370.820191
115.868443,3256.906145,6587.832884,4903.011187
115.868752,-1406.391290,1110.308913,6281.983084
115.869062,-4145.153275,148.041188,3140.991542
115.869371,-4293.194464,6143.709319,-459.657299
115.869681,-2738.761985,13471.748144,-8886.707777
115.869990,-0.000000,11251.130318,-14479.204912
115.870299,74.020594,12213.398043,-7354.516781
115.870609,-148.041188,10732.986159,-2451.505594
115.870918,-1110.308913,10510.924376,1072.533697
115.871228,-3404.947333,10362.883188,9346.365076
115.871537,666.185348,1036.288319,9269.755526
115.871846,5107.421000,-518.144159,2145.067394
115.872156,-148.041188,-962.267725,1072.533697
115.872465,-4737.318029,4367.215058,4213.525239
115.872775,-2368.659014,13397.727550,-6435.202183
115.873084,-74.020594,11843.295072,-12947.013916
115.873393,4885.359217,18505.148550,-8886.707777
115.873703,1702.473667,15026.180623,-12257.527968
115.874012,2516.700203,12065.356855,-3907.087040
115.874322,-2368.659014,14804.118840,11721.261119
115.874631,2442.679609,8216.285956,4366.744339
115.874940,11621.233289,4885.359217,-3524.039291
115.875250,3923.091493,5329.482782,7737.564530
115.875559,-4811.338623,7179.997637,13100.233016
115.875869,296.082377,14730.098246,-1072.533697
115.876178,222.061783,12805.562797,-16547.662757
115.876487,-2146.597232,12805.562797,-10801.946522
115.876797,1406.391290,17394.839637,-7814.174080
115.877106,814.226536,8956.491898,-10112.460574
115.877416,-6513.812290,16136.489536,2068.457845
115.877725,-3182.885551,8216.285956,12104.308868
115.878035,7031.956449,3182.885551,536.266849
115.878344,3552.988522,1110.308913,-766.095498
115.878653,-4367.215058,-888.247130,13483.280765
115.878963,-3478.967927,5403.503377,9729.412825
115.879272,-1332.370696,6957.935855,-7124.688131
115.879582,592.164754,8808.450710,-12563.966167
115.879891,-740.205942,9770.718434,-9499.584175
115.880200,-666.185348,9844.739029,-12027.699319
115.880510,-592.164754,10955.047942,-1225.752797
115.880819,-4441.235652,14063.912898,7048.078582
115.881129,3849.070898,8142.265362,459.657299
115.881438,6883.915261,5477.523971,-1378.971896
115.881747,2368.659014,5625.565159,5898.935335
115.882057,-7550.100608,6365.771101,9346.365076
115.882366,-1332.370696,14137.933492,-1455.581446
115.882676,7031.956449,13915.871710,-17007.320056
115.882985,4367.215058,15840.407159,-16317.834107
115.883295,-370.102971,15988.448347,-1532.190996
115.883604,-1554.432478,15692.365970,3294.210641
115.883913,1628.453072,17764.942608,-919.314598
115.884223,1776.494261,8364.327145,2221.676944
115.884532,6217.729913,4441.235652,5132.839837
115.884842,-2072.576638,2368.659014,2068.457845
115.885151,-3923.091493,2220.617826,5209.449386
115.885460,-4441.235652,8068.244768,3677.258390
115.885770,-296.082377,7105.977043,-10955.165621
115.886079,3256.906145,7402.059420,-10342.289223
115.886389,-3108.864956,9770.718434,-1762.019645
115.886698,-2368.659014,10658.965565,459.657299
115.887007,-1702.473667,12435.459826,3524.039291
115.887317,-2590.720797,9548.656652,2987.772442
115.887626,4959.379811,5255.462188,-2834.553343
115.887936,3330.926739,3627.009116,-1532.190996
115.888245,-4367.215058,4293.194464,6818.249932
115.888554,-3108.864956,8586.388927,4213.525239
115.888864,-1998.556043,12287.418637,-9729.412825
115.889173,2294.638420,7179.997637,-10418.898773
115.889483,2220.617826,11991.336260,-5669.106685
115.889792,-1998.556043,12361.439231,-2451.505594
115.890102,370.102971,15766.386565,2145.067394
115.890411,5847.626942,15914.427753,-1608.800546
115.890720,5403.503377,9770.718434,-4903.011187
115.891030,3182.885551,8216.285956,4596.572988
115.891339,-74.020594,9104.533087,7124.688131
115.891649,888.247130,4959.379811,2374.896044
115.891958,888.247130,14211.954086,-689.485948
115.892267,-3775.050304,10732.986159,-2987.772442
115.892577,2220.617826,14878.139434,-9576.193725
115.892886,-0.000000,12731.542202,-8656.879127
115.893196,-3923.091493,10807.006753,-1149.143247
115.893505,-2664.741391,14508.036463,306.438199
115.893814,962.267725,11769.274478,-3983.696590
115.894124,3404.947333,4811.338623,0.000000
115.894433,-518.144159,4367.215058,6741.640382
115.894743,-4071.132681,2072.576638,10265.679673
115.895052,-2960.823768,2442.679609,5745.716235
115.895362,-814.226536,2368.659014,-4519.963438
115.895671,1406.391290,7328.038826,-12104.308868
115.895980,-0.000000,10214.842000,-7354.516781
115.896290,-3404.947333,9548.656652,-3370.820191
115.896599,-1036.288319,15988.448347,0.000000
115.896909,3627.009116,14878.139434,-2604.724693
115.897218,7031.956449,8734.430116,-2298.286494
115.897527,-814.226536,11547.212695,6511.811733
115.897837,-1406.391290,5403.503377,8810.098227
115.898146,1332.370696,6143.709319,-1378.971896
115.898456,1036.288319,9622.677246,-7660.954980
115.898765,1258.350101,13619.789333,-9652.803275
115.899074,2886.803174,14211.954086,-7967.393179
115.899384,-370.102971,16062.468941,-5515.887586
115.899693,444.123565,17690.922014,919.314598
115.900003,888.247130,11325.150913,0.000000
115.900312,-1036.288319,8438.347739,0.000000
115.900621,592.164754,8290.306550,5515.887586
115.900931,-74.020594,4589.276840,3140.991542
115.901240,-1702.473667,2812.782580,306.438199
115.901550,-3923.091493,6883.915261,-2374.896044
115.901859,-2368.659014,9104.533087,-4596.572988
115.902169,3552.988522,10584.944971,-8886.707777
115.902478,-740.205942,9326.594869,-6358.592633
115.902787,-3034.844362,7328.038826,2374.896044
115.903097,296.082377,9548.656652,4290.134789
115.903406,-0.000000,6661.853478,-766.095498
115.903716,2516.700203,6809.894666,2145.067394
115.904025,-222.061783,4737.318029,5439.278036
115.904334,-1110.308913,7105.977043,1532.190996
115.904644,-1628.453072,8956.491898,-3294.210641
115.904953,-1924.535449,8956.491898,-7814.174080
115.905263,1184.329507,14211.954086,-10035.851024
115.905572,1258.350101,15174.221811,-6511.811733
115.905881,1110.308913,14285.974681,-3677.258390
115.906191,2812.782580,13767.830521,-459.657299
115.906500,-0.000000,13841.851115,3064.381992
115.906810,1850.514855,13027.624579,4903.011187
115.907119,5255.462188,8586.388927,1455.581446
115.907428,2220.617826,6883.915261,-1685.410096
115.907738,-3701.029710,11325.150913,2298.286494
115.908047,-2220.617826,10955.047942,-2221.676944
115.908357,1258.350101,8808.450710,-10342.289223
115.908666,1480.411884,12805.562797,-6511.811733
115.908976,-3775.050304,8142.265362,536.266849
115.909285,-1258.350101,5329.482782,2145.067394
115.909594,-370.102971,9622.677246,459.657299
115.909904,-74.020594,7402.059420,1072.533697
115.910213,1924.535449,9474.636058,2298.286494
115.910523,296.082377,6957.935855,2221.676944
115.910832,-1184.329507,5403.503377,1762.019645
115.911141,-3849.070898,7920.203579,-612.876398
115.911451,-1924.535449,6661.853478,-8656.879127
115.911760,296.082377,10140.821405,-10189.070123
115.912070,-1110.308913,10955.047942,-5669.106685
115.912379,222.061783,7402.059420,459.657299
115.912688,1258.350101,12731.542202,2374.896044
115.912998,1924.535449,10955.047942,3447.429741
115.913307,3997.112087,11843.295072,4903.011187
115.913617,2960.823768,10362.883188,-306.438199
115.913926,-666.185348,4515.256246,-3294.210641
115.914236,-1480.411884,11029.068536,-2145.067394
115.914545,-4441.235652,12953.603985,-5439.278036
115.914854,6513.812290,10732.986159,-11951.089769
115.915164,592.164754,11843.295072,-3600.648841
115.915473,-3701.029710,10658.965565,6205.373534
115.915783,2368.659014,14508.036463,5745.716235
115.916092,1480.411884,9252.574275,995.924147
115.916401,2516.700203,11177.109724,3217.601092
115.916711,-1924.535449,10436.903782,2145.067394
115.917020,-1036.288319,2368.659014,-4826.401637
115.917330,-5477.523971,5847.626942,76.609550
115.917639,-8216.285956,9474.636058,-3677.258390
115.917948,1850.514855,11769.274478,-10955.165621
115.918258,1998.556043,10140.821405,-6818.249932
115.918567,-2442.679609,8216.285956,2145.067394
115.918877,1554.432478,4219.173869,7201.297681
115.919186,2960.823768,8216.285956,3600.648841
115.919495,-0.000000,7402.059420,2451.505594
115.919805,3849.070898,8882.471304,2681.334243
115.920114,1776.494261,3404.947333,-2451.505594
115.920424,-3108.864956,5403.503377,-995.924147
115.920733,-3182.885551,14582.057057,-1915.238745
115.921043,-2220.617826,11029.068536,-11108.384721
115.921352,4885.359217,16062.468941,-12793.794817
115.921661,-0.000000,9696.697840,-9499.584175
115.921971,-962.267725,11399.171507,306.438199
115.922280,4737.318029,13693.809927,1608.800546
115.922590,962.267725,10881.027347,2068.457845
115.922899,4811.338623,9178.553681,5362.668486
115.923208,2146.597232,3552.988522,3983.696590
115.923518,-3478.967927,6587.832884,3064.381992
115.923827,-4959.379811,12953.603985,2145.067394
115.924137,-814.226536,11621.233289,-10112.460574
115.924446,3034.844362,13767.830521,-17160.539155
115.924755,-2146.597232,11621.233289,-5975.544884
115.925065,-1184.329507,3182.885551,1072.533697
115.925374,-74.020594,10436.903782,3370.820191
115.925684,-1776.494261,9252.574275,6281.983084
115.925993,962.267725,5995.668130,7890.783629
115.926303,5625.565159,4737.318029,4519.963438
115.926612,-2442.679609,296.082377,1838.629195
115.926921,-3849.070898,9178.553681,1302.362347
115.927231,-3552.988522,12213.398043,-12104.308868
115.927540,4145.153275,9104.533087,-15858.176809
115.927850,2368.659014,14359.995275,-7967.393179
115.928159,-2590.720797,11251.130318,-1225.752797
115.928468,-296.082377,12065.356855,3294.210641
115.928778,740.205942,11991.336260,6205.373534
115.929087,1480.411884,6291.750507,3294.210641
115.929397,5181.441594,9104.533087,1991.848295
115.929706,-148.041188,6069.688724,0.000000
115.930015,-2738.761985,9030.512492,536.266849
115.930325,666.185348,15248.242405,-6665.030833
115.930634,-74.020594,14952.160028,-15321.909960
115.930944,3182.885551,15914.427753,-9652.803275
115.931253,-1110.308913,12139.377449,-1838.629195
115.931562,1184.329507,6587.832884,1991.848295
115.931872,2960.823768,12509.480420,6971.469032
115.932181,-1184.329507,4219.173869,6588.421283
115.932491,1332.370696,5033.400406,5822.325785
115.932800,-1110.308913,4293.194464,1991.848295
115.933110,-4737.318029,2738.761985,-5669.106685
115.933419,-3256.906145,14137.933492,-4366.744339
115.933728,-2294.638420,13323.706956,-12487.356617
115.934038,740.205942,12509.480420,-12563.966167
115.934347,444.123565,9696.697840,-2911.162892
115.934657,-592.164754,5477.523971,1378.971896
115.934966,518.144159,9622.677246,5209.449386
115.935275,-74.020594,8216.285956,7201.297681
115.935585,3108.864956,3552.988522,6665.030833
115.935894,3775.050304,8586.388927,-842.705048
115.936204,-814.226536,5847.626942,-2681.334243
115.936513,-4441.235652,10881.027347,-1838.629195
115.936822,-4293.194464,14063.912898,-9882.631924
115.937132,1258.350101,11103.089130,-15781.567259
115.937441,4145.153275,14952.160028,-9039.926876
115.937751,-1628.453072,10584.944971,-919.314598
115.938060,1924.535449,11621.233289,1149.143247
115.938370,1776.494261,11843.295072,4366.744339
115.938679,1628.453072,8660.409521,5439.278036
115.938988,4293.194464,7846.182985,5592.497135
115.939298,1480.411884,5329.482782,0.000000
115.939607,-3256.906145,9770.718434,1149.143247
115.939917,-4589.276840,14285.974681,-1762.019645
115.940226,-1406.391290,8882.471304,-14096.157163
115.940535,1998.556043,9696.697840,-11261.603821
115.940845,-2146.597232,12879.583391,-3064.381992
115.941154,-888.247130,9622.677246,-1762.019645
115.941464,-222.061783,9474.636058,2834.553343
115.941773,444.123565,6883.915261,8810.098227
115.942082,1776.494261,6661.853478,6435.202183
115.942392,4885.359217,4515.256246,2374.896044
115.942701,-2960.823768,2738.761985,4136.915689
115.943011,-4071.132681,8364.327145,459.657299
115.943320,-1110.308913,9474.636058,-11338.213370
115.943629,1184.329507,8882.471304,-13023.623466
115.943939,740.205942,15544.324782,-6511.811733
115.944248,-1036.288319,11843.295072,-3447.429741
115.944558,3182.885551,14804.118840,-2068.457845
115.944867,-296.082377,11695.253884,4443.353888
115.945177,3923.091493,8142.265362,5439.278036
115.945486,4663.297435,6439.791695,689.485948
115.945795,-2516.700203,3478.967927,2145.067394
115.946105,-3849.070898,8734.430116,1762.019645
115.946414,-222.061783,9104.533087,-6281.983084
115.946724,666.185348,12287.418637,-12717.185267
115.947033,2368.659014,18209.066173,-5745.716235
115.947342,1850.514855,12509.480420,-4673.182538
115.947652,1924.535449,12435.459826,-612.876398
115.947961,814.226536,14063.912898,3677.258390
115.948271,-370.102971,4293.194464,4213.525239
115.948580,3034.844362,5403.503377,2681.334243
115.948889,-2738.761985,2294.638420,1532.190996
115.949199,-3997.112087,5255.462188,4749.792088
115.949508,-2220.617826,11325.150913,-1532.190996
115.949818,-740.205942,8068.244768,-10801.946522
115.950127,-370.102971,15248.242405,-8503.660028
115.950436,-666.185348,9992.780217,-4290.134789
115.950746,148.041188,10140.821405,-3600.648841
115.951055,-1554.432478,12879.583391,2911.162892
115.951365,1480.411884,7179.997637,5898.935335
115.951674,4515.256246,6143.709319,6894.859482
115.951984,2294.638420,8364.327145,1072.533697
115.952293,-4589.276840,-592.164754,4519.963438
115.952602,-3256.906145,9918.759623,1149.143247
115.952912,-1258.350101,11843.295072,-14325.985813
115.953221,222.061783,13545.768739,-14632.424012
115.953531,1036.288319,16580.613101,-8044.002729
115.953840,148.041188,11991.336260,-4749.792088
115.954149,2220.617826,13323.706956,459.657299
115.954459,-2220.617826,13323.706956,4903.011187
115.954768,3923.091493,8364.327145,5056.230287
115.955078,3775.050304,8142.265362,3217.601092
115.955387,-740.205942,3997.112087,3983.696590
115.955696,-2516.700203,7105.977043,4443.353888
115.956006,-1628.453072,10066.800811,-4060.306139
115.956315,-1702.473667,9104.533087,-9959.241474
115.956625,-814.226536,13175.665768,-7048.078582
115.956934,-444.123565,11399.171507,-6358.592633
115.957244,-1776.494261,11991.336260,-1608.800546
115.957553,-444.123565,11547.212695,4903.011187
115.957862,444.123565,5773.606348,2757.943793
115.958172,4663.297435,8734.430116,2068.457845
115.958481,1110.308913,5107.421000,5286.058936
115.958791,-4885.359217,2590.720797,2911.162892
115.959100,-444.123565,9622.677246,-1685.410096
115.959409,-1036.288319,7476.080014,-10648.727422
115.959719,2146.597232,11621.233289,-10265.679673
115.960028,296.082377,12287.418637,-7814.174080
115.960338,-1184.329507,7550.100608,-2451.505594
115.960647,-0.000000,14434.015869,5286.058936
115.960956,1036.288319,10288.862594,3140.991542
115.961266,5995.668130,8956.491898,-1225.752797
115.961575,74.020594,7476.080014,3753.867940
115.961885,-3256.906145,2220.617826,5745.716235
115.962194,-3034.844362,9548.656652,-536.266849
115.962503,-1406.391290,12139.377449,-11338.213370
115.962813,1850.514855,11547.212695,-10495.508323
115.963122,1258.350101,15914.427753,-6894.859482
115.963432,-888.247130,12213.398043,-2681.334243
115.963741,296.082377,13471.748144,3830.477490
115.964051,296.082377,10066.800811,5132.839837
115.964360,3330.926739,6735.874072,3447.429741
115.964669,1776.494261,7254.018232,1072.533697
115.964979,-4071.132681,2664.741391,3447.429741
115.965288,-3108.864956,5625.565159,3830.477490
115.965598,-1036.288319,8956.491898,-6511.811733
115.965907,74.020594,9178.553681,-14019.547613
115.966216,962.267725,11029.068536,-4903.011187
115.966526,-2960.823768,9400.615463,-3217.601092
115.966835,1258.350101,9252.574275,459.657299
115.967145,-0.000000,15100.201217,1455.581446
115.967454,1480.411884,7031.956449,-306.438199
115.967763,6365.771101,6735.874072,2604.724693
115.968073,-888.247130,6809.894666,3677.258390
115.968382,-4589.276840,5107.421000,4826.401637
115.968692,888.247130,9400.615463,-3524.039291
115.969001,-2072.576638,4367.215058,-10342.289223
115.969311,740.205942,12139.377449,-8503.660028
115.969620,-666.185348,11473.192101,-6741.640382
115.969929,-2072.576638,9104.533087,-5362.668486
115.970239,2368.659014,14952.160028,-842.705048
115.970548,-0.000000,11769.274478,2068.457845
115.970858,3627.009116,12361.439231,1378.971896
115.971167,2294.638420,11843.295072,3907.087040
115.971476,740.205942,3775.050304,4443.353888
115.971786,-3404.947333,6661.853478,1991.848295
115.972095,444.123565,8734.430116,-5286.058936
115.972405,-814.226536,6513.812290,-9959.241474
115.972714,-1332.370696,13619.789333,-4366.744339
115.973023,-3701.029710,7772.162391,-2987.772442
115.973333,592.164754,13915.871710,-2298.286494
115.973642,1480.411884,11547.212695,-1302.362347
115.973952,1628.453072,8364.327145,919.314598
115.974261,148.041188,7105.977043,3907.087040
115.974571,-740.205942,2886.803174,5975.544884
115.974880,-2368.659014,5033.400406,3753.867940
115.975189,-1110.308913,9474.636058,-2221.676944
115.975499,518.144159,7476.080014,-8810.098227
115.975808,2146.597232,12139.377449,-6435.202183
115.976118,-666.185348,10955.047942,-3753.867940
115.976427,444.123565,9992.780217,-2451.505594
115.976737,1184.329507,15026.180623,-1225.752797
115.977046,-666.185348,10140.821405,-459.657299
115.977355,5329.482782,12287.418637,-1915.238745
115.977665,1184.329507,5699.585753,1378.971896
115.977974,-3701.029710,5107.421000,5286.058936
115.978284,-814.226536,12287.418637,-612.876398
115.978593,-74.020594,7994.224174,-9346.365076
115.978903,1184.329507,12287.418637,-7354.516781
115.979212,-0.000000,14434.015869,-2757.943793
115.979522,1184.329507,10066.800811,-1991.848295
115.979831,1776.494261,15544.324782,995.924147
115.980140,-2220.617826,10362.883188,2145.067394
115.980450,1480.411884,9252.574275,2451.505594
115.980759,1332.370696,8808.450710,4060.306139
115.981069,-1850.514855,2812.782580,4136.915689
115.981378,-2072.576638,8956.491898,-229.828649
115.981688,-2590.720797,10140.821405,-9116.536426
115.981997,-1110.308913,8142.265362,-8273.831378
115.982306,444.123565,10066.800811,-4903.011187
115.982616,-1480.411884,8364.327145,-4903.011187
115.982925,-592.164754,12065.356855,-2528.115143
115.983235,2072.576638,10214.842000,3600.648841
115.983544,2220.617826,7920.203579,1149.143247
115.983854,4737.318029,8142.265362,2068.457845
115.984163,-2368.659014,4145.153275,2911.162892
115.984472,-1702.473667,7624.121203,1685.410096
115.984782,-518.144159,9918.759623,-5286.058936
115.985091,-1554.432478,9474.636058,-8427.050478
115.985401,1924.535449,12953.603985,-6971.469032
115.985710,-370.102971,8142.265362,-5209.449386
115.986020,148.041188,11029.068536,-383.047749
115.986329,-0.000000,13693.809927,1455.581446
115.986638,-0.000000,9770.718434,-459.657299
115.986948,3034.844362,11399.171507,2451.505594
115.987257,2220.617826,10214.842000,5669.106685
115.987567,370.102971,8438.347739,-229.828649
115.987876,-3627.009116,11621.233289,536.266849
115.988186,-1776.494261,6217.729913,-3600.648841
115.988495,296.082377,10732.986159,-5975.544884
115.988805,2738.761985,10881.027347,-6588.421283
115.989114,-3997.112087,5921.647536,-1302.362347
115.989423,-814.226536,11547.212695,2911.162892
115.989733,1036.288319,7402.059420,536.266849
115.990042,2590.720797,7179.997637,1915.238745
115.990352,1850.514855,6661.853478,2068.457845
115.990661,-1258.350101,3627.009116,1532.190996
115.990971,-2442.679609,7920.203579,536.266849
115.991280,-2294.638420,9770.718434,-2145.067394
115.991589,2738.761985,9770.718434,-6588.421283
115.991899,666.185348,11177.109724,-9499.584175
115.992208,-666.185348,10140.821405,-383.047749
115.992518,-296.082377,11695.253884,4979.620737
115.992827,888.247130,12731.542202,-1455.581446
115.993137,4515.256246,8956.491898,-1762.019645
115.993446,666.185348,11695.253884,3064.381992
115.993755,-1998.556043,8882.471304,1302.362347
115.994065,-592.164754,8586.388927,-1685.410096
115.994374,-666.185348,11103.089130,-6894.859482
115.994684,-0.000000,11251.130318,-9806.022374
115.994993,1850.514855,12065.356855,-6818.249932
115.995303,592.164754,7254.018232,-1378.971896
115.995612,740.205942,8734.430116,4213.525239
115.995921,-0.000000,15396.283594,7124.688131
115.996231,666.185348,6217.729913,4136.915689
115.996540,2220.617826,5477.523971,4213.525239
115.996850,1406.391290,7476.080014,1149.143247
115.997159,-2664.741391,5181.441594,-3753.867940
115.997469,-4663.297435,12065.356855,-2451.505594
115.997778,-3330.926739,7179.997637,-9422.974625
115.998088,1850.514855,12509.480420,-10342.289223
115.998397,1776.494261,11399.171507,-7048.078582
115.998706,518.144159,6809.894666,6358.592633
115.999016,444.123565,13249.686362,7507.735880
115.999325,888.247130,6439.791695,4749.792088
115.999635,3404.947333,10288.862594,612.876398
115.999944,3552.988522,7920.203579,0.000000
116.000254,-2072.576638,4811.338623,153.219100
116.000563,-3923.091493,10881.027347,459.657299
116.000872,-1110.308913,13249.686362,-9806.022374
116.001182,444.123565,10658.965565,-13789.718964
116.001491,-2442.679609,11399.171507,-3524.039291
116.001801,-444.123565,10140.821405,-153.219100
116.002110,1184.329507,10955.047942,612.876398
116.002420,3034.844362,9400.615463,2451.505594
116.002729,1110.308913,5921.647536,5362.668486
116.003038,3552.988522,7254.018232,4443.353888
116.003348,444.123565,6217.729913,1915.238745
116.003657,-2960.823768,6735.874072,3524.039291
116.003967,-2960.823768,11621.233289,-1991.848295
116.004276,592.164754,10510.924376,-10955.165621
116.004586,-222.061783,13989.892304,-11797.870669
116.004895,-1776.494261,9030.512492,-3064.381992
116.005204,-148.041188,9178.553681,2298.286494
116.005514,1554.432478,11325.150913,229.828649
116.005823,-370.102971,5699.585753,7277.907231
116.006133,592.164754,5033.400406,6128.763984
116.006442,1036.288319,5181.441594,4213.525239
116.006752,-2886.803174,5995.668130,2757.943793
116.007061,-2220.617826,12805.562797,-995.924147
116.007370,222.061783,8438.347739,-8733.488677
116.007680,2368.659014,11843.295072,-13942.938064
116.007989,444.123565,13989.892304,-6511.811733
116.008299,370.102971,9474.636058,-1915.238745
116.008608,1480.411884,10140.821405,2528.115143
116.008918,1776.494261,6587.832884,5132.839837
116.009227,1332.370696,6513.812290,4596.572988
116.009537,2738.761985,6661.853478,3753.867940
116.009846,-2812.782580,4071.132681,3217.601092
116.010155,-3997.112087,10955.047942,-2068.457845
116.010465,-888.247130,12805.562797,-11721.261119
116.010774,666.185348,10955.047942,-14785.643111
116.011084,-592.164754,15248.242405,-5975.544884
116.011393,962.267725,11917.315666,-459.657299
116.011703,-888.247130,11325.150913,2221.676944
116.012012,3108.864956,8734.430116,6818.249932
116.012321,518.144159,2368.659014,9116.536426
116.012631,2294.638420,6587.832884,5209.449386
116.012940,-2294.638420,3627.009116,-689.485948
116.013250,-3108.864956,7846.182985,1225.752797
116.013559,-2590.720797,13767.830521,-7737.564530
116.013869,-2072.576638,11325.150913,-14785.643111
116.014178,-222.061783,15396.283594,-11184.994271
116.014487,-296.082377,14508.036463,-4290.134789
116.014797,-666.185348,11177.109724,0.000000
116.015106,1702.473667,11917.315666,5515.887586
116.015416,2220.617826,5329.482782,6358.592633
116.015725,4441.235652,4589.276840,2145.067394
116.016035,1406.391290,5403.503377,6588.421283
116.016344,-3108.864956,5477.523971,3907.087040
116.016653,-4293.194464,11325.150913,-3447.429741
116.016963,962.267725,13175.665768,-13942.938064
116.017272,-1110.308913,13249.686362,-14632.424012
116.017582,-1110.308913,16210.510130,-8810.098227
116.017891,296.082377,9178.553681,-1685.410096
116.018201,1184.329507,12583.501014,2604.724693
116.018510,2960.823768,9474.636058,5592.497135
116.018820,2960.823768,4737.318029,6511.811733
116.019129,3478.967927,3775.050304,7814.174080
116.019438,444.123565,4959.379811,5592.497135
116.019748,-5847.626942,7179.997637,919.314598
116.020057,1702.473667,12361.439231,-7201.297681
116.020367,-0.000000,10658.965565,-14402.595362
116.020676,-2368.659014,13767.830521,-10112.460574
116.020986,222.061783,11843.295072,-2834.553343
116.021295,-2220.617826,12065.356855,-2451.505594
116.021604,2664.741391,10955.047942,-383.047749
116.021914,2516.700203,3997.112087,6665.030833
116.022223,1850.514855,6217.729913,7354.516781
116.022533,2220.617826,3404.947333,7201.297681
116.022842,-3256.906145,6217.729913,4060.306139
116.023152,-3108.864956,10881.027347,-4596.572988
116.023461,-888.247130,9770.718434,-13406.671215
116.023770,1110.308913,14359.995275,-14096.157163
116.024080,-74.020594,13249.686362,-9806.022374
116.024389,1258.350101,9474.636058,-2681.334243
116.024699,-0.000000,13175.665768,3064.381992
116.025008,2442.679609,7031.956449,5592.497135
116.025318,2294.638420,6143.709319,6128.763984
116.025627,2146.597232,3108.864956,7507.735880
116.025936,-1850.514855,4737.318029,3600.648841
116.026246,-3108.864956,7105.977043,-2451.505594
116.026555,-1850.514855,10362.883188,-11184.994271
116.026865,-2590.720797,12287.418637,-12793.794817
116.027174,666.185348,17172.777854,-7660.954980
116.027484,1998.556043,10214.842000,-4213.525239
116.027793,-1406.391290,12361.439231,4826.401637
116.028103,2146.597232,10214.842000,9729.412825
116.028412,1258.350101,3108.864956,5592.497135
116.028721,3108.864956,7402.059420,4979.620737
116.029031,-222.061783,3923.091493,6358.592633
116.029340,-6291.750507,9252.574275,0.000000
116.029650,-1702.473667,13841.851115,-11414.822920
116.029959,-2220.617826,11843.295072,-15245.300410
116.030269,740.205942,14804.118840,-12027.699319
116.030578,-1258.350101,12805.562797,-6281.983084
116.030887,1184.329507,12361.439231,536.266849
116.031197,1332.370696,9474.636058,7048.078582
116.031506,4145.153275,3997.112087,6741.640382
116.031816,3256.906145,3849.070898,5056.230287
116.032125,2146.597232,4515.256246,8273.831378
116.032435,-4737.318029,6809.894666,5286.058936
116.032744,-3627.009116,10732.986159,-6435.202183
116.033053,148.041188,10658.965565,-16930.710506
116.033363,-1036.288319,13027.624579,-16241.224558
116.033672,-2590.720797,15470.304188,-9806.022374
116.033982,3108.864956,10510.924376,-1838.629195
116.034291,888.247130,14434.015869,3677.258390
116.034601,4219.173869,8586.388927,8810.098227
116.034910,370.102971,3849.070898,8503.660028
116.035219,4589.276840,1776.494261,8810.098227
116.035529,-2368.659014,5181.441594,6741.640382
116.035838,-5995.668130,12583.501014,-306.438199
116.036148,592.164754,11473.192101,-10648.727422
116.036457,-1110.308913,9400.615463,-17466.977354
116.036767,-2368.659014,14211.954086,-10418.898773
116.037076,-1702.473667,12953.603985,-1915.238745
116.037385,-1554.432478,14211.954086,0.000000
116.037695,5847.626942,11917.315666,2221.676944
116.038004,3627.009116,5773.606348,6128.763984
116.038314,2590.720797,6661.853478,7354.516781
116.038623,-2516.700203,3997.112087,6511.811733
116.038933,-5921.647536,7846.182985,3140.991542
116.039242,296.082377,8364.327145,-6971.469032
116.039552,1702.473667,8660.409521,-14862.252661
116.039861,-592.164754,15840.407159,-10725.336972
116.040170,-2664.741391,13915.871710,-3983.696590
116.040480,-2886.803174,13841.851115,-1608.800546
116.040789,2664.741391,13027.624579,1915.238745
116.041099,2960.823768,5329.482782,1378.971896
116.041408,1036.288319,6735.874072,1991.848295
116.041718,2368.659014,6513.812290,7354.516781
116.042027,-2072.576638,4811.338623,2528.115143
116.042336,-3552.988522,8290.306550,-3983.696590
116.042646,1850.514855,9696.697840,-8273.831378
116.042955,-1332.370696,10214.842000,-8733.488677
116.043265,518.144159,11991.336260,-4136.915689
116.043574,740.205942,12139.377449,0.000000
116.043884,222.061783,13915.871710,-383.047749
116.044193,2516.700203,9030.512492,1685.410096
116.044502,740.205942,8142.265362,2757.943793
116.044812,370.102971,6883.915261,3753.867940
116.045121,-4589.276840,7698.141797,2834.553343
116.045431,-2368.659014,11399.171507,306.438199
116.045740,-444.123565,13471.748144,-9806.022374
116.046050,1850.514855,8142.265362,-13483.280765
116.046359,-2220.617826,11843.295072,-7124.688131
116.046668,-148.041188,7254.018232,-1378.971896
116.046978,-2590.720797,13249.686362,1762.019645
116.047287,5921.647536,13915.871710,6281.983084
116.047597,3256.906145,8142.265362,1532.190996
116.047906,2368.659014,6735.874072,1991.848295
116.048216,-1036.288319,4219.173869,5362.668486
116.048525,-6661.853478,4737.318029,3524.039291
116.048835,-2294.638420,9474.636058,-5592.497135
116.049144,370.102971,6217.729913,-11184.994271
116.049453,1036.288319,8364.327145,-10495.508323
116.049763,-4293.194464,11029.068536,-3677.258390
116.050072,-2146.597232,11917.315666,2834.553343
116.050382,4737.318029,14211.954086,1072.533697
116.050691,3849.070898,9622.677246,-842.705048
116.051001,1998.556043,8068.244768,6052.154434
116.051310,1850.514855,5255.462188,7354.516781
116.051619,-2368.659014,6661.853478,2834.553343
116.051929,-2812.782580,10510.924376,1685.410096
116.052238,1702.473667,8586.388927,-5362.668486
116.052548,-2738.761985,12065.356855,-13253.452115
116.052857,-0.000000,11843.295072,-7124.688131
116.053167,-4663.297435,9400.615463,383.047749
116.053476,2738.761985,15100.201217,-4213.525239
116.053785,4811.338623,12065.356855,-4903.011187
116.054095,-592.164754,8290.306550,5056.230287
116.054404,-0.000000,6735.874072,7814.174080
116.054714,518.144159,2886.803174,2911.162892
116.055023,-3182.885551,7254.018232,3983.696590
116.055333,-296.082377,7402.059420,919.314598
116.055642,666.185348,8290.306550,-9729.412825
116.055951,-0.000000,10955.047942,-10112.460574
116.056261,-1184.329507,10658.965565,-4596.572988
116.056570,-2886.803174,12731.542202,-3217.601092
116.056880,2590.720797,14211.954086,-1608.800546
116.057189,3552.988522,8586.388927,-995.924147
116.057499,2738.761985,9474.636058,1915.238745
116.057808,-444.123565,3256.906145,7201.297681
116.058118,-4737.318029,7772.162391,4136.915689
116.058427,2294.638420,8882.471304,-2451.505594
116.058736,296.082377,9474.636058,-5898.935335
116.059046,-518.144159,12731.542202,-5439.278036
116.059355,2072.576638,9770.718434,-3907.087040
116.059665,-1850.514855,12139.377449,-2221.676944
116.059974,888.247130,12657.521608,2528.115143
116.060284,814.226536,10066.800811,-536.266849
116.060593,2294.638420,7476.080014,306.438199
116.060902,444.123565,6439.791695,6128.763984
116.061212,-3701.029710,9474.636058,3753.867940
116.061521,-2368.659014,9326.594869,2145.067394
116.061831,1998.556043,10658.965565,-6281.983084
116.062140,-2072.576638,13693.809927,-6052.154434
116.062450,2368.659014,12509.480420,-5975.544884
116.062759,-1110.308913,6883.915261,-4903.011187
116.063068,-1776.494261,11325.150913,1072.533697
116.063378,4293.194464,10436.903782,2987.772442
116.063687,1924.535449,10066.800811,995.924147
116.063997,2960.823768,6291.750507,4136.915689
116.064306,-2738.761985,3034.844362,5286.058936
116.064616,-4811.338623,7550.100608,-2298.286494
116.064925,1184.329507,10732.986159,-6128.763984
116.065234,-370.102971,11843.295072,-9729.412825
116.065544,-888.247130,11991.336260,-9269.755526
116.065853,-296.082377,9474.636058,-3983.696590
116.066163,-3182.885551,10066.800811,842.705048
116.066472,2516.700203,9474.636058,3217.601092
116.066782,4737.318029,7550.100608,2987.772442
116.067091,5921.647536,9400.615463,2298.286494
116.067400,1258.350101,6587.832884,4213.525239
116.067710,-3627.009116,7105.977043,2451.505594
116.068019,-2812.782580,11991.336260,-3753.867940
116.068329,2368.659014,10584.944971,-12027.699319
116.068638,666.185348,14137.933492,-9039.926876
116.068948,-1924.535449,10066.800811,-612.876398
116.069257,-2590.720797,9918.759623,76.609550
116.069567,2146.597232,10214.842000,-536.266849
116.069876,2368.659014,8586.388927,1072.533697
116.070185,-2146.597232,7920.203579,5515.887586
116.070495,3775.050304,9326.594869,3294.210641
116.070804,-444.123565,7328.038826,-306.438199
116.071114,-3997.112087,9326.594869,-1455.581446
116.071423,-2960.823768,13619.789333,-9039.926876
116.071733,-74.020594,10881.027347,-9346.365076
116.072042,1924.535449,9548.656652,-4519.963438
116.072351,-2072.576638,8808.450710,1762.019645
116.072661,814.226536,10732.986159,2911.162892
116.072970,4737.318029,7328.038826,1991.848295
116.073280,-888.247130,7031.956449,536.266849
116.073589,3478.967927,7920.203579,2068.457845
116.073899,-444.123565,6439.791695,536.266849
116.074208,-5255.462188,8734.430116,2374.896044
116.074518,-1258.350101,13101.645173,-3907.087040
116.074827,1406.391290,12731.542202,-10112.460574
116.075137,1332.370696,12509.480420,-7431.126331
116.075446,1776.494261,9770.718434,536.266849
116.075756,-3552.988522,9622.677246,2834.553343
116.076065,5329.482782,10510.924376,0.000000
116.076375,2368.659014,5921.647536,383.047749
116.076684,-1628.453072,7846.182985,4826.401637
116.076994,444.123565,7105.977043,4290.134789
116.077303,-3182.885551,6883.915261,919.314598
116.077613,296.082377,11251.130318,-5669.106685
116.077922,-1036.288319,10436.903782,-11721.261119
116.078232,-444.123565,11251.130318,-8733.488677
116.078541,-0.000000,10955.047942,-5822.325785
116.078851,-1776.494261,9696.697840,306.438199
116.079160,3849.070898,11029.068536,3983.696590
116.079470,3108.864956,6735.874072,4366.744339
116.079779,740.205942,6217.729913,3600.648841
116.080089,3034.844362,4367.215058,4903.011187
116.080398,-2516.700203,6587.832884,1532.190996
116.080708,-4145.153275,12805.562797,-2451.505594
116.081017,-148.041188,12657.521608,-9959.241474
116.081327,-444.123565,12509.480420,-12640.575717
116.081636,-222.061783,11029.068536,-5669.106685
116.081946,-592.164754,11325.150913,-1302.362347
116.082255,-1036.288319,11917.315666,1302.362347
116.082565,4737.318029,7254.018232,2987.772442
116.082874,1036.288319,6069.688724,7814.174080
116.083184,3256.906145,7476.080014,5592.497135
116.083493,148.041188,5403.503377,3830.477490
116.083803,-4737.318029,9474.636058,1532.190996
116.084112,888.247130,12435.459826,-7354.516781
116.084422,-1406.391290,13619.789333,-14862.252661
