#time,accel_x,accel_y,accel_z
165.542130,-148.041188,9696.697840,-1149.143247
165.542439,-0.000000,9844.739029,-1378.971896
165.542749,-0.000000,9104.533087,-919.314598
165.543058,-0.000000,8808.450710,-995.924147
165.543368,-296.082377,9770.718434,-4366.744339
165.543677,222.061783,9400.615463,-1991.848295
165.543987,-370.102971,9252.574275,-919.314598
165.544296,-0.000000,9992.780217,-536.266849
165.544605,370.102971,9918.759623,-919.314598
165.544915,-0.000000,9770.718434,-1149.143247
165.545224,814.226536,9030.512492,-1915.238745
165.545534,-0.000000,9252.574275,-1685.410096
165.545843,-888.247130,9770.718434,-459.657299
165.546153,666.185348,8586.388927,1455.581446
165.546462,296.082377,10066.800811,-2681.334243
165.546772,-0.000000,9770.718434,-1225.752797
165.547081,-0.000000,9178.553681,0.000000
165.547390,-296.082377,8808.450710,-612.876398
165.547700,-444.123565,10436.903782,689.485948
165.548009,-0.000000,8660.409521,-1302.362347
165.548319,222.061783,9030.512492,-1532.190996
165.548628,222.061783,9474.636058,-612.876398
165.548938,-296.082377,7698.141797,995.924147
165.549247,888.247130,9104.533087,1302.362347
165.549557,3108.864956,6439.791695,0.000000
165.549866,5107.421000,7328.038826,2451.505594
165.550176,1628.453072,7698.141797,10572.117872
165.550485,-814.226536,4219.173869,9959.241474
165.550794,3330.926739,7105.977043,9422.974625
165.551104,6661.853478,8142.265362,3983.696590
165.551413,3775.050304,6957.935855,4290.134789
165.551723,-2886.803174,9326.594869,13636.499864
165.552032,-814.226536,12435.459826,12717.185267
165.552342,1110.308913,10584.944971,4903.011187
165.552651,814.226536,12657.521608,6358.592633
165.552961,-1554.432478,11843.295072,10955.165621
165.553270,-16284.530724,8068.244768,11031.775171
165.553579,25463.084405,21243.910535,-8503.660028
165.553889,-12657.521608,8290.306550,4443.353888
165.554198,-9548.656652,15100.201217,26736.732880
165.554508,-9030.512492,8882.471304,24668.275036
165.554817,1258.350101,9992.780217,-1608.800546
165.555127,9326.594869,16432.571912,-4136.915689
165.555436,-15026.180623,4737.318029,11951.089769
165.555746,222.061783,13915.871710,3600.648841
165.556055,-1110.308913,4367.215058,-1225.752797
165.556365,-2960.823768,9622.677246,6435.202183
165.556674,-74.020594,4737.318029,17237.148705
165.556983,-0.000000,518.144159,11797.870669
165.557293,-1628.453072,4811.338623,13942.938064
165.557602,-1480.411884,5921.647536,19612.044749
165.557912,2368.659014,9252.574275,5362.668486
165.558221,-3256.906145,4441.235652,2451.505594
165.558531,3256.906145,16358.551318,2681.334243
165.558840,1258.350101,9918.759623,-2987.772442
165.559150,2442.679609,14730.098246,2451.505594
165.559459,-0.000000,11917.315666,21757.112143
165.559768,296.082377,5921.647536,23595.741338
165.560078,3775.050304,6587.832884,15934.786358
165.560387,-222.061783,4737.318029,9882.631924
165.560697,148.041188,10288.862594,6128.763984
165.561006,5033.400406,12879.583391,-4290.134789
165.561316,4959.379811,17172.777854,-5439.278036
165.561625,1258.350101,16506.592507,8350.440928
165.561935,-7772.162391,16580.613101,18386.291952
165.562244,-3997.112087,12139.377449,14325.985813
165.562554,3552.988522,9622.677246,1532.190996
165.562863,6291.750507,5551.544565,-5286.058936
165.563172,-296.082377,6809.894666,5439.278036
165.563482,-962.267725,10732.986159,15321.909960
165.563791,-296.082377,9844.739029,14019.547613
165.564101,2738.761985,7846.182985,6358.592633
165.564410,2886.803174,5995.668130,1838.629195
165.564720,-4071.132681,222.061783,2451.505594
165.565029,-6957.935855,5995.668130,5822.325785
165.565339,370.102971,8438.347739,-1302.362347
165.565648,8882.471304,8438.347739,-7507.735880
165.565957,3404.947333,8290.306550,5286.058936
165.566267,-6439.791695,5773.606348,24132.008187
165.566576,-3775.050304,9844.739029,20991.016645
165.566886,3256.906145,9104.533087,4060.306139
165.567195,4589.276840,10066.800811,-4673.182538
165.567505,-3182.885551,9252.574275,-1072.533697
165.567814,-7328.038826,14211.954086,153.219100
165.568124,3923.091493,15396.283594,-7814.174080
165.568433,7402.059420,13693.809927,-1532.190996
165.568743,-1258.350101,9474.636058,18999.168350
165.569052,-2960.823768,5107.421000,30030.943522
165.569361,4885.359217,5551.544565,13559.890315
165.569671,3627.009116,1924.535449,2987.772442
165.569980,-1036.288319,7105.977043,5898.935335
165.570290,2590.720797,5995.668130,2145.067394
165.570599,5033.400406,5921.647536,-766.095498
165.570909,-2220.617826,9474.636058,13023.623466
165.571218,-7402.059420,12213.398043,26200.466032
165.571528,-3108.864956,-3775.050304,11338.213370
165.571837,-5921.647536,-4441.235652,3983.696590
165.572146,2442.679609,5625.565159,-2681.334243
165.572456,-16210.510130,-1776.494261,6894.859482
165.572765,19467.416275,27905.764013,1915.238745
165.573075,3627.009116,5255.462188,2681.334243
165.573384,-4811.338623,13323.706956,17160.539155
165.573694,-7179.997637,11843.295072,27809.266577
165.574003,-5181.441594,2664.741391,5822.325785
165.574313,5403.503377,14211.954086,-2451.505594
165.574622,2294.638420,12509.480420,3447.429741
165.574932,1258.350101,10066.800811,-2528.115143
165.575241,-1184.329507,10658.965565,5362.668486
165.575550,-222.061783,20429.683999,15168.690860
165.575860,2886.803174,7920.203579,4673.182538
165.576169,-148.041188,7698.141797,7431.126331
165.576479,-4663.297435,10436.903782,26506.904231
165.576788,-3404.947333,1702.473667,18539.511052
165.577098,10584.944971,5995.668130,2451.505594
165.577407,1480.411884,3182.885551,6741.640382
165.577717,-518.144159,4367.215058,11951.089769
165.578026,3997.112087,8660.409521,7890.783629
165.578335,-5181.441594,9104.533087,11338.213370
165.578645,-2072.576638,12435.459826,19458.825649
165.578954,3404.947333,9030.512492,7737.564530
165.579264,-1110.308913,6143.709319,-1225.752797
165.579573,-6069.688724,7772.162391,10495.508323
165.579883,-6735.874072,8956.491898,12793.794817
165.580192,1850.514855,12731.542202,3140.991542
165.580502,2368.659014,14878.139434,4979.620737
165.580811,370.102971,14211.954086,9193.145976
165.581121,-5329.482782,12879.583391,14938.862211
165.581430,-3923.091493,12731.542202,10342.289223
165.581739,-1110.308913,12287.418637,4443.353888
165.582049,5255.462188,9770.718434,-4290.134789
165.582358,962.267725,7772.162391,76.609550
165.582668,-6513.812290,6883.915261,11491.432470
165.582977,1702.473667,7328.038826,9729.412825
165.583287,518.144159,1850.514855,8120.612279
165.583596,7179.997637,6069.688724,11874.480219
165.583906,-7179.997637,1258.350101,16854.100956
165.584215,-1184.329507,3997.112087,8427.050478
165.584525,5847.626942,8364.327145,-3983.696590
165.584834,8290.306550,7550.100608,-1378.971896
165.585143,-1332.370696,11177.109724,13100.233016
165.585453,-4145.153275,10955.047942,17926.634653
165.585762,5699.585753,11029.068536,9882.631924
165.586072,6069.688724,5329.482782,6511.811733
165.586381,-7624.121203,7994.224174,15934.786358
165.586691,-2146.597232,9622.677246,5286.058936
165.587000,8216.285956,10732.986159,-12487.356617
165.587310,592.164754,17394.839637,-5898.935335
165.587619,-4737.318029,18579.169144,15398.519510
165.587928,1406.391290,12213.398043,10495.508323
165.588238,9104.533087,12583.501014,2298.286494
165.588547,2368.659014,7846.182985,14019.547613
165.588857,-5847.626942,7105.977043,17007.320056
165.589166,7105.977043,7031.956449,1838.629195
165.589476,9770.718434,7105.977043,-5439.278036
165.589785,-666.185348,7105.977043,3907.087040
165.590095,-4737.318029,8956.491898,15934.786358
165.590404,-444.123565,2146.597232,13023.623466
165.590714,1258.350101,4959.379811,6894.859482
165.591023,1628.453072,12287.418637,5745.716235
165.591332,-3108.864956,2146.597232,3524.039291
165.591642,2442.679609,12213.398043,-3217.601092
165.591951,-7031.956449,11621.233289,-919.314598
165.592261,888.247130,14137.933492,-612.876398
165.592570,-2590.720797,13989.892304,5286.058936
165.592880,-11843.295072,16432.571912,11031.775171
165.593189,-2442.679609,18875.251521,3217.601092
165.593499,1480.411884,11843.295072,-10648.727422
165.593808,-666.185348,13619.789333,-6588.421283
165.594117,-5255.462188,9252.574275,7354.516781
165.594427,2590.720797,5255.462188,5132.839837
165.594736,6661.853478,2960.823768,0.000000
165.595046,-6957.935855,2516.700203,11874.480219
165.595355,888.247130,5773.606348,10955.165621
165.595665,8956.491898,1406.391290,-8656.879127
165.595974,6069.688724,7772.162391,-6511.811733
165.596284,-3182.885551,4737.318029,18692.730151
165.596593,-518.144159,-148.041188,17850.025103
165.596903,5847.626942,6291.750507,153.219100
165.597212,-3849.070898,6587.832884,76.609550
165.597521,-2664.741391,14285.974681,842.705048
165.597831,3330.926739,19097.313304,-11644.651570
165.598140,4293.194464,21243.910535,-7354.516781
165.598450,3256.906145,16654.633695,1991.848295
165.598759,-1036.288319,11769.274478,6205.373534
165.599069,-6957.935855,6439.791695,12257.527968
165.599378,-2664.741391,8586.388927,6894.859482
165.599688,6217.729913,12139.377449,-10878.556072
165.599997,4959.379811,10584.944971,-12257.527968
165.600306,-518.144159,13693.809927,8044.002729
165.600616,962.267725,11251.130318,9959.241474
165.600925,6957.935855,7328.038826,-2681.334243
165.601235,-6291.750507,3034.844362,6205.373534
165.601544,-8364.327145,6217.729913,18539.511052
165.601854,2590.720797,8290.306550,-9039.926876
165.602163,6143.709319,11991.336260,-24515.055936
165.602473,222.061783,16580.613101,-2298.286494
165.602782,-2590.720797,9622.677246,7890.783629
165.603092,2442.679609,6661.853478,-2451.505594
165.603401,-4811.338623,13027.624579,4826.401637
165.603711,-4515.256246,7846.182985,7737.564530
165.604020,2294.638420,2886.803174,-9039.926876
165.604330,3108.864956,12583.501014,-7354.516781
165.604639,-5847.626942,11029.068536,9806.022374
165.604948,5995.668130,7031.956449,-4519.963438
165.605258,1036.288319,4071.132681,-9039.926876
165.605567,-3923.091493,-814.226536,8733.488677
165.605877,5403.503377,3849.070898,8963.317327
165.606186,1480.411884,6069.688724,-2681.334243
165.606496,962.267725,6809.894666,7890.783629
165.606805,7031.956449,12657.521608,10342.289223
165.607115,-0.000000,5255.462188,-3064.381992
165.607424,-2738.761985,10807.006753,-3524.039291
165.607734,-5921.647536,18949.272115,1915.238745
165.608043,6439.791695,17838.963202,-15168.690860
165.608353,9474.636058,18653.189738,-18462.901502
165.608662,-2664.741391,22798.343014,6818.249932
165.608972,-3552.988522,10288.862594,10878.556072
165.609281,1480.411884,5551.544565,5132.839837
165.609591,740.205942,3108.864956,-1915.238745
165.609900,740.205942,4219.173869,-3753.867940
165.610209,4293.194464,9474.636058,-12410.747068
165.610519,-1554.432478,12213.398043,-9806.022374
165.610828,1850.514855,11473.192101,5362.668486
165.611138,2146.597232,4589.276840,6971.469032
165.611447,-4737.318029,-1998.556043,5822.325785
165.611757,-8734.430116,3849.070898,12257.527968
165.612066,-6513.812290,1110.308913,1991.848295
165.612376,7328.038826,11843.295072,-21833.721693
165.612685,666.185348,19541.436869,-16624.272307
165.612995,1036.288319,19245.354492,-4826.401637
165.613304,-3108.864956,11473.192101,-2757.943793
165.613614,-6957.935855,12583.501014,3447.429741
165.613923,1332.370696,7105.977043,6971.469032
165.614233,-0.000000,2960.823768,-2068.457845
165.614542,-3330.926739,3552.988522,-153.219100
165.614852,4441.235652,9474.636058,5286.058936
165.615161,6291.750507,5477.523971,-4290.134789
165.615470,3775.050304,7550.100608,-7660.954980
165.615780,-1406.391290,11769.274478,7507.735880
165.616089,-4219.173869,8882.471304,7507.735880
165.616399,3034.844362,11325.150913,-11031.775171
165.616708,444.123565,15618.345376,-4903.011187
165.617018,-1110.308913,9252.574275,3907.087040
165.617327,-148.041188,11769.274478,-6052.154434
165.617637,-3997.112087,14804.118840,-536.266849
165.617946,7698.141797,15618.345376,-1608.800546
165.618256,1850.514855,14211.954086,-12563.966167
165.618565,-2442.679609,13323.706956,-1991.848295
165.618875,-0.000000,12435.459826,10418.898773
165.619184,3627.009116,4515.256246,-2681.334243
165.619494,1554.432478,3478.967927,-6052.154434
165.619803,-10955.047942,148.041188,16164.615008
165.620113,1480.411884,1332.370696,1225.752797
165.620422,6883.915261,6439.791695,-27579.437928
165.620731,1776.494261,14582.057057,-7201.297681
165.621041,-5699.585753,11029.068536,17390.367805
165.621350,-1036.288319,10807.006753,0.000000
165.621660,-666.185348,6957.935855,-3140.991542
165.621969,-4737.318029,2516.700203,9499.584175
165.622279,1036.288319,6143.709319,-1149.143247
165.622588,-0.000000,13027.624579,-9499.584175
165.622898,4219.173869,19689.478057,-1838.629195
165.623207,3108.864956,13989.892304,-3064.381992
165.623517,3404.947333,5995.668130,-4519.963438
165.623826,-6143.709319,8068.244768,15245.300410
165.624136,-4515.256246,7920.203579,9729.412825
165.624445,3627.009116,3701.029710,-14249.376263
165.624755,3256.906145,10214.842000,-8120.612279
165.625064,1184.329507,8808.450710,3600.648841
165.625373,1480.411884,7920.203579,-4290.134789
165.625683,1480.411884,12731.542202,-3677.258390
165.625992,2738.761985,7179.997637,6971.469032
165.626302,-1258.350101,5329.482782,6818.249932
165.626611,-2368.659014,8734.430116,6205.373534
165.626921,1850.514855,12953.603985,-383.047749
165.627230,2442.679609,13323.706956,-9806.022374
165.627540,-2664.741391,7402.059420,-4136.915689
165.627849,-3404.947333,13471.748144,2451.505594
165.628159,-0.000000,12361.439231,-6894.859482
165.628468,-2960.823768,13619.789333,-12640.575717
165.628778,-2442.679609,16580.613101,-1225.752797
165.629087,-5033.400406,5551.544565,-1378.971896
165.629397,-740.205942,6439.791695,-5592.497135
165.629706,-3182.885551,7772.162391,3983.696590
165.630016,-1258.350101,1628.453072,4979.620737
165.630325,1406.391290,296.082377,-4979.620737
165.630634,-2664.741391,3997.112087,919.314598
165.630944,2294.638420,10955.047942,3217.601092
165.631253,6439.791695,9548.656652,-8120.612279
165.631563,-7698.141797,5625.565159,1915.238745
165.631872,-7105.977043,11991.336260,12793.794817
165.632182,-1998.556043,6143.709319,-8963.317327
165.632491,2072.576638,9548.656652,-20071.702048
165.632801,-1258.350101,18801.230927,-4136.915689
165.633110,370.102971,17394.839637,-3370.820191
165.633420,5921.647536,14434.015869,-10955.165621
165.633729,-0.000000,14730.098246,5515.887586
165.634039,-4441.235652,4441.235652,14096.157163
165.634348,-222.061783,3849.070898,1455.581446
165.634658,3478.967927,7846.182985,-7354.516781
165.634967,740.205942,7105.977043,-2451.505594
165.635277,7031.956449,9548.656652,-9652.803275
165.635586,-444.123565,7624.121203,-4903.011187
165.635895,-2220.617826,8364.327145,7201.297681
165.636205,1628.453072,9474.636058,2221.676944
165.636514,-1850.514855,5255.462188,-4826.401637
165.636824,-518.144159,13323.706956,383.047749
165.637133,-5181.441594,8956.491898,-1455.581446
165.637443,6069.688724,13175.665768,-13330.061665
165.637752,1702.473667,15100.201217,-8044.002729
165.638062,-6143.709319,6809.894666,6818.249932
165.638371,-0.000000,12361.439231,3217.601092
165.638681,2516.700203,10881.027347,-4060.306139
165.638990,-1258.350101,10066.800811,-4443.353888
165.639300,-7328.038826,11103.089130,3064.381992
165.639609,-2368.659014,5699.585753,0.000000
165.639919,11547.212695,5625.565159,-16930.710506
165.640228,-2368.659014,5921.647536,-8810.098227
165.640538,-7476.080014,3404.947333,14938.862211
165.640847,592.164754,10732.986159,8886.707777
165.641156,5921.647536,5551.544565,-3370.820191
165.641466,888.247130,12657.521608,3064.381992
165.641775,-7846.182985,12583.501014,10801.946522
165.642085,2442.679609,9178.553681,-6818.249932
165.642394,296.082377,14508.036463,-15475.129060
165.642704,-666.185348,15396.283594,-1991.848295
165.643013,2738.761985,14211.954086,-229.828649
165.643323,-7328.038826,16506.592507,-2528.115143
165.643632,-3108.864956,14063.912898,4519.963438
165.643942,2590.720797,8512.368333,-2604.724693
165.644251,888.247130,8216.285956,-13176.842566
165.644561,3404.947333,888.247130,-153.219100
165.644870,-1332.370696,4885.359217,7431.126331
165.645180,2368.659014,5329.482782,0.000000
165.645489,-740.205942,1998.556043,3677.258390
165.645799,1332.370696,9178.553681,7431.126331
165.646108,1628.453072,2886.803174,-5056.230287
165.646417,370.102971,10066.800811,-3140.991542
165.646727,-5699.585753,14730.098246,10418.898773
165.647036,-5033.400406,10436.903782,842.705048
165.647346,1184.329507,14582.057057,-18079.853753
165.647655,-4367.215058,15766.386565,-16317.834107
165.647965,-0.000000,13841.851115,-7048.078582
165.648274,-1702.473667,19837.519246,-5362.668486
165.648584,-3552.988522,11695.253884,4519.963438
165.648893,3849.070898,7402.059420,11261.603821
165.649203,-1924.535449,7328.038826,1991.848295
165.649512,-3256.906145,-814.226536,1838.629195
165.649822,4219.173869,6365.771101,-3753.867940
165.650131,5477.523971,6513.812290,-13789.718964
165.650441,-1036.288319,10436.903782,-3140.991542
165.650750,666.185348,10658.965565,8427.050478
165.651059,-740.205942,2664.741391,2834.553343
165.651369,1776.494261,6217.729913,0.000000
165.651678,-7772.162391,8956.491898,5822.325785
165.651988,-3330.926739,5403.503377,-383.047749
165.652297,6291.750507,19615.457463,-17620.196454
165.652607,148.041188,15692.365970,-12793.794817
165.652916,-444.123565,13989.892304,-689.485948
165.653226,-888.247130,18357.107362,-1532.190996
165.653535,-5995.668130,10658.965565,536.266849
165.653845,5995.668130,11695.253884,229.828649
165.654154,-962.267725,3330.926739,-4826.401637
165.654464,-666.185348,3478.967927,-766.095498
165.654773,1850.514855,4145.153275,5439.278036
165.655083,2590.720797,444.123565,-3447.429741
165.655392,3256.906145,4737.318029,-3447.429741
165.655702,-4737.318029,8142.265362,6665.030833
165.656011,-3701.029710,5847.626942,3447.429741
165.656320,3108.864956,10214.842000,-11721.261119
165.656630,-0.000000,10955.047942,-9039.926876
165.656939,-1110.308913,8290.306550,766.095498
165.657249,-222.061783,16210.510130,2068.457845
165.657558,-888.247130,10732.986159,-4749.792088
165.657868,6439.791695,10584.944971,-6435.202183
165.658177,2220.617826,11843.295072,-4826.401637
165.658487,-5033.400406,10436.903782,919.314598
165.658796,2146.597232,12435.459826,3600.648841
165.659106,2812.782580,7624.121203,-3983.696590
165.659415,-2664.741391,5477.523971,-5592.497135
165.659725,-1480.411884,8734.430116,-2604.724693
165.660034,1332.370696,3182.885551,-7507.735880
165.660344,4071.132681,8512.368333,-6818.249932
165.660653,-2886.803174,13989.892304,6358.592633
165.660963,2590.720797,4515.256246,6052.154434
165.661272,2812.782580,8216.285956,306.438199
165.661581,-5995.668130,7328.038826,3677.258390
165.661891,1258.350101,7550.100608,842.705048
165.662200,2738.761985,13767.830521,-11568.042020
165.662510,-2294.638420,14508.036463,-9806.022374
165.662819,3478.967927,19245.354492,919.314598
165.663129,-1776.494261,12583.501014,-3983.696590
165.663438,-7624.121203,10955.047942,-4979.620737
165.663748,-740.205942,12065.356855,3064.381992
165.664057,6513.812290,740.205942,-9422.974625
165.664367,3701.029710,2812.782580,-10418.898773
165.664676,-6513.812290,9030.512492,14709.033562
165.664986,-2590.720797,1554.432478,15398.519510
165.665295,1332.370696,7994.224174,-5975.544884
165.665605,-1406.391290,9992.780217,-7507.735880
165.665914,-814.226536,8364.327145,-5209.449386
165.666224,-444.123565,15914.427753,-14019.547613
165.666533,148.041188,12435.459826,-7431.126331
165.666842,2664.741391,9770.718434,3294.210641
165.667152,-1776.494261,8364.327145,4290.134789
165.667461,-2368.659014,4589.276840,7354.516781
165.667771,-6587.832884,10214.842000,11721.261119
165.668080,-2220.617826,8438.347739,-6128.763984
165.668390,7698.141797,14434.015869,-23595.741338
165.668699,3108.864956,15026.180623,-12257.527968
165.669009,-2368.659014,7105.977043,153.219100
165.669318,-4145.153275,8734.430116,0.000000
165.669628,-6365.771101,9400.615463,9729.412825
165.669937,592.164754,6291.750507,7201.297681
165.670247,3108.864956,8956.491898,-8810.098227
165.670556,-0.000000,8956.491898,-3753.867940
165.670866,4885.359217,10214.842000,2374.896044
165.671175,296.082377,12361.439231,-3370.820191
165.671485,-1702.473667,7624.121203,-3753.867940
165.671794,2294.638420,9844.739029,-1685.410096
165.672103,-5921.647536,6069.688724,-4673.182538
165.672413,-1036.288319,14434.015869,-1608.800546
165.672722,-222.061783,19319.375086,612.876398
165.673032,5551.544565,6809.894666,-10342.289223
165.673341,2146.597232,11399.171507,-5209.449386
165.673651,-5107.421000,8438.347739,7890.783629
165.673960,148.041188,6587.832884,766.095498
165.674270,6069.688724,13545.768739,-6128.763984
165.674579,-4737.318029,11547.212695,3447.429741
165.674889,1258.350101,7846.182985,2221.676944
165.675198,-962.267725,11325.150913,-4596.572988
165.675508,-4367.215058,4811.338623,-3447.429741
165.675817,4737.318029,5847.626942,-1685.410096
165.676127,1628.453072,4071.132681,-3830.477490
165.676436,-592.164754,10288.862594,-306.438199
165.676745,666.185348,13471.748144,4290.134789
165.677055,-0.000000,3552.988522,-229.828649
165.677364,1554.432478,11399.171507,-6281.983084
165.677674,-4145.153275,10140.821405,-383.047749
165.677983,-2738.761985,8734.430116,-3370.820191
165.678293,1850.514855,15988.448347,-7124.688131
165.678602,3256.906145,12583.501014,-7048.078582
165.678912,4663.297435,13027.624579,-2374.896044
165.679221,-3034.844362,9548.656652,1149.143247
165.679531,-3034.844362,2220.617826,7277.907231
165.679840,3256.906145,3182.885551,2681.334243
165.680150,-2590.720797,8660.409521,-1991.848295
165.680459,1332.370696,7105.977043,0.000000
165.680769,2516.700203,10732.986159,-6511.811733
165.681078,-370.102971,9770.718434,-9499.584175
165.681388,-2368.659014,14730.098246,-1532.190996
165.681697,1184.329507,8586.388927,4366.744339
165.682006,-3775.050304,2072.576638,-306.438199
165.682316,1554.432478,11843.295072,5592.497135
165.682625,-740.205942,11251.130318,3217.601092
165.682935,5107.421000,10362.883188,-8963.317327
165.683244,3182.885551,15766.386565,-2298.286494
165.683554,-2738.761985,8956.491898,842.705048
165.683863,2072.576638,9252.574275,-3064.381992
165.684173,-2960.823768,9696.697840,153.219100
165.684482,-4441.235652,5033.400406,2604.724693
165.684792,3923.091493,5033.400406,-2221.676944
165.685101,814.226536,7179.997637,-4519.963438
165.685411,-5995.668130,10510.924376,2221.676944
165.685720,1480.411884,11695.253884,-919.314598
165.686030,5921.647536,9030.512492,-10189.070123
165.686339,-740.205942,10362.883188,1455.581446
165.686649,-2590.720797,11325.150913,10878.556072
165.686958,-148.041188,9178.553681,-536.266849
165.687267,1406.391290,8290.306550,-3600.648841
165.687577,-4589.276840,5477.523971,2528.115143
165.687886,-2072.576638,11251.130318,1455.581446
165.688196,2738.761985,16728.654289,-8427.050478
165.688505,-148.041188,13323.706956,-12180.918418
165.688815,6069.688724,14211.954086,-8503.660028
165.689124,-444.123565,8882.471304,3524.039291
165.689434,-7994.224174,11769.274478,3830.477490
165.689743,4589.276840,14656.077652,-2374.896044
165.690053,3404.947333,1184.329507,-4903.011187
165.690362,-1628.453072,7846.182985,4979.620737
165.690672,-3701.029710,6957.935855,11108.384721
165.690981,9252.574275,5255.462188,76.609550
165.691291,3701.029710,7772.162391,-6511.811733
165.691600,-5773.606348,7772.162391,5132.839837
165.691910,-3404.947333,10584.944971,8120.612279
165.692219,-592.164754,9178.553681,-8963.317327
165.692528,-222.061783,16950.716072,-9499.584175
165.692838,-518.144159,16358.551318,-3064.381992
165.693147,-3849.070898,14804.118840,-10035.851024
165.693457,296.082377,15248.242405,-7201.297681
165.693766,1258.350101,14582.057057,-4826.401637
165.694076,2738.761985,6143.709319,-536.266849
165.694385,-1036.288319,5921.647536,3830.477490
165.694695,2960.823768,6957.935855,11108.384721
165.695004,6661.853478,2220.617826,7584.345430
165.695314,-2368.659014,3701.029710,995.924147
165.695623,-3256.906145,3182.885551,5898.935335
165.695933,4589.276840,7328.038826,-2221.676944
165.696242,1554.432478,11325.150913,-14555.814462
165.696552,444.123565,9622.677246,-3600.648841
165.696861,-2146.597232,11843.295072,3600.648841
165.697170,-3108.864956,11473.192101,0.000000
165.697480,-592.164754,12065.356855,-2834.553343
165.697789,-592.164754,13915.871710,3447.429741
165.698099,-4367.215058,15470.304188,1685.410096
165.698408,7476.080014,13027.624579,-7507.735880
165.698718,7402.059420,14582.057057,-6052.154434
165.699027,-3330.926739,11177.109724,766.095498
165.699337,-5403.503377,8956.491898,4443.353888
165.699646,2146.597232,8586.388927,0.000000
165.699958,-814.226536,2886.803174,-6205.373534
165.700267,2072.576638,5181.441594,-3294.210641
165.700577,-1332.370696,1332.370696,4136.915689
165.700886,5699.585753,5477.523971,-2451.505594
165.701196,666.185348,4219.173869,-1915.238745
165.701505,-2220.617826,7846.182985,6511.811733
165.701815,-3701.029710,10362.883188,7814.174080
165.702124,-962.267725,10288.862594,-919.314598
165.702434,4367.215058,16506.592507,-8273.831378
165.702743,592.164754,19245.354492,-8120.612279
165.703053,-4959.379811,11769.274478,-1225.752797
165.703362,-3330.926739,12139.377449,536.266849
165.703672,1554.432478,14508.036463,-7890.783629
165.703982,592.164754,11325.150913,-9193.145976
165.704291,-1110.308913,8438.347739,-766.095498
165.704601,2072.576638,7994.224174,2757.943793
165.704910,4367.215058,6439.791695,1762.019645
165.705220,4811.338623,2812.782580,3907.087040
165.705529,-5329.482782,-444.123565,8350.440928
165.705839,2368.659014,5403.503377,7124.688131
165.706148,2072.576638,5773.606348,-2757.943793
165.706458,4515.256246,11547.212695,-10112.460574
165.706767,1332.370696,16358.551318,-2528.115143
165.707077,-6069.688724,9104.533087,6358.592633
165.707386,-2442.679609,16210.510130,2145.067394
165.707696,740.205942,14952.160028,-9269.755526
165.708005,-1924.535449,10066.800811,-6511.811733
165.708315,-1258.350101,13101.645173,-2451.505594
165.708624,888.247130,14878.139434,-3370.820191
165.708934,8956.491898,4885.359217,-1455.581446
165.709243,-518.144159,7105.977043,3294.210641
165.709553,-4959.379811,4367.215058,7354.516781
165.709862,666.185348,-0.000000,5515.887586
165.710172,3775.050304,3849.070898,-2911.162892
165.710481,2146.597232,6439.791695,-5286.058936
165.710791,3256.906145,8142.265362,2528.115143
165.711100,-2220.617826,6661.853478,4596.572988
165.711410,444.123565,6735.874072,-995.924147
165.711719,-0.000000,13397.727550,-612.876398
165.712029,-6883.915261,13249.686362,3217.601092
165.712338,-888.247130,18283.086767,-4366.744339
165.712648,4737.318029,18801.230927,-12257.527968
165.712957,1332.370696,13397.727550,-9116.536426
165.713267,888.247130,12435.459826,-4366.744339
165.713576,-2590.720797,6735.874072,6511.811733
165.713886,592.164754,11991.336260,6205.373534
165.714195,370.102971,5773.606348,1608.800546
165.714505,-444.123565,5995.668130,306.438199
165.714815,3108.864956,8290.306550,-6205.373534
165.715124,-2146.597232,4441.235652,-4903.011187
165.715434,2442.679609,5921.647536,-842.705048
165.715743,740.205942,5995.668130,2911.162892
165.716053,-3404.947333,8142.265362,3907.087040
165.716362,444.123565,9474.636058,2987.772442
165.716672,222.061783,8068.244768,-3983.696590
165.716981,4071.132681,9252.574275,-7584.345430
165.717291,-370.102971,13619.789333,-689.485948
165.717600,-1702.473667,14063.912898,5132.839837
165.717910,-296.082377,11769.274478,0.000000
165.718219,296.082377,13101.645173,-7431.126331
165.718529,-2294.638420,10436.903782,-5592.497135
165.718838,-666.185348,12879.583391,-2528.115143
165.719148,-3182.885551,10288.862594,-1915.238745
165.719457,-2442.679609,9104.533087,-2681.334243
165.719767,4811.338623,7920.203579,-1378.971896
165.720076,-222.061783,148.041188,-919.314598
165.720386,-0.000000,7994.224174,4213.525239
165.720695,2590.720797,7846.182985,5592.497135
165.721005,-592.164754,2146.597232,3294.210641
165.721314,3404.947333,10807.006753,2681.334243
165.721624,-3034.844362,6883.915261,1685.410096
165.721933,-2664.741391,11621.233289,-229.828649
165.722243,-1332.370696,18431.127956,-8733.488677
165.722552,1628.453072,14211.954086,-14785.643111
165.722862,1702.473667,15840.407159,-9422.974625
165.723171,-4959.379811,18949.272115,2221.676944
165.723481,-1406.391290,14211.954086,1915.238745
165.723790,3923.091493,9326.594869,-2834.553343
165.724100,888.247130,5033.400406,1685.410096
165.724409,-5625.565159,5921.647536,9806.022374
165.724719,5477.523971,6661.853478,2451.505594
165.725028,6291.750507,1036.288319,-9039.926876
165.725338,1184.329507,4885.359217,-612.876398
165.725648,-5181.441594,6291.750507,11568.042020
165.725957,-8364.327145,9252.574275,5822.325785
165.726267,8512.368333,13841.851115,-12717.185267
165.726576,4515.256246,9770.718434,-13559.890315
165.726886,-222.061783,11991.336260,76.609550
165.727195,-4737.318029,15026.180623,7660.954980
165.727505,3182.885551,11399.171507,2834.553343
165.727814,7105.977043,16136.489536,-3370.820191
165.728124,-7179.997637,8882.471304,2451.505594
165.728433,-5773.606348,14508.036463,5592.497135
165.728743,9622.677246,15100.201217,-12410.747068
165.729052,5329.482782,7550.100608,-18309.682402
165.729362,-6513.812290,13323.706956,1072.533697
165.729671,-2368.659014,12805.562797,8810.098227
165.729981,3849.070898,518.144159,-3983.696590
165.730290,6069.688724,1924.535449,1838.629195
165.730600,-296.082377,4515.256246,13406.671215
165.730909,-7105.977043,-296.082377,8273.831378
165.731219,6587.832884,9252.574275,-3370.820191
165.731528,3627.009116,4811.338623,-8503.660028
165.731838,-74.020594,11473.192101,-6435.202183
165.732147,-9400.615463,14804.118840,1455.581446
165.732457,370.102971,15396.283594,-5286.058936
165.732766,7772.162391,19245.354492,-12563.966167
165.733076,-5551.544565,15248.242405,3294.210641
165.733385,-10584.944971,11769.274478,9882.631924
165.733695,3849.070898,7254.018232,-842.705048
165.734004,7550.100608,2738.761985,-15321.909960
165.734314,-2886.803174,5921.647536,1532.190996
165.734623,-2590.720797,8216.285956,10265.679673
165.734933,5181.441594,4737.318029,-6128.763984
165.735242,5699.585753,5329.482782,-5745.716235
165.735552,-5551.544565,5699.585753,13636.499864
165.735861,-2886.803174,5773.606348,8503.660028
165.736171,1184.329507,7846.182985,-7431.126331
165.736481,2442.679609,12139.377449,-7814.174080
165.736790,1110.308913,17764.942608,-6894.859482
165.737100,-4145.153275,9030.512492,-2987.772442
165.737409,-148.041188,13693.809927,3370.820191
165.737719,2220.617826,20429.683999,-1072.533697
165.738028,-4219.173869,11177.109724,-2528.115143
165.738338,-3701.029710,14434.015869,2145.067394
165.738647,148.041188,7846.182985,-1762.019645
165.738957,8438.347739,7772.162391,-10265.679673
165.739266,-0.000000,8364.327145,-3830.477490
165.739576,-2220.617826,4145.153275,8580.269578
165.739885,1406.391290,4737.318029,4136.915689
165.740195,444.123565,4811.338623,0.000000
165.740504,-1628.453072,2886.803174,2451.505594
165.740814,-74.020594,7254.018232,-4213.525239
165.741123,-1258.350101,5995.668130,-6281.983084
165.741433,-296.082377,10066.800811,-1762.019645
165.741742,4737.318029,13545.768739,-2145.067394
165.742052,-8808.450710,9474.636058,-1838.629195
165.742361,-666.185348,14285.974681,5286.058936
165.742671,3478.967927,11843.295072,-3140.991542
165.742980,-74.020594,11029.068536,-13330.061665
165.743290,-2442.679609,16358.551318,-1608.800546
165.743599,-2886.803174,10881.027347,2604.724693
165.743909,4515.256246,6365.771101,-10495.508323
165.744218,1554.432478,10214.842000,-4596.572988
165.744528,-5699.585753,5033.400406,6205.373534
165.744837,2590.720797,4367.215058,1991.848295
165.745147,3701.029710,6143.709319,-3064.381992
165.745456,-962.267725,6735.874072,4903.011187
165.745766,814.226536,9104.533087,4903.011187
165.746075,-1406.391290,8142.265362,-2451.505594
165.746385,4219.173869,14285.974681,-6128.763984
165.746694,370.102971,12509.480420,-4366.744339
165.747004,-962.267725,12657.521608,-3064.381992
165.747314,-7105.977043,17542.880825,2681.334243
165.747623,-1110.308913,14804.118840,-3064.381992
165.747933,3849.070898,13175.665768,-14555.814462
165.748242,-1554.432478,11547.212695,-6052.154434
165.748552,-3182.885551,7402.059420,8733.488677
165.748861,4515.256246,9252.574275,2757.943793
165.749171,4367.215058,5921.647536,-3677.258390
165.749480,-2812.782580,5551.544565,8656.879127
165.749790,-1036.288319,3256.906145,7201.297681
165.750099,1480.411884,1554.432478,-5515.887586
165.750409,-888.247130,8512.368333,-7660.954980
165.750718,962.267725,10066.800811,-5745.716235
165.751028,-3108.864956,7328.038826,-3753.867940
165.751337,-3256.906145,13027.624579,459.657299
165.751647,518.144159,16580.613101,2911.162892
165.751956,-962.267725,16284.530724,-5209.449386
165.752266,4145.153275,12065.356855,-1991.848295
165.752575,-666.185348,10066.800811,5132.839837
165.752885,-1332.370696,9548.656652,2451.505594
165.753194,-888.247130,9918.759623,-4979.620737
165.753504,-4885.359217,10807.006753,-6588.421283
165.753813,1702.473667,12435.459826,-7048.078582
165.754123,1258.350101,7476.080014,-8503.660028
165.754432,-1110.308913,11769.274478,-229.828649
165.754742,4293.194464,8142.265362,3370.820191
165.755051,-2516.700203,296.082377,4136.915689
165.755361,-5181.441594,4589.276840,10955.165621
165.755670,370.102971,4589.276840,2145.067394
165.755980,6587.832884,5551.544565,-16777.491406
165.756289,1628.453072,12731.542202,-6665.030833
165.756599,-3108.864956,13027.624579,8044.002729
165.756908,1184.329507,11695.253884,689.485948
165.757218,-2664.741391,13101.645173,-2681.334243
165.757527,-5033.400406,14211.954086,2528.115143
165.757837,-1776.494261,9992.780217,-1838.629195
165.758147,2368.659014,13545.768739,-11951.089769
165.758456,-4071.132681,11399.171507,-6971.469032
165.758766,4959.379811,10510.924376,-229.828649
165.759075,1924.535449,6513.812290,-3447.429741
165.759385,-4959.379811,10288.862594,2604.724693
165.759694,-2738.761985,9770.718434,8044.002729
165.760004,4589.276840,2664.741391,-3217.601092
165.760313,3701.029710,5477.523971,-9806.022374
165.760623,-370.102971,4663.297435,4903.011187
165.760932,-3034.844362,5847.626942,8044.002729
165.761242,4071.132681,4885.359217,-1149.143247
165.761551,518.144159,11695.253884,-383.047749
165.761861,-1924.535449,12583.501014,1838.629195
165.762170,-5107.421000,11769.274478,-842.705048
165.762480,370.102971,19541.436869,-10265.679673
165.762789,3923.091493,16950.716072,-15781.567259
165.763099,-5181.441594,11621.233289,-5745.716235
165.763408,-5181.441594,17246.798449,3830.477490
165.763718,1850.514855,11029.068536,-3983.696590
165.764027,3404.947333,8068.244768,-6818.249932
165.764337,-2516.700203,6143.709319,9193.145976
165.764646,4589.276840,3627.009116,9116.536426
165.764956,6217.729913,3034.844362,-1149.143247
165.765265,-2294.638420,5107.421000,5286.058936
165.765575,-5847.626942,3627.009116,7814.174080
165.765884,4811.338623,6217.729913,-7201.297681
165.766194,2294.638420,6291.750507,-14325.985813
165.766503,-2812.782580,11399.171507,-4366.744339
165.766813,-1110.308913,15396.283594,-2221.676944
165.767122,1258.350101,10658.965565,-6588.421283
165.767432,-4737.318029,16062.468941,4903.011187
165.767741,-222.061783,14211.954086,6818.249932
165.768051,2664.741391,6957.935855,-2757.943793
165.768360,-1258.350101,13693.809927,-3447.429741
165.768670,2960.823768,13545.768739,-3600.648841
165.768980,3552.988522,7772.162391,-6818.249932
165.769289,-5107.421000,6661.853478,2604.724693
165.769599,-2368.659014,9992.780217,5515.887586
165.769908,1998.556043,7920.203579,-9806.022374
165.770218,814.226536,8660.409521,-11491.432470
165.770527,-3108.864956,4737.318029,3677.258390
165.770837,2738.761985,5625.565159,0.000000
165.771146,6513.812290,4367.215058,-5515.887586
165.771456,-592.164754,7550.100608,6205.373534
165.771765,518.144159,9030.512492,9422.974625
165.772075,-370.102971,7994.224174,-459.657299
165.772384,-74.020594,16358.551318,-5286.058936
165.772694,3182.885551,19097.313304,-11797.870669
165.773003,-3404.947333,15322.262999,-10572.117872
165.773313,-7328.038826,17172.777854,-1685.410096
165.773622,-0.000000,15544.324782,-536.266849
165.773932,8882.471304,10214.842000,-14096.157163
165.774241,-4071.132681,4811.338623,-766.095498
165.774551,-10436.903782,4811.338623,19612.044749
165.774860,5773.606348,3627.009116,1302.362347
165.775170,8068.244768,3034.844362,-10572.117872
165.775479,-1998.556043,5403.503377,5286.058936
165.775789,-6809.894666,7846.182985,9729.412825
165.776098,814.226536,6513.812290,-5515.887586
165.776408,9622.677246,14211.954086,-15168.690860
165.776717,-0.000000,16210.510130,-7431.126331
165.777027,-5033.400406,11547.212695,4366.744339
165.777336,-7402.059420,14730.098246,6052.154434
165.777646,1480.411884,13175.665768,-2834.553343
165.777955,1406.391290,9474.636058,-8733.488677
165.778265,-4589.276840,11621.233289,-4290.134789
165.778574,-1184.329507,9178.553681,76.609550
165.778884,8068.244768,13619.789333,-8273.831378
165.779193,740.205942,7624.121203,-4519.963438
165.779503,-3701.029710,6661.853478,9576.193725
165.779813,-148.041188,5033.400406,10035.851024
165.780122,-1110.308913,5773.606348,2834.553343
165.780432,1702.473667,6291.750507,-4213.525239
165.780741,3256.906145,5625.565159,-6435.202183
165.781051,-5847.626942,8734.430116,-4903.011187
165.781360,-518.144159,15470.304188,153.219100
165.781670,1924.535449,13027.624579,-2451.505594
165.781979,4515.256246,11177.109724,-8733.488677
165.782289,-4959.379811,11473.192101,5669.106685
165.782598,-6439.791695,10140.821405,8810.098227
165.782908,4811.338623,9992.780217,-6052.154434
165.783217,5033.400406,7254.018232,-8503.660028
165.783527,-1628.453072,7105.977043,2451.505594
165.783836,-3256.906145,13471.748144,4213.525239
165.784146,-1628.453072,7994.224174,-4673.182538
165.784455,1924.535449,12953.603985,-12947.013916
165.784765,1702.473667,8068.244768,-6358.592633
165.785074,-2812.782580,4145.153275,2757.943793
165.785384,-3256.906145,6069.688724,5132.839837
165.785693,4219.173869,6735.874072,1072.533697
165.786003,3256.906145,6587.832884,229.828649
165.786312,-1332.370696,6217.729913,3600.648841
165.786622,2294.638420,11769.274478,2145.067394
165.786931,962.267725,11843.295072,-4903.011187
165.787241,-814.226536,15100.201217,-1532.190996
165.787550,148.041188,15026.180623,-2068.457845
165.787860,-3478.967927,12731.542202,-2298.286494
165.788169,-3627.009116,13841.851115,383.047749
165.788479,296.082377,11473.192101,-7890.783629
165.788788,2960.823768,7105.977043,-12257.527968
165.789098,-3478.967927,6809.894666,1685.410096
165.789407,-5773.606348,13027.624579,12257.527968
165.789717,5921.647536,8142.265362,-2374.896044
165.790026,6513.812290,4219.173869,-7584.345430
165.790336,1480.411884,7476.080014,1378.971896
165.790646,1110.308913,-592.164754,5209.449386
165.790955,592.164754,4589.276840,3064.381992
165.791265,-2442.679609,5625.565159,4213.525239
165.791574,444.123565,9548.656652,0.000000
165.791884,2072.576638,13323.706956,-8120.612279
165.792193,740.205942,11399.171507,-9806.022374
165.792503,-2294.638420,15248.242405,-2757.943793
165.792812,-1406.391290,16876.695478,1455.581446
165.793122,-3997.112087,20947.828159,536.266849
165.793431,-814.226536,15026.180623,-6052.154434
165.793741,4885.359217,11251.130318,-10418.898773
165.794050,3552.988522,3701.029710,-5669.106685
165.794360,-2738.761985,5255.462188,7124.688131
165.794669,1702.473667,6661.853478,9346.365076
165.794979,-3182.885551,7476.080014,4060.306139
165.795288,888.247130,8290.306550,2451.505594
165.795598,2738.761985,222.061783,0.000000
165.795907,962.267725,6587.832884,-6511.811733
165.796217,2294.638420,6143.709319,-7584.345430
165.796526,-3849.070898,9178.553681,842.705048
165.796836,-3182.885551,11251.130318,4673.182538
165.797145,2072.576638,11917.315666,-1302.362347
165.797455,-1184.329507,17320.819043,-3753.867940
165.797764,-1332.370696,13323.706956,-2604.724693
165.798074,-1850.514855,11103.089130,-2298.286494
165.798383,-444.123565,17542.880825,-2604.724693
165.798693,3997.112087,14508.036463,-6281.983084
165.799002,3034.844362,7772.162391,-4519.963438
165.799312,-6513.812290,8216.285956,4443.353888
165.799621,-1258.350101,6661.853478,7737.564530
165.799931,3330.926739,4885.359217,-4290.134789
165.800240,2072.576638,2812.782580,-995.924147
165.800550,296.082377,4663.297435,5439.278036
165.800859,3849.070898,5181.441594,-2757.943793
165.801169,-74.020594,3627.009116,-5745.716235
165.801479,-888.247130,9992.780217,7507.735880
165.801788,-6217.729913,11029.068536,7660.954980
165.802098,6957.935855,11103.089130,-6205.373534
165.802407,-2442.679609,16358.551318,-7507.735880
165.802716,-148.041188,14878.139434,-5898.935335
165.803026,4515.256246,10955.047942,-8580.269578
165.803335,-7698.141797,17616.901420,-536.266849
165.803645,-2886.803174,14952.160028,1072.533697
165.803954,4737.318029,9104.533087,-10265.679673
165.804264,4219.173869,6069.688724,-10035.851024
165.804573,-592.164754,3034.844362,1685.410096
165.804883,1850.514855,2146.597232,9729.412825
165.805192,2072.576638,2368.659014,8120.612279
165.805502,-148.041188,4737.318029,9346.365076
165.805811,2516.700203,4071.132681,5515.887586
165.806121,-1998.556043,3701.029710,-6894.859482
165.806430,-666.185348,12657.521608,-10035.851024
165.806740,1184.329507,14582.057057,-7277.907231
165.807049,-3182.885551,17320.819043,-3217.601092
165.807359,-814.226536,20429.683999,-1225.752797
165.807668,3849.070898,13915.871710,-4596.572988
165.807978,-2220.617826,9918.759623,-1838.629195
165.808287,-1776.494261,11917.315666,4749.792088
165.808597,1554.432478,9696.697840,76.609550
165.808906,4589.276840,7698.141797,-5669.106685
165.809216,-3034.844362,7031.956449,4366.744339
165.809525,-1480.411884,5551.544565,4366.744339
165.809835,3627.009116,5551.544565,-9346.365076
165.810144,3330.926739,8290.306550,-6665.030833
165.810454,-2738.761985,6365.771101,3370.820191
165.810763,-518.144159,2442.679609,8273.831378
165.811073,6217.729913,2960.823768,76.609550
165.811382,-1184.329507,8734.430116,1302.362347
165.811692,-3923.091493,7846.182985,9652.803275
165.812001,-296.082377,14211.954086,306.438199
165.812311,-1998.556043,17172.777854,-13253.452115
165.812620,3034.844362,17616.901420,-12257.527968
165.812930,-0.000000,17542.880825,-9269.755526
165.813239,-7105.977043,16506.592507,-5132.839837
165.813549,-444.123565,11769.274478,2451.505594
165.813858,4885.359217,8956.491898,-842.705048
165.814168,2294.638420,2812.782580,-1302.362347
165.814477,-592.164754,-814.226536,11108.384721
165.814787,962.267725,-1110.308913,5362.668486
165.815096,3701.029710,740.205942,-6894.859482
165.815405,2294.638420,8364.327145,2221.676944
165.815715,-2590.720797,5255.462188,3907.087040
165.816024,-1480.411884,12953.603985,-4136.915689
165.816334,1036.288319,11917.315666,-2451.505594
165.816643,-222.061783,13545.768739,-2604.724693
165.816953,-1036.288319,12213.398043,-5975.544884
165.817262,-444.123565,12213.398043,0.000000
165.817572,-2960.823768,13101.645173,3830.477490
165.817881,-666.185348,16580.613101,-1225.752797
165.818191,-3330.926739,11177.109724,-3217.601092
165.818500,-1036.288319,12361.439231,-2834.553343
165.818810,3182.885551,7031.956449,-7660.954980
165.819119,666.185348,2368.659014,-3294.210641
165.819429,-7772.162391,6809.894666,7814.174080
165.819738,3849.070898,7254.018232,2221.676944
165.820048,4885.359217,1924.535449,-6741.640382
165.820357,814.226536,3182.885551,2451.505594
165.820667,-0.000000,2368.659014,11184.994271
165.820976,814.226536,8142.265362,-766.095498
165.821286,444.123565,9918.759623,-3753.867940
165.821595,-1702.473667,9548.656652,4290.134789
165.821905,-4071.132681,13841.851115,-3064.381992
165.822214,-814.226536,15248.242405,-11261.603821
165.822524,-666.185348,19171.333898,-7967.393179
165.822833,1406.391290,15174.221811,-6818.249932
165.823143,-1554.432478,13027.624579,-4903.011187
165.823452,-5107.421000,16136.489536,4749.792088
165.823762,1850.514855,7402.059420,766.095498
165.824071,5477.523971,2664.741391,-6588.421283
165.824381,-4811.338623,1406.391290,9882.631924
165.824690,962.267725,1258.350101,7354.516781
165.825000,3478.967927,2516.700203,-3064.381992
165.825309,1924.535449,2072.576638,-1149.143247
165.825619,-296.082377,4959.379811,7967.393179
165.825928,-3775.050304,10881.027347,1225.752797
165.826238,518.144159,10288.862594,-8044.002729
165.826547,-592.164754,11325.150913,-5286.058936
165.826857,962.267725,15840.407159,-5056.230287
165.827166,-0.000000,13767.830521,-6818.249932
165.827475,-3627.009116,17912.983796,0.000000
165.827785,-222.061783,14878.139434,3907.087040
165.828094,-2146.597232,10066.800811,-1532.190996
165.828404,-2220.617826,14137.933492,1762.019645
165.828713,2664.741391,7402.059420,-1455.581446
165.829023,3182.885551,6439.791695,-12027.699319
165.829332,-2368.659014,6439.791695,-459.657299
165.829642,2146.597232,6069.688724,6741.640382
165.829951,3627.009116,6143.709319,-1915.238745
165.830261,-1924.535449,3552.988522,3294.210641
165.830570,-222.061783,4959.379811,10189.070123
165.830880,-1480.411884,5551.544565,-4979.620737
165.831189,3997.112087,5181.441594,-9806.022374
165.831499,-1110.308913,9918.759623,5056.230287
165.831808,-2886.803174,13545.768739,995.924147
165.832118,-222.061783,15470.304188,-2911.162892
165.832427,-1850.514855,23538.548956,-1149.143247
165.832737,-814.226536,14952.160028,-6205.373534
165.833046,1628.453072,12731.542202,-13483.280765
165.833356,-5255.462188,13175.665768,-3677.258390
165.833665,740.205942,8660.409521,0.000000
165.833975,5329.482782,8290.306550,-6281.983084
165.834284,-2220.617826,962.267725,4136.915689
165.834594,296.082377,4293.194464,13023.623466
165.834903,2442.679609,8068.244768,229.828649
165.835213,2886.803174,740.205942,-3370.820191
165.835522,-1480.411884,5773.606348,7660.954980
165.835832,1184.329507,8808.450710,3983.696590
165.836141,-370.102971,7920.203579,-9576.193725
165.836451,-2960.823768,16284.530724,229.828649
165.836760,-370.102971,15914.427753,-2221.676944
165.837070,370.102971,10362.883188,-9729.412825
165.837379,-3108.864956,17838.963202,-536.266849
165.837689,-4367.215058,10584.944971,7124.688131
165.837998,-0.000000,12065.356855,-2298.286494
165.838308,-1258.350101,11251.130318,-3600.648841
165.838617,2886.803174,10658.965565,-1149.143247
165.838927,814.226536,6587.832884,-4673.182538
165.839236,-3997.112087,740.205942,-919.314598
165.839546,-0.000000,6587.832884,5286.058936
165.839855,5033.400406,7550.100608,-3907.087040
165.840164,4589.276840,2442.679609,-6741.640382
165.840474,-4885.359217,6809.894666,11491.432470
165.840783,1184.329507,4885.359217,2681.334243
165.841093,4219.173869,3775.050304,-7584.345430
165.841402,-5255.462188,13397.727550,1378.971896
165.841712,-3108.864956,13249.686362,2451.505594
165.842021,2072.576638,15100.201217,-10801.946522
165.842331,814.226536,21836.075289,-6971.469032
165.842640,-2072.576638,19023.292709,2451.505594
165.842950,2072.576638,15766.386565,-10878.556072
165.843259,-2960.823768,10584.944971,-5898.935335
165.843569,518.144159,9400.615463,2298.286494
165.843878,5033.400406,3330.926739,-4060.306139
165.844188,-592.164754,-0.000000,0.000000
165.844497,-2516.700203,5921.647536,12257.527968
165.844807,5773.606348,6365.771101,1762.019645
165.845116,4145.153275,2590.720797,-7277.907231
165.845426,-5329.482782,6513.812290,8886.707777
165.845735,-1850.514855,8290.306550,4826.401637
165.846045,3552.988522,11103.089130,-13789.718964
165.846354,-1184.329507,16506.592507,-4213.525239
165.846664,-4737.318029,13619.789333,5056.230287
165.846973,-1702.473667,15100.201217,-8044.002729
165.847283,6513.812290,13249.686362,-10418.898773
165.847592,-1110.308913,12509.480420,5515.887586
165.847902,-3775.050304,15840.407159,4826.401637
165.848211,592.164754,7846.182985,-4903.011187
165.848521,1924.535449,10658.965565,0.000000
165.848830,1924.535449,3182.885551,-2298.286494
165.849140,-2146.597232,3034.844362,-5209.449386
165.849449,-2368.659014,7476.080014,3600.648841
165.849759,3182.885551,6365.771101,-1532.190996
165.850068,-1702.473667,4441.235652,-7507.735880
165.850378,-1554.432478,9548.656652,5592.497135
165.850687,-1628.453072,6439.791695,2221.676944
165.850997,2442.679609,7550.100608,-5898.935335
165.851306,444.123565,10436.903782,-2604.724693
165.851616,-3478.967927,9992.780217,4366.744339
165.851925,-2590.720797,17912.983796,-1915.238745
165.852235,1554.432478,14137.933492,-7967.393179
165.852544,222.061783,16654.633695,-6818.249932
165.852853,666.185348,13989.892304,-2834.553343
165.853163,-2294.638420,8808.450710,-3753.867940
165.853472,-3627.009116,14730.098246,0.000000
165.853782,6217.729913,7031.956449,-4213.525239
165.854091,2738.761985,-2368.659014,-4443.353888
165.854401,-3923.091493,7105.977043,6588.421283
165.854710,-74.020594,6735.874072,3294.210641
165.855020,6143.709319,4959.379811,-4290.134789
165.855329,-1406.391290,6365.771101,5822.325785
165.855639,-222.061783,9474.636058,3753.867940
165.855948,-1924.535449,12509.480420,-11338.213370
165.856258,-296.082377,14878.139434,-7584.345430
165.856567,-444.123565,13989.892304,0.000000
165.856877,-1776.494261,16876.695478,-4903.011187
165.857186,1776.494261,11621.233289,-8273.831378
165.857496,-3923.091493,14656.077652,3830.477490
165.857805,296.082377,13693.809927,3907.087040
165.858115,2368.659014,2738.761985,-8733.488677
165.858424,-4589.276840,10362.883188,-612.876398
165.858734,2738.761985,3256.906145,76.609550
165.859043,1480.411884,814.226536,-3907.087040
165.859353,-4293.194464,10140.821405,1302.362347
165.859662,-1332.370696,11917.315666,1072.533697
165.859972,6143.709319,6883.915261,-9652.803275
165.860281,1554.432478,3627.009116,-4213.525239
165.860591,-1406.391290,6143.709319,5745.716235
165.860900,-1258.350101,9992.780217,2298.286494
165.861210,1258.350101,9104.533087,-2451.505594
165.861519,-3552.988522,8956.491898,1915.238745
165.861829,1036.288319,12805.562797,689.485948
165.862138,-4367.215058,10584.944971,-7507.735880
165.862448,-5107.421000,18283.086767,-3907.087040
165.862757,5699.585753,14359.995275,-8197.221829
165.863067,1776.494261,11325.150913,-12027.699319
165.863376,-11843.295072,14434.015869,5822.325785
165.863686,222.061783,10214.842000,7354.516781
165.863995,7846.182985,3627.009116,-8886.707777
165.864305,-148.041188,4145.153275,2604.724693
165.864614,-5181.441594,6291.750507,15245.300410
165.864924,4145.153275,5403.503377,-3370.820191
165.865233,3256.906145,1332.370696,-11491.432470
165.865542,-1924.535449,8660.409521,6205.373534
165.865852,-2294.638420,12065.356855,5056.230287
165.866161,2738.761985,7920.203579,-7124.688131
165.866471,-2368.659014,18505.148550,-1225.752797
165.866780,-1850.514855,9474.636058,0.000000
165.867090,2146.597232,6735.874072,-9116.536426
165.867399,-2220.617826,16432.571912,-1149.143247
165.867709,-2590.720797,11621.233289,2145.067394
165.868018,-0.000000,14359.995275,-7201.297681
165.868328,-2072.576638,11695.253884,1225.752797
165.868637,5477.523971,13989.892304,-612.876398
165.868947,1628.453072,7476.080014,-10112.460574
165.869256,-4737.318029,6957.935855,2528.115143
165.869566,-0.000000,8586.388927,9652.803275
165.869875,4589.276840,3182.885551,-7507.735880
165.870185,6291.750507,2960.823768,-7890.783629
165.870494,-9474.636058,6217.729913,9422.974625
165.870804,1184.329507,8956.491898,2987.772442
165.871113,6587.832884,7994.224174,-11261.603821
165.871423,-666.185348,12805.562797,-3600.648841
165.871732,-5773.606348,9992.780217,5745.716235
165.872042,1850.514855,11547.212695,-2681.334243
165.872351,-666.185348,16580.613101,-6818.249932
165.872661,592.164754,12213.398043,-4903.011187
165.872970,-1628.453072,10510.924376,-12640.575717
165.873280,-2812.782580,11473.192101,-5669.106685
165.873589,888.247130,13175.665768,-995.924147
165.873899,-666.185348,13471.748144,-4136.915689
165.874208,-1406.391290,9178.553681,-2374.896044
165.874518,5773.606348,5699.585753,4826.401637
165.874827,1998.556043,-0.000000,1915.238745
165.875137,296.082377,148.041188,2834.553343
165.875446,-5255.462188,6513.812290,9422.974625
165.875756,222.061783,7994.224174,-536.266849
165.876065,4071.132681,7254.018232,-10725.336972
165.876375,1776.494261,14952.160028,-4979.620737
165.876684,-4441.235652,12731.542202,-2221.676944
165.876994,-0.000000,10510.924376,-3064.381992
165.877303,-7402.059420,13545.768739,6281.983084
165.877613,1924.535449,13101.645173,-919.314598
165.877922,296.082377,13915.871710,-11644.651570
165.878231,-1110.308913,11769.274478,-3217.601092
165.878541,-0.000000,11843.295072,3370.820191
165.878850,3701.029710,8364.327145,-4673.182538
165.879160,-0.000000,4811.338623,-2604.724693
165.879469,-6735.874072,8438.347739,10725.336972
165.879779,666.185348,6513.812290,1532.190996
165.880088,8216.285956,3627.009116,-11797.870669
165.880398,-2146.597232,3404.947333,689.485948
165.880707,-4515.256246,6217.729913,6281.983084
165.881017,4367.215058,4737.318029,-4903.011187
165.881326,4071.132681,7698.141797,-3753.867940
165.881636,-6143.709319,12287.418637,8427.050478
165.881945,962.267725,18283.086767,536.266849
165.882255,-666.185348,13249.686362,-8350.440928
165.882564,-0.000000,16876.695478,-4213.525239
165.882874,3701.029710,15692.365970,-10342.289223
165.883183,-1480.411884,9400.615463,-9039.926876
165.883493,-3923.091493,16136.489536,3830.477490
165.883802,-0.000000,8142.265362,1532.190996
165.884112,5551.544565,7476.080014,-10878.556072
165.884421,-5255.462188,4145.153275,5286.058936
165.884731,1702.473667,6217.729913,9346.365076
165.885040,3997.112087,-370.102971,-5362.668486
165.885350,296.082377,2368.659014,1762.019645
165.885659,-0.000000,5403.503377,11491.432470
165.885969,-444.123565,4811.338623,-995.924147
165.886278,962.267725,9400.615463,-4596.572988
165.886588,-2072.576638,15766.386565,1225.752797
165.886897,1850.514855,17024.736666,-9806.022374
165.887207,-3108.864956,14063.912898,-12257.527968
165.887516,-2368.659014,18949.272115,0.000000
165.887826,296.082377,13027.624579,-5056.230287
165.888135,3108.864956,9030.512492,-4903.011187
165.888445,-4219.173869,13545.768739,8733.488677
165.888754,-2368.659014,4811.338623,5286.058936
165.889064,4663.297435,5107.421000,-4903.011187
165.889373,962.267725,6661.853478,689.485948
165.889683,1554.432478,4589.276840,1685.410096
165.889992,1924.535449,7920.203579,-5286.058936
165.890302,-2960.823768,3182.885551,-229.828649
165.890611,-1480.411884,8882.471304,5439.278036
165.890920,4515.256246,11103.089130,-4213.525239
165.891230,-1924.535449,5921.647536,-6511.811733
165.891539,-1480.411884,9992.780217,1072.533697
165.891849,-2516.700203,8586.388927,995.924147
165.892158,1258.350101,13989.892304,-6511.811733
165.892468,-0.000000,20281.642811,229.828649
165.892777,2368.659014,13915.871710,-4519.963438
165.893087,-1480.411884,10214.842000,-6894.859482
165.893396,-6069.688724,15174.221811,2834.553343
165.893706,-1110.308913,9918.759623,-4213.525239
165.894015,5033.400406,3478.967927,-14479.204912
165.894325,4515.256246,1406.391290,-2374.896044
165.894634,-1184.329507,7698.141797,6358.592633
165.894944,2368.659014,6365.771101,2068.457845
165.895253,2368.659014,5995.668130,6358.592633
165.895563,4293.194464,7402.059420,6665.030833
165.895872,-370.102971,6661.853478,-3064.381992
165.896182,-2886.803174,6069.688724,-1915.238745
165.896491,-1702.473667,12435.459826,-4903.011187
165.896801,5699.585753,10881.027347,-11721.261119
165.897110,-4959.379811,18283.086767,-8120.612279
165.897420,-6661.853478,19097.313304,3370.820191
165.897729,1998.556043,16580.613101,-2221.676944
165.898039,2664.741391,11621.233289,-4749.792088
165.898348,-3701.029710,3997.112087,6741.640382
165.898658,-1110.308913,7179.997637,5439.278036
165.898967,962.267725,6439.791695,-4903.011187
165.899277,-2294.638420,5551.544565,2911.162892
165.899586,592.164754,6513.812290,4903.011187
165.899896,3404.947333,9104.533087,-7277.907231
165.900205,296.082377,8290.306550,-3907.087040
165.900515,296.082377,8660.409521,4596.572988
165.900824,2368.659014,3182.885551,-2298.286494
165.901134,1554.432478,7254.018232,-2145.067394
165.901443,-7624.121203,9252.574275,10189.070123
165.901752,1258.350101,7105.977043,1532.190996
165.902062,5107.421000,13767.830521,-6435.202183
165.902371,-2590.720797,16358.551318,-1378.971896
165.902681,1628.453072,14137.933492,-4979.620737
165.902990,1332.370696,13841.851115,-11031.775171
165.903300,-5329.482782,10436.903782,2451.505594
165.903609,2590.720797,11843.295072,2604.724693
165.903919,2664.741391,14211.954086,-9959.241474
165.904228,-370.102971,4441.235652,-4136.915689
165.904538,-518.144159,2886.803174,6971.469032
165.904847,3330.926739,3552.988522,-2145.067394
165.905157,3478.967927,3997.112087,-1838.629195
165.905466,-5255.462188,12953.603985,10878.556072
165.905775,2146.597232,2072.576638,4596.572988
165.906085,7994.224174,4811.338623,-8886.707777
165.906394,-3552.988522,9844.739029,153.219100
165.906704,-3997.112087,12583.501014,2145.067394
165.907013,370.102971,11399.171507,-6052.154434
165.907323,1702.473667,12139.377449,-4903.011187
165.907632,-1998.556043,15026.180623,0.000000
165.907942,-518.144159,16728.654289,-612.876398
165.908251,-4515.256246,9548.656652,-306.438199
165.908561,-370.102971,13397.727550,1072.533697
165.908870,5329.482782,9622.677246,-8350.440928
165.909180,-2960.823768,2738.761985,-3064.381992
165.909489,-4885.359217,10732.986159,5286.058936
165.909798,5181.441594,8068.244768,-1149.143247
165.910108,9178.553681,9178.553681,-4826.401637
165.910417,-2516.700203,5551.544565,2451.505594
165.910727,-3478.967927,4663.297435,11568.042020
165.911036,7179.997637,4885.359217,536.266849
165.911346,1036.288319,-1332.370696,-1838.629195
165.911655,-2146.597232,6809.894666,6971.469032
165.911965,-5773.606348,11325.150913,76.609550
165.912274,-2072.576638,10584.944971,-8656.879127
165.912584,5921.647536,21169.889941,-9806.022374
165.912893,-3552.988522,19023.292709,-13713.109414
165.913203,-1924.535449,16136.489536,-7431.126331
165.913512,-2590.720797,14878.139434,2681.334243
165.913821,3330.926739,9918.759623,2068.457845
165.914131,5181.441594,10288.862594,-766.095498
165.914440,-2442.679609,8882.471304,4290.134789
165.914750,2368.659014,1036.288319,3677.258390
165.915059,3478.967927,-2590.720797,-2987.772442
165.915369,-222.061783,3182.885551,0.000000
165.915678,-2146.597232,8364.327145,3370.820191
165.915988,4071.132681,12509.480420,-2757.943793
165.916297,-5329.482782,7698.141797,-1225.752797
165.916607,3923.091493,14211.954086,-1302.362347
165.916916,-888.247130,9030.512492,-9806.022374
165.917226,1258.350101,8290.306550,-3677.258390
165.917535,-3552.988522,9474.636058,8120.612279
165.917844,2146.597232,13175.665768,-536.266849
165.918154,814.226536,14211.954086,-3064.381992
165.918463,-4441.235652,19245.354492,3600.648841
165.918773,3775.050304,14730.098246,-5898.935335
165.919082,5033.400406,7402.059420,-11874.480219
165.919392,-10066.800811,6883.915261,1838.629195
165.919701,-1406.391290,13101.645173,-306.438199
165.920011,7476.080014,7846.182985,-10495.508323
165.920320,3034.844362,5181.441594,-1149.143247
165.920630,-2812.782580,7402.059420,14785.643111
165.920939,-666.185348,4959.379811,6511.811733
165.921249,2516.700203,-0.000000,-689.485948
165.921558,4515.256246,4737.318029,3907.087040
165.921867,-4737.318029,4663.297435,-2834.553343
165.922177,-4441.235652,11473.192101,-8273.831378
165.922486,148.041188,17246.798449,-6435.202183
165.922796,6513.812290,13323.706956,-9882.631924
165.923105,-888.247130,13175.665768,-459.657299
165.923415,-7476.080014,16580.613101,9422.974625
165.923724,222.061783,9770.718434,1072.533697
165.924034,7624.121203,10214.842000,-7660.954980
165.924343,-666.185348,4663.297435,-1915.238745
165.924653,-3034.844362,6587.832884,-1532.190996
165.924962,222.061783,10066.800811,-3064.381992
165.925272,1850.514855,7772.162391,-2681.334243
165.925581,2146.597232,10807.006753,306.438199
165.925890,5181.441594,12435.459826,-1302.362347
165.926200,1110.308913,3627.009116,153.219100
165.926509,1628.453072,4441.235652,4673.182538
165.926819,1258.350101,4885.359217,5209.449386
165.927128,3997.112087,9252.574275,2757.943793
165.927438,-4145.153275,11103.089130,2834.553343
165.927747,-1036.288319,16210.510130,-766.095498
165.928057,1110.308913,12879.583391,-8810.098227
165.928366,-6587.832884,12953.603985,-6358.592633
165.928676,370.102971,18431.127956,-10189.070123
165.928985,518.144159,12435.459826,-11414.822920
165.929295,-5033.400406,11769.274478,1991.848295
165.929604,-2812.782580,10807.006753,10648.727422
165.929913,6513.812290,10288.862594,-5132.839837
165.930223,814.226536,4737.318029,-3907.087040
165.930532,-2590.720797,3182.885551,11797.870669
165.930842,2368.659014,1184.329507,229.828649
165.931151,6661.853478,6957.935855,-12257.527968
165.931461,-3034.844362,7772.162391,9806.022374
165.931770,-6365.771101,5995.668130,9652.803275
165.932080,1850.514855,7550.100608,-3677.258390
165.932389,-1110.308913,9326.594869,-459.657299
165.932699,4737.318029,15248.242405,-4903.011187
165.933008,-2664.741391,11547.212695,-15475.129060
165.933318,-740.205942,9178.553681,-3064.381992
165.933627,-5921.647536,13323.706956,6511.811733
165.933936,2442.679609,17320.819043,-3753.867940
165.934246,-1332.370696,11473.192101,-3064.381992
165.934555,-1924.535449,9474.636058,7890.783629
165.934865,4737.318029,8808.450710,-3294.210641
165.935174,-1184.329507,2812.782580,-10572.117872
165.935484,-7179.997637,9178.553681,2221.676944
165.935793,4811.338623,10214.842000,-2221.676944
165.936103,9252.574275,9844.739029,-10801.946522
165.936412,-7031.956449,12361.439231,8197.221829
165.936722,296.082377,7328.038826,11338.213370
165.937031,6809.894666,4515.256246,-6894.859482
165.937341,-666.185348,1702.473667,-3983.696590
165.937650,-5329.482782,4441.235652,8810.098227
165.937959,-74.020594,10732.986159,-4749.792088
165.938269,2146.597232,9770.718434,-7814.174080
165.938578,814.226536,18579.169144,2911.162892
165.938888,-222.061783,16210.510130,-5669.106685
165.939197,-4737.318029,15914.427753,-4826.401637
165.939507,-2590.720797,15174.221811,5592.497135
165.939816,5625.565159,7772.162391,-7660.954980
165.940126,3627.009116,4293.194464,-16241.224558
165.940435,-6365.771101,6587.832884,7890.783629
165.940745,-5921.647536,3404.947333,15321.909960
165.941054,814.226536,9474.636058,-766.095498
165.941364,1924.535449,7772.162391,-2451.505594
165.941673,4737.318029,13101.645173,-2221.676944
165.941982,-1776.494261,12509.480420,-10418.898773
165.942292,-1924.535449,6217.729913,-3677.258390
165.942601,3330.926739,9474.636058,0.000000
165.942911,4145.153275,11917.315666,-2451.505594
165.943220,-0.000000,12953.603985,4290.134789
165.943530,-5625.565159,7994.224174,12717.185267
165.943839,5995.668130,6143.709319,-1302.362347
165.944149,6587.832884,7105.977043,-11261.603821
165.944458,-9178.553681,8290.306550,612.876398
165.944768,-3775.050304,6365.771101,3370.820191
165.945077,-148.041188,10658.965565,-4903.011187
165.945387,-4071.132681,18135.045579,-1149.143247
165.945696,2590.720797,17542.880825,-6435.202183
165.946005,4959.379811,7772.162391,-15398.519510
165.946315,-1036.288319,2146.597232,1225.752797
165.946624,-3108.864956,6957.935855,14019.547613
165.946934,-3330.926739,6883.915261,2528.115143
165.947243,-814.226536,9622.677246,1072.533697
165.947553,3034.844362,9918.759623,4979.620737
165.947862,1998.556043,7920.203579,-8656.879127
165.948172,2368.659014,9622.677246,-12717.185267
165.948481,-3849.070898,13471.748144,-612.876398
165.948791,-444.123565,9474.636058,-3294.210641
165.949100,2590.720797,8290.306550,-3983.696590
165.949410,-1554.432478,14730.098246,4903.011187
165.949719,1480.411884,11843.295072,4979.620737
165.950028,3256.906145,6217.729913,-383.047749
165.950338,-814.226536,-0.000000,76.609550
165.950647,148.041188,7402.059420,1532.190996
165.950957,518.144159,10066.800811,-7277.907231
165.951266,1776.494261,10658.965565,-4366.744339
165.951576,444.123565,10955.047942,8963.317327
165.951885,-1184.329507,13693.809927,5975.544884
165.952195,-4071.132681,14211.954086,-1149.143247
165.952504,222.061783,11547.212695,-5439.278036
165.952814,2368.659014,4589.276840,-9193.145976
165.953123,-962.267725,8882.471304,-5209.449386
165.953433,-9474.636058,19615.457463,-229.828649
165.953742,3404.947333,13249.686362,-6511.811733
165.954051,7920.203579,11621.233289,-3983.696590
165.954361,-2886.803174,7698.141797,7660.954980
165.954670,592.164754,5477.523971,5822.325785
165.954980,1332.370696,9104.533087,-1685.410096
165.955289,5107.421000,3330.926739,-1838.629195
165.955599,-1036.288319,1480.411884,2145.067394
165.955908,-1184.329507,11917.315666,-3830.477490
165.956218,-814.226536,13841.851115,-7201.297681
165.956527,-814.226536,13545.768739,-2298.286494
165.956837,3997.112087,8142.265362,-4136.915689
165.957146,-2664.741391,7105.977043,-8427.050478
165.957456,-5625.565159,11769.274478,1915.238745
165.957765,1332.370696,4811.338623,-1915.238745
165.958074,4071.132681,4589.276840,-4903.011187
165.958384,-1480.411884,10140.821405,6205.373534
165.958693,-2738.761985,17542.880825,3677.258390
165.959003,4219.173869,16062.468941,-6435.202183
165.959312,-3701.029710,8290.306550,0.000000
165.959622,-3627.009116,13545.768739,153.219100
165.959931,4737.318029,9474.636058,-14096.157163
165.960241,-888.247130,5329.482782,-9806.022374
165.960550,-6291.750507,7698.141797,8580.269578
165.960860,3849.070898,7105.977043,1302.362347
165.961169,8512.368333,8660.409521,-6818.249932
165.961479,-6661.853478,13323.706956,13636.499864
165.961788,962.267725,4811.338623,12793.794817
165.962097,2442.679609,7772.162391,-7507.735880
165.962407,-2442.679609,12657.521608,-6818.249932
165.962716,814.226536,9770.718434,-4979.620737
165.963026,-888.247130,9770.718434,-10342.289223
165.963335,-4071.132681,11399.171507,153.219100
165.963645,1554.432478,14434.015869,4060.306139
165.963954,1480.411884,11251.130318,-9346.365076
165.964264,-2368.659014,4737.318029,-3294.210641
165.964573,-3404.947333,3108.864956,12257.527968
165.964883,6069.688724,7772.162391,-3524.039291
165.965192,2368.659014,5551.544565,-11261.603821
165.965502,-5329.482782,10955.047942,9882.631924
165.965811,-2590.720797,4441.235652,8580.269578
165.966120,3256.906145,4071.132681,-9652.803275
165.966430,-666.185348,12953.603985,-3677.258390
165.966739,-3775.050304,12213.398043,-2145.067394
165.967049,2664.741391,7402.059420,-8810.098227
165.967358,814.226536,11843.295072,-1991.848295
165.967668,-4663.297435,10584.944971,4366.744339
165.967977,-1554.432478,12139.377449,2451.505594
165.968287,-1258.350101,8882.471304,842.705048
165.968596,7698.141797,9400.615463,-1302.362347
165.968906,1776.494261,10510.924376,-3447.429741
165.969215,-3478.967927,9326.594869,-4903.011187
165.969525,-4811.338623,11621.233289,-1991.848295
165.969834,5625.565159,10066.800811,-8656.879127
165.970143,-592.164754,8586.388927,-5056.230287
165.970453,-6513.812290,14211.954086,4826.401637
165.970762,1628.453072,7179.997637,3064.381992
165.971072,7772.162391,8216.285956,-5132.839837
165.971381,74.020594,3108.864956,-842.705048
165.971691,-4145.153275,7550.100608,7354.516781
165.972000,-1628.453072,12731.542202,-1762.019645
165.972310,1036.288319,9252.574275,-7660.954980
165.972619,1480.411884,10807.006753,-7967.393179
165.972929,3552.988522,11177.109724,-11797.870669
165.973238,-8068.244768,11325.150913,0.000000
165.973548,-222.061783,15840.407159,6588.421283
165.973857,7476.080014,6291.750507,-6281.983084
165.974166,2294.638420,9474.636058,-5592.497135
165.974476,-8586.388927,8068.244768,10418.898773
165.974785,1998.556043,3849.070898,2604.724693
165.975095,6069.688724,5995.668130,-12563.966167
165.975404,-2442.679609,10436.903782,-306.438199
165.975714,-6513.812290,12287.418637,4903.011187
165.976023,-0.000000,12953.603985,-9116.536426
165.976333,1480.411884,7031.956449,-6281.983084
165.976642,962.267725,12953.603985,-459.657299
165.976952,-148.041188,11769.274478,-6588.421283
165.977261,-2886.803174,8882.471304,-995.924147
165.977571,-2664.741391,11917.315666,5822.325785
165.977880,7179.997637,9104.533087,-5975.544884
165.978189,3552.988522,7994.224174,-7048.078582
165.978499,-9548.656652,9918.759623,9806.022374
165.978808,4885.359217,7698.141797,2451.505594
165.979118,6587.832884,5329.482782,-12257.527968
165.979427,-3182.885551,9696.697840,1532.190996
165.979737,-3108.864956,7254.018232,5822.325785
165.980046,3404.947333,7105.977043,-8120.612279
165.980356,1480.411884,8586.388927,-1225.752797
165.980665,-2886.803174,11991.336260,4596.572988
165.980975,-1184.329507,17024.736666,-10112.460574
165.981284,2368.659014,9548.656652,-7277.907231
165.981594,-3034.844362,10510.924376,6435.202183
165.981903,2072.576638,8068.244768,-689.485948
165.982212,-1628.453072,13323.706956,-4903.011187
165.982522,-4737.318029,11547.212695,6435.202183
165.982831,1332.370696,7328.038826,-3370.820191
165.983141,4589.276840,7105.977043,-11491.432470
165.983450,-2368.659014,11251.130318,842.705048
165.983760,-1406.391290,9252.574275,5515.887586
165.984069,888.247130,8586.388927,-4673.182538
165.984379,-888.247130,6735.874072,-2451.505594
165.984688,-740.205942,8290.306550,3370.820191
165.984998,1036.288319,8586.388927,-3677.258390
165.985307,888.247130,8142.265362,-2145.067394
165.985617,-3849.070898,11251.130318,-919.314598
165.985926,3627.009116,10066.800811,-5975.544884
165.986235,1406.391290,11991.336260,-6128.763984
165.986545,-3701.029710,13989.892304,3447.429741
165.986854,4885.359217,10066.800811,3064.381992
165.987164,1406.391290,10807.006753,-5362.668486
165.987473,-7550.100608,10436.903782,2757.943793
165.987783,-222.061783,6809.894666,3600.648841
165.988092,1332.370696,4663.297435,-8963.317327
165.988402,-6365.771101,8660.409521,-4443.353888
165.988711,1628.453072,13619.789333,-2451.505594
165.989021,-1036.288319,7994.224174,-9882.631924
165.989330,814.226536,9178.553681,1149.143247
165.989640,-1406.391290,9770.718434,5515.887586
165.989949,4441.235652,13767.830521,-3064.381992
165.990258,5181.441594,6661.853478,612.876398
165.990568,-2886.803174,3627.009116,12410.747068
165.990877,1184.329507,2812.782580,1991.848295
165.991187,3404.947333,6809.894666,-4903.011187
165.991496,-4441.235652,12953.603985,689.485948
165.991806,-1702.473667,11695.253884,-3830.477490
165.992115,-1776.494261,13989.892304,-10112.460574
165.992425,-3775.050304,15322.262999,-4979.620737
165.992734,-1702.473667,15914.427753,-7814.174080
165.993044,-444.123565,13471.748144,-10801.946522
165.993353,-2220.617826,9696.697840,2451.505594
165.993663,-1036.288319,7846.182985,6052.154434
165.993972,5699.585753,7920.203579,-3447.429741
165.994281,3627.009116,2442.679609,2528.115143
165.994591,-1628.453072,2664.741391,12180.918418
165.994900,3849.070898,3552.988522,2604.724693
165.995210,4071.132681,5995.668130,-3753.867940
165.995519,-592.164754,10140.821405,1685.410096
165.995829,-4737.318029,7105.977043,229.828649
165.996138,2516.700203,12287.418637,-7507.735880
165.996448,-5329.482782,17468.860231,-4749.792088
165.996757,-1258.350101,19245.354492,-5286.058936
165.997067,-2220.617826,11251.130318,-7584.345430
165.997376,1628.453072,14285.974681,-2221.676944
165.997686,-2368.659014,10066.800811,229.828649
165.997995,-222.061783,13693.809927,-995.924147
165.998304,2368.659014,6143.709319,4519.963438
165.998614,2146.597232,7624.121203,5669.106685
165.998923,2294.638420,7179.997637,229.828649
165.999233,-222.061783,6587.832884,1532.190996
165.999542,-6069.688724,11103.089130,2911.162892
165.999852,6365.771101,6883.915261,-10418.898773
166.000161,2886.803174,6439.791695,-13176.842566
166.000471,-8216.285956,7254.018232,1532.190996
166.000780,-296.082377,5107.421000,7354.516781
166.001090,5551.544565,6809.894666,-1149.143247
166.001399,6217.729913,6957.935855,1915.238745
166.001709,-7328.038826,8068.244768,11951.089769
166.002018,-1036.288319,14137.933492,4749.792088
166.002327,5773.606348,11769.274478,-10189.070123
166.002637,1480.411884,17616.901420,-11414.822920
166.002946,-1998.556043,17098.757260,-6511.811733
166.003256,-5403.503377,14582.057057,-2298.286494
166.003565,-1702.473667,15100.201217,-995.924147
166.003875,4885.359217,7550.100608,-5515.887586
166.004184,1480.411884,5699.585753,-2298.286494
166.004494,-9918.759623,4515.256246,10878.556072
166.004803,1406.391290,1406.391290,4443.353888
166.005113,8956.491898,1480.411884,-8503.660028
166.005423,2368.659014,6291.750507,-153.219100
166.005732,-5625.565159,7105.977043,8350.440928
166.006042,3404.947333,11399.171507,-689.485948
166.006351,5403.503377,7476.080014,-3524.039291
166.006661,1184.329507,11917.315666,3753.867940
166.006970,-3478.967927,14285.974681,153.219100
166.007280,1554.432478,10807.006753,-2374.896044
166.007589,-5477.523971,14063.912898,229.828649
166.007899,-2664.741391,15026.180623,-4749.792088
166.008208,1406.391290,13249.686362,-11031.775171
166.008518,-962.267725,13175.665768,-5515.887586
166.008827,-3701.029710,8808.450710,-2451.505594
166.009137,-518.144159,9844.739029,459.657299
166.009446,592.164754,11325.150913,2528.115143
166.009756,3997.112087,5995.668130,-1762.019645
166.010065,5773.606348,3923.091493,-1225.752797
166.010375,1702.473667,-1998.556043,5056.230287
166.010684,-592.164754,888.247130,4749.792088
166.010994,1850.514855,6883.915261,-536.266849
166.011303,6809.894666,4293.194464,-2834.553343
166.011613,-7402.059420,5847.626942,6818.249932
166.011922,-814.226536,17616.901420,2451.505594
166.012232,1924.535449,13323.706956,-11031.775171
166.012541,-2368.659014,15766.386565,-11874.480219
166.012851,-1406.391290,14656.077652,-5286.058936
166.013160,-5255.462188,12287.418637,-4366.744339
166.013470,-3034.844362,18431.127956,-1685.410096
166.013780,3701.029710,15618.345376,-2604.724693
166.014089,5625.565159,10955.047942,-3140.991542
166.014399,-5551.544565,3478.967927,6818.249932
166.014708,666.185348,7402.059420,4903.011187
166.015018,3182.885551,2738.761985,-6358.592633
166.015327,6217.729913,1332.370696,-689.485948
166.015637,-4589.276840,3627.009116,12104.308868
166.015946,3330.926739,8438.347739,-1149.143247
166.016256,3923.091493,9474.636058,-8733.488677
166.016565,-2368.659014,11621.233289,-1302.362347
166.016875,-1924.535449,6661.853478,-1991.848295
166.017184,-296.082377,10955.047942,-5975.544884
166.017494,-2738.761985,16062.468941,1072.533697
166.017803,3849.070898,13545.768739,1532.190996
166.018113,2812.782580,11843.295072,-1915.238745
166.018422,-3478.967927,11843.295072,2528.115143
166.018732,-148.041188,12361.439231,-3524.039291
166.019041,-296.082377,11325.150913,-8810.098227
166.019351,888.247130,7402.059420,919.314598
166.019660,-5921.647536,9252.574275,4443.353888
166.019970,-2664.741391,13545.768739,-11031.775171
166.020279,2442.679609,4145.153275,-7967.393179
166.020589,-1998.556043,6365.771101,1838.629195
166.020898,4071.132681,1036.288319,-1455.581446
166.021208,1628.453072,4737.318029,-3907.087040
166.021517,-814.226536,11621.233289,6741.640382
166.021827,2812.782580,6883.915261,5745.716235
166.022137,9548.656652,6883.915261,-2068.457845
166.022446,2294.638420,11695.253884,1838.629195
166.022756,-888.247130,8882.471304,9193.145976
166.023065,-4145.153275,10881.027347,2834.553343
166.023375,-4737.318029,11843.295072,-1608.800546
166.023684,-740.205942,16432.571912,-9882.631924
166.023994,1258.350101,17764.942608,-17773.415554
166.024303,-4293.194464,10732.986159,-9422.974625
166.024613,-3775.050304,11473.192101,-153.219100
166.024922,814.226536,11547.212695,-3753.867940
166.025232,6217.729913,7698.141797,1149.143247
166.025541,-4663.297435,6217.729913,17007.320056
166.025851,-1332.370696,2960.823768,13789.718964
166.026160,8438.347739,5329.482782,-4673.182538
166.026470,2294.638420,6439.791695,-7431.126331
166.026779,-1406.391290,5403.503377,-2068.457845
166.027089,-5477.523971,13027.624579,-4366.744339
166.027398,-3108.864956,14508.036463,-4673.182538
166.027708,5403.503377,11917.315666,-5669.106685
166.028017,-592.164754,9844.739029,-5132.839837
166.028327,-4441.235652,5625.565159,5975.544884
166.028636,-2960.823768,5033.400406,6435.202183
166.028946,5847.626942,9104.533087,-7277.907231
166.029255,3034.844362,7254.018232,-6894.859482
166.029565,-5181.441594,10584.944971,9652.803275
166.029875,-4145.153275,11621.233289,2834.553343
166.030184,6291.750507,12953.603985,-13942.938064
166.030494,-0.000000,12583.501014,-10189.070123
166.030803,-592.164754,5477.523971,1838.629195
166.031113,-4145.153275,4441.235652,536.266849
166.031422,1998.556043,8586.388927,-842.705048
166.031732,5255.462188,8142.265362,-2604.724693
166.032041,-2072.576638,7846.182985,-919.314598
166.032351,740.205942,6439.791695,8044.002729
166.032660,1332.370696,7624.121203,5975.544884
166.032970,-1258.350101,13693.809927,-5286.058936
166.033279,-962.267725,10807.006753,-5515.887586
166.033589,-740.205942,10436.903782,-3447.429741
166.033898,4663.297435,10436.903782,-10495.508323
166.034208,-370.102971,11843.295072,-2911.162892
166.034517,-6735.874072,13249.686362,7354.516781
166.034827,4145.153275,8216.285956,3983.696590
166.035136,3478.967927,4515.256246,-2757.943793
166.035446,-2368.659014,8364.327145,3677.258390
166.035755,-6291.750507,5107.421000,4596.572988
166.036065,1628.453072,13397.727550,-4136.915689
166.036374,740.205942,6957.935855,-10878.556072
166.036684,2146.597232,9104.533087,-8886.707777
166.036993,-5773.606348,8586.388927,-1608.800546
166.037303,518.144159,10807.006753,4903.011187
166.037612,2146.597232,10140.821405,2374.896044
166.037922,5773.606348,8216.285956,-1302.362347
166.038232,-1998.556043,7846.182985,5975.544884
166.038541,-6735.874072,9622.677246,11414.822920
166.038851,4885.359217,8512.368333,-7890.783629
166.039160,3627.009116,9548.656652,-13789.718964
166.039470,-8364.327145,16210.510130,536.266849
166.039779,-3182.885551,15618.345376,-1838.629195
166.040089,5329.482782,13915.871710,-14862.252661
166.040398,4737.318029,9622.677246,-7890.783629
166.040708,-2516.700203,2294.638420,9193.145976
166.041017,-1332.370696,3701.029710,12487.356617
166.041327,7846.182985,2294.638420,2451.505594
166.041636,2738.761985,7402.059420,919.314598
166.041946,-3330.926739,6069.688724,2451.505594
166.042255,-1036.288319,15544.324782,-3064.381992
166.042565,1998.556043,15544.324782,-11184.994271
166.042874,4367.215058,13027.624579,-15858.176809
166.043184,-5329.482782,12509.480420,-1072.533697
166.043493,-3701.029710,14730.098246,4749.792088
166.043803,962.267725,6365.771101,-1608.800546
166.044112,6883.915261,8956.491898,-3140.991542
166.044422,-2072.576638,6291.750507,4290.134789
166.044731,148.041188,7031.956449,6358.592633
166.045041,-4441.235652,3775.050304,2221.676944
166.045350,888.247130,8956.491898,-2451.505594
166.045660,-4293.194464,14878.139434,-7354.516781
166.045969,-222.061783,14804.118840,-7048.078582
166.046279,-0.000000,14211.954086,-9499.584175
166.046589,1924.535449,9992.780217,-7277.907231
166.046898,888.247130,3552.988522,919.314598
166.047208,-7328.038826,7402.059420,6435.202183
166.047517,-6143.709319,11695.253884,4826.401637
166.047827,6069.688724,13545.768739,-11184.994271
166.048136,5255.462188,14804.118840,-19305.606550
166.048446,-814.226536,12731.542202,-9729.412825
166.048755,-5181.441594,8438.347739,-3370.820191
166.049065,-0.000000,7772.162391,-6358.592633
166.049374,-1258.350101,6217.729913,-6818.249932
166.049684,222.061783,8068.244768,-153.219100
166.049993,3923.091493,6069.688724,-5975.544884
166.050303,5107.421000,3627.009116,-9576.193725
166.050612,-2072.576638,3108.864956,-7124.688131
166.050922,-814.226536,9252.574275,-6435.202183
166.051231,-3997.112087,9030.512492,-9269.755526
166.051541,1998.556043,13323.706956,-13023.623466
166.051850,962.267725,11843.295072,-16164.615008
166.052160,5181.441594,10362.883188,-13713.109414
166.052469,-1998.556043,10584.944971,-7890.783629
166.052779,-4071.132681,6069.688724,-2451.505594
166.053088,8512.368333,11325.150913,-7660.954980
166.053398,7105.977043,11029.068536,-4519.963438
166.053707,-0.000000,12953.603985,1378.971896
166.054017,-2072.576638,9548.656652,-3907.087040
166.054326,592.164754,8364.327145,-16241.224558
166.054636,-0.000000,7846.182985,-22140.159892
166.054946,-6069.688724,5625.565159,-15245.300410
166.055255,-2886.803174,9770.718434,-10648.727422
166.055565,4293.194464,9844.739029,-7584.345430
166.055874,-888.247130,10436.903782,-5669.106685
166.056184,-4885.359217,7179.997637,-612.876398
166.056493,1110.308913,13693.809927,-4749.792088
166.056803,3404.947333,9622.677246,-13713.109414
166.057112,-1998.556043,12657.521608,-12563.966167
166.057422,-2960.823768,12361.439231,-12180.918418
166.057731,-666.185348,13249.686362,-14938.862211
166.058041,-1184.329507,10362.883188,-13253.452115
166.058350,-888.247130,10362.883188,-8580.269578
166.058660,-3627.009116,9696.697840,-6052.154434
166.058969,-370.102971,9178.553681,-7890.783629
166.059279,2220.617826,5403.503377,-15015.471761
166.059588,-296.082377,3478.967927,-16164.615008
166.059898,-5847.626942,8808.450710,-11491.432470
166.060207,2442.679609,12805.562797,-9806.022374
166.060517,5255.462188,9770.718434,-15168.690860
166.060826,4737.318029,8586.388927,-9193.145976
166.061136,-7105.977043,4219.173869,-459.657299
166.061445,-1628.453072,2812.782580,-6358.592633
166.061755,5477.523971,9252.574275,-16930.710506
166.062064,6661.853478,11843.295072,-18233.072852
166.062374,-4885.359217,14656.077652,-7431.126331
166.062683,-2146.597232,14137.933492,-5439.278036
166.062993,4441.235652,14211.954086,-16471.053207
166.063303,6439.791695,9474.636058,-17466.977354
166.063612,-2590.720797,8808.450710,-6818.249932
166.063922,-6069.688724,8068.244768,-2528.115143
166.064231,1258.350101,9104.533087,-7584.345430
166.064541,2368.659014,10955.047942,-17620.196454
166.064850,-0.000000,9844.739029,-15704.957709
166.065160,-2516.700203,13471.748144,-5592.497135
166.065469,-1998.556043,11473.192101,-7124.688131
166.065779,3256.906145,13101.645173,-14172.766713
166.066088,2368.659014,8512.368333,-14019.547613
166.066398,-3256.906145,6883.915261,-6818.249932
166.066707,-1332.370696,2886.803174,-3217.601092
166.067017,-1406.391290,1702.473667,-3677.258390
166.067326,-2738.761985,6365.771101,-4673.182538
166.067636,-3330.926739,8216.285956,-7737.564530
166.067945,-1184.329507,11251.130318,-13636.499864
166.068255,-666.185348,14211.954086,-14938.862211
166.068564,-5255.462188,14878.139434,-14709.033562
166.068874,-2886.803174,15840.407159,-14172.766713
166.069183,-592.164754,11917.315666,-13330.061665
166.069493,-1924.535449,9178.553681,-10035.851024
166.069802,1332.370696,8290.306550,-6665.030833
166.070112,6217.729913,7920.203579,-5362.668486
166.070421,1628.453072,5995.668130,-3983.696590
166.070731,-1036.288319,3849.070898,0.000000
166.071041,-2516.700203,6957.935855,-1991.848295
166.071350,1036.288319,11917.315666,-12257.527968
166.071660,1110.308913,14285.974681,-21374.064394
166.071969,-0.000000,13545.768739,-19995.092498
166.072279,-1184.329507,11399.171507,-15781.567259
166.072588,-962.267725,9474.636058,-12104.308868
166.072898,3108.864956,9326.594869,-9499.584175
166.073207,2516.700203,10955.047942,-2987.772442
166.073517,-74.020594,10214.842000,-1762.019645
166.073826,2072.576638,9548.656652,-6894.859482
166.074136,5255.462188,9474.636058,-14249.376263
166.074445,1776.494261,7994.224174,-12257.527968
166.074755,-5255.462188,12583.501014,-8273.831378
166.075064,-1036.288319,12879.583391,-9729.412825
166.075374,-888.247130,12805.562797,-15551.738609
166.075683,-4959.379811,12361.439231,-12870.404366
166.075993,-3923.091493,9696.697840,-14709.033562
166.076302,-148.041188,7994.224174,-16624.272307
166.076612,1184.329507,6883.915261,-15168.690860
166.076921,-962.267725,7105.977043,-7354.516781
166.077231,-0.000000,7031.956449,-2834.553343
166.077540,3997.112087,7254.018232,-4903.011187
166.077850,2368.659014,5921.647536,-5669.106685
166.078159,-370.102971,5995.668130,-6435.202183
166.078469,592.164754,7846.182985,-5286.058936
166.078778,-222.061783,12361.439231,-16624.272307
166.079088,1110.308913,13693.809927,-19612.044749
166.079398,-444.123565,14508.036463,-15321.909960
166.079707,-1924.535449,13249.686362,-7890.783629
166.080017,-2072.576638,9400.615463,-2757.943793
166.080326,-370.102971,6587.832884,-9193.145976
166.080636,666.185348,5699.585753,-9882.631924
166.080945,-1332.370696,4811.338623,-8044.002729
166.081255,-1998.556043,8808.450710,-5439.278036
166.081564,1332.370696,13767.830521,-12870.404366
166.081874,2220.617826,16062.468941,-16471.053207
166.082183,148.041188,15322.262999,-15321.909960
166.082493,-0.000000,11769.274478,-11568.042020
166.082802,1924.535449,4737.318029,-10035.851024
166.083112,1924.535449,962.267725,-7890.783629
166.083421,-0.000000,-1036.288319,-3600.648841
166.083731,-1258.350101,-1036.288319,-689.485948
166.084040,-2294.638420,3108.864956,-5132.839837
166.084350,-222.061783,9178.553681,-14325.985813
166.084659,962.267725,14434.015869,-16930.710506
166.084969,-2368.659014,17172.777854,-16624.272307
166.085278,-1332.370696,18061.024985,-15245.300410
166.085588,-222.061783,14730.098246,-18079.853753
166.085897,740.205942,10807.006753,-11951.089769
166.086207,-2960.823768,7179.997637,-4673.182538
166.086516,-2886.803174,7550.100608,-2528.115143
166.086826,1036.288319,7920.203579,-8273.831378
166.087135,1924.535449,7402.059420,-12257.527968
166.087445,1110.308913,9252.574275,-16011.395908
166.087755,-1702.473667,10362.883188,-13713.109414
166.088064,-370.102971,12139.377449,-10725.336972
166.088374,3182.885551,10214.842000,-11721.261119
166.088683,2738.761985,6513.812290,-8656.879127
166.088993,814.226536,3627.009116,-3294.210641
166.089302,-0.000000,444.123565,-2068.457845
166.089612,2590.720797,4737.318029,-7737.564530
166.089921,1110.308913,9178.553681,-7277.907231
166.090231,-1628.453072,13767.830521,-6894.859482
166.090540,-1258.350101,16580.613101,-9499.584175
166.090850,1554.432478,16950.716072,-15168.690860
166.091159,222.061783,15026.180623,-15934.786358
166.091469,-3108.864956,11991.336260,-11568.042020
166.091778,-2886.803174,8068.244768,-8886.707777
166.092088,222.061783,8438.347739,-9422.974625
166.092397,-0.000000,7698.141797,-6741.640382
166.092707,-296.082377,8956.491898,-5592.497135
166.093016,-0.000000,7698.141797,-7354.516781
166.093326,1036.288319,7402.059420,-9729.412825
166.093635,888.247130,6735.874072,-8120.612279
166.093945,1258.350101,6957.935855,-7354.516781
166.094254,-1628.453072,7402.059420,-3294.210641
166.094564,-962.267725,6069.688724,-3064.381992
166.094873,1628.453072,8142.265362,-5209.449386
166.095183,888.247130,7994.224174,-7967.393179
166.095492,-222.061783,10881.027347,-4979.620737
166.095802,-3701.029710,11843.295072,-2987.772442
166.096112,-1850.514855,12065.356855,-7354.516781
166.096421,-3997.112087,11991.336260,-10112.460574
166.096731,-5107.421000,11843.295072,-8886.707777
166.097040,-4737.318029,11695.253884,-12947.013916
166.097350,-3478.967927,12361.439231,-16011.395908
166.097659,-1924.535449,12583.501014,-13483.280765
166.097969,-1036.288319,14211.954086,-10725.336972
166.098278,814.226536,14211.954086,-11338.213370
166.098588,592.164754,16876.695478,-8656.879127
166.098897,-592.164754,13249.686362,-7814.174080
166.099207,-0.000000,11621.233289,-11951.089769
166.099516,-0.000000,8956.491898,-16471.053207
166.099826,74.020594,8216.285956,-18539.511052
166.100135,296.082377,9104.533087,-17160.539155
166.100445,3182.885551,7550.100608,-16241.224558
166.100754,2738.761985,6809.894666,-9116.536426
166.101064,2368.659014,7031.956449,-2911.162892
166.101373,3330.926739,2442.679609,-5898.935335
166.101683,12065.356855,-0.000000,-5515.887586
166.101992,-8808.450710,740.205942,-5898.935335
166.102302,-2960.823768,9400.615463,-13942.938064
166.102611,-4145.153275,11843.295072,-25664.199183
166.102921,1924.535449,16728.654289,-30260.772171
166.103230,-1258.350101,16950.716072,-22369.988542
166.103540,-2590.720797,14211.954086,-14709.033562
166.103849,5847.626942,13841.851115,-13866.328514
166.104159,740.205942,8956.491898,-9039.926876
166.104468,3108.864956,6587.832884,-3677.258390
166.104778,13915.871710,-7402.059420,-7890.783629
166.105087,-31310.711347,-2146.597232,-3064.381992
166.105397,17764.942608,27905.764013,-459.657299
166.105706,9326.594869,13693.809927,-23136.084040
166.106016,12953.603985,8808.450710,-32329.230016
166.106325,-25833.187376,1406.391290,-6435.202183
166.106635,-10140.821405,15470.304188,-4596.572988
166.106944,4959.379811,15988.448347,-24821.494135
166.107254,3108.864956,10955.047942,-19612.044749
166.107563,-5255.462188,8660.409521,-7814.174080
166.107873,-6217.729913,-0.000000,-7431.126331
166.108182,-2442.679609,11991.336260,-12640.575717
166.108492,4515.256246,16210.510130,-11031.775171
166.108801,6143.709319,15100.201217,-15704.957709
166.109111,-4071.132681,8290.306550,-6052.154434
166.109420,-8438.347739,10584.944971,4366.744339
166.109730,1110.308913,9104.533087,-15551.738609
166.110039,1998.556043,5625.565159,-32559.058665
166.110349,518.144159,8882.471304,-15398.519510
166.110658,-6735.874072,7328.038826,-5898.935335
166.110968,4293.194464,9400.615463,-13789.718964
166.111277,6069.688724,9548.656652,-11338.213370
166.111587,3108.864956,6513.812290,-2528.115143
166.111896,-4293.194464,1184.329507,8197.221829
166.112206,-1332.370696,4885.359217,2987.772442
166.112515,4145.153275,7105.977043,-14172.766713
166.112825,4219.173869,14211.954086,-27426.218828
166.113134,-5033.400406,12953.603985,-15704.957709
166.113444,-222.061783,17838.963202,-9193.145976
166.113753,3701.029710,19097.313304,-12640.575717
166.114063,1850.514855,17172.777854,-10878.556072
166.114373,-4885.359217,10066.800811,-1532.190996
166.114682,-1036.288319,6143.709319,-3677.258390
166.114992,3404.947333,7328.038826,-14785.643111
166.115301,1036.288319,5773.606348,-15934.786358
166.115611,1554.432478,7772.162391,-10112.460574
166.115920,296.082377,9548.656652,-3217.601092
166.116230,-888.247130,15692.365970,-459.657299
166.116539,888.247130,12583.501014,-3140.991542
166.116849,592.164754,12287.418637,-8120.612279
166.117158,-1998.556043,7105.977043,-10955.165621
166.117468,-4737.318029,4515.256246,-10418.898773
166.117777,-3330.926739,6883.915261,-13330.061665
166.118087,-3923.091493,10807.006753,-12947.013916
166.118396,-1480.411884,13767.830521,-3907.087040
166.118706,-2294.638420,14211.954086,-7967.393179
166.119015,2294.638420,13619.789333,-10342.289223
166.119325,2220.617826,8660.409521,-4903.011187
166.119634,-2738.761985,6957.935855,-1302.362347
166.119944,-3849.070898,4589.276840,-5056.230287
166.120253,-3775.050304,7920.203579,-9576.193725
166.120563,3404.947333,14359.995275,-13636.499864
166.120872,5181.441594,11399.171507,-19765.263848
166.121182,-2960.823768,17024.736666,-13866.328514
166.121491,-2368.659014,15988.448347,-8580.269578
166.121801,-148.041188,6809.894666,-13483.280765
166.122110,-888.247130,8808.450710,-13559.890315
166.122420,3997.112087,3182.885551,-8886.707777
166.122729,-5921.647536,2812.782580,-6511.811733
166.123039,-74.020594,7328.038826,-3524.039291
166.123348,-0.000000,9696.697840,-12947.013916
166.123658,3627.009116,14804.118840,-19458.825649
166.123967,4145.153275,10955.047942,-17313.758255
166.124277,-6809.894666,12583.501014,-11338.213370
166.124586,-444.123565,15248.242405,-12410.747068
166.124896,2664.741391,8438.347739,-19841.873398
166.125205,3552.988522,6365.771101,-17926.634653
166.125515,-1406.391290,1924.535449,-5209.449386
166.125824,-1258.350101,7698.141797,-1762.019645
166.126134,2220.617826,8216.285956,-8273.831378
166.126443,6291.750507,9844.739029,-15934.786358
166.126753,2960.823768,9844.739029,-14325.985813
166.127062,-5033.400406,9844.739029,-9882.631924
166.127372,-4737.318029,12805.562797,-10342.289223
166.127681,-962.267725,10214.842000,-18999.168350
166.127991,5551.544565,7624.121203,-20531.359346
166.128300,-6291.750507,2294.638420,-10342.289223
166.128610,-3330.926739,8216.285956,-1302.362347
166.128919,-3034.844362,6957.935855,-4290.134789
166.129229,6439.791695,13841.851115,-13942.938064
166.129538,-4293.194464,11103.089130,-12257.527968
166.129848,-1628.453072,8660.409521,-9116.536426
166.130157,-5995.668130,13471.748144,-16854.100956
166.130467,7402.059420,14137.933492,-22140.159892
166.130776,2146.597232,11029.068536,-16088.005458
166.131086,-444.123565,7254.018232,-3983.696590
166.131395,-2072.576638,10140.821405,153.219100
166.131705,5773.606348,6957.935855,-6971.469032
166.132014,3701.029710,8660.409521,-13176.842566
166.132324,370.102971,2590.720797,-10801.946522
166.132633,-1998.556043,8438.347739,-6205.373534
166.132943,2072.576638,6661.853478,-11568.042020
166.133252,-222.061783,10584.944971,-12180.918418
166.133562,-1554.432478,10510.924376,-5439.278036
166.133871,-222.061783,6587.832884,-8427.050478
166.134181,1554.432478,3552.988522,-10342.289223
166.134490,-2960.823768,2960.823768,-6435.202183
166.134800,3182.885551,4737.318029,-3983.696590
166.135109,666.185348,9252.574275,-4519.963438
166.135419,592.164754,10436.903782,-1915.238745
166.135728,-2220.617826,9770.718434,0.000000
166.136038,4441.235652,11991.336260,-8273.831378
166.136347,-1258.350101,11399.171507,-11797.870669
166.136657,-2738.761985,8956.491898,-7737.564530
166.136966,2664.741391,8660.409521,-7584.345430
166.137276,5699.585753,11547.212695,-8427.050478
166.137585,-666.185348,8438.347739,1072.533697
166.137895,-5181.441594,8142.265362,9806.022374
166.138204,1998.556043,11621.233289,2757.943793
166.138514,3701.029710,12435.459826,-4903.011187
166.138823,-3701.029710,11695.253884,-8886.707777
166.139133,222.061783,9844.739029,-6971.469032
166.139442,-1258.350101,12287.418637,-5362.668486
166.139752,-2294.638420,11473.192101,-612.876398
166.140061,370.102971,12509.480420,2451.505594
166.140371,-148.041188,13027.624579,1991.848295
166.140680,-2664.741391,10807.006753,1455.581446
166.140990,-5625.565159,8660.409521,1149.143247
166.141299,6587.832884,7920.203579,-10342.289223
166.141609,1110.308913,9548.656652,-11951.089769
166.141918,-4737.318029,15026.180623,-1455.581446
166.142228,-1036.288319,11177.109724,1302.362347
166.142537,7846.182985,13471.748144,-6281.983084
166.142847,-1406.391290,7550.100608,-612.876398
166.143156,-1628.453072,6069.688724,7201.297681
166.143466,666.185348,5551.544565,-2374.896044
166.143775,2812.782580,8216.285956,-7967.393179
166.144085,-370.102971,7624.121203,-3600.648841
166.144394,-740.205942,9400.615463,-2374.896044
166.144704,-1332.370696,10066.800811,-2374.896044
166.145013,-518.144159,7254.018232,306.438199
166.145323,222.061783,7328.038826,-2528.115143
166.145632,962.267725,8068.244768,-6205.373534
166.145942,-2442.679609,12509.480420,-1608.800546
166.146251,4737.318029,11917.315666,-4979.620737
166.146561,4737.318029,8216.285956,-7431.126331
166.146870,-3404.947333,10955.047942,3753.867940
166.147180,-1184.329507,12953.603985,11951.089769
166.147489,888.247130,12287.418637,-3983.696590
166.147799,1850.514855,12509.480420,-7354.516781
166.148108,-296.082377,10436.903782,-4290.134789
166.148418,1702.473667,8068.244768,-4749.792088
166.148727,-3552.988522,7846.182985,-4136.915689
166.149037,-296.082377,11621.233289,5362.668486
166.149346,-1628.453072,10584.944971,2911.162892
166.149656,1924.535449,12139.377449,-2911.162892
166.149965,-296.082377,15766.386565,-2374.896044
166.150275,-2072.576638,8068.244768,-7584.345430
166.150584,1776.494261,5625.565159,-10801.946522
166.150894,-4219.173869,6809.894666,-2451.505594
166.151203,296.082377,10658.965565,2068.457845
166.151513,-1480.411884,9622.677246,-919.314598
166.151822,-296.082377,10066.800811,3370.820191
166.152132,3552.988522,5255.462188,-1225.752797
166.152441,1776.494261,2960.823768,-4443.353888
166.152751,-5625.565159,5329.482782,1532.190996
166.153060,-1554.432478,4589.276840,1225.752797
166.153370,1258.350101,9770.718434,-9959.241474
166.153679,4885.359217,10955.047942,-9116.536426
166.153989,-1628.453072,13027.624579,-3447.429741
166.154298,-592.164754,4219.173869,-459.657299
166.154608,1554.432478,6143.709319,3294.210641
166.154917,-1406.391290,8882.471304,995.924147
166.155227,5625.565159,4959.379811,-5669.106685
166.155536,1924.535449,3108.864956,919.314598
166.155846,-2368.659014,6217.729913,10342.289223
166.156155,-0.000000,11029.068536,2068.457845
166.156465,6217.729913,9770.718434,-7967.393179
166.156774,-2220.617826,11325.150913,1378.971896
166.157084,-1628.453072,10140.821405,5209.449386
166.157393,-1554.432478,10732.986159,-5439.278036
166.157703,962.267725,15840.407159,-7660.954980
166.158012,-1332.370696,15840.407159,-6205.373534
166.158322,3182.885551,9992.780217,-7890.783629
166.158631,-148.041188,8290.306550,-689.485948
166.158941,814.226536,11177.109724,8886.707777
166.159250,3552.988522,11547.212695,6435.202183
166.159560,-370.102971,8734.430116,3830.477490
166.159869,-592.164754,8512.368333,9269.755526
166.160179,3849.070898,4737.318029,-3140.991542
166.160488,1776.494261,10362.883188,-8886.707777
166.160798,-5921.647536,8068.244768,2911.162892
166.161107,-2516.700203,10807.006753,3830.477490
166.161417,2294.638420,8586.388927,-7431.126331
166.161726,-1776.494261,10214.842000,-2757.943793
166.162036,-3108.864956,8956.491898,4519.963438
166.162345,-2442.679609,6661.853478,1378.971896
166.162655,-740.205942,6439.791695,-536.266849
166.162964,1184.329507,10066.800811,2528.115143
166.163274,666.185348,10510.924376,-1685.410096
166.163584,1258.350101,8956.491898,-153.219100
166.163893,-3478.967927,12287.418637,4673.182538
166.164203,4219.173869,9918.759623,-5362.668486
166.164512,6069.688724,11177.109724,-7660.954980
166.164822,-3701.029710,6883.915261,2911.162892
166.165131,-1258.350101,5107.421000,6128.763984
166.165441,-2886.803174,8216.285956,-1991.848295
166.165750,1332.370696,10066.800811,-2834.553343
166.166060,814.226536,9622.677246,-3064.381992
166.166369,3478.967927,9844.739029,-6052.154434
166.166679,-0.000000,11843.295072,-2604.724693
166.166988,-2812.782580,7624.121203,3753.867940
166.167298,-592.164754,7550.100608,536.266849
166.167607,-1406.391290,9474.636058,1762.019645
166.167917,1184.329507,10732.986159,1455.581446
166.168226,-0.000000,10140.821405,-6435.202183
166.168536,3256.906145,12065.356855,-10572.117872
166.168845,-0.000000,9326.594869,-229.828649
166.169155,-4145.153275,9844.739029,2911.162892
166.169464,-3775.050304,13397.727550,-1991.848295
166.169774,1924.535449,11843.295072,-3140.991542
166.170083,4441.235652,5477.523971,-6665.030833
166.170393,-2146.597232,3775.050304,-4290.134789
166.170702,-2220.617826,8290.306550,-459.657299
166.171012,3404.947333,8364.327145,0.000000
166.171321,3552.988522,7254.018232,2298.286494
166.171631,-1702.473667,8808.450710,6435.202183
166.171940,-2590.720797,11621.233289,3983.696590
166.172250,1406.391290,10658.965565,-6358.592633
166.172559,1998.556043,6069.688724,-8503.660028
166.172869,-4663.297435,8142.265362,-229.828649
166.173178,-4145.153275,9696.697840,1072.533697
166.173488,-0.000000,16358.551318,-6052.154434
166.173797,-0.000000,12731.542202,-6971.469032
166.174107,592.164754,7254.018232,-1225.752797
166.174416,-2812.782580,9622.677246,76.609550
166.174726,-1036.288319,9474.636058,612.876398
166.175035,2294.638420,6365.771101,-153.219100
166.175345,-148.041188,10066.800811,689.485948
166.175654,1924.535449,13027.624579,3140.991542
166.175964,666.185348,11399.171507,-4443.353888
166.176273,3923.091493,5995.668130,-8656.879127
166.176583,1480.411884,6661.853478,-1378.971896
166.176892,-2072.576638,9622.677246,8350.440928
166.177202,-4959.379811,6809.894666,5056.230287
166.177511,2664.741391,8364.327145,0.000000
166.177821,740.205942,7550.100608,-3217.601092
166.178130,-2738.761985,7328.038826,-4519.963438
166.178440,-2664.741391,11769.274478,-5439.278036
166.178749,-444.123565,10066.800811,-3983.696590
166.179059,3701.029710,11695.253884,-1149.143247
166.179368,-4737.318029,11843.295072,5132.839837
166.179678,-888.247130,13767.830521,5592.497135
166.179987,3775.050304,10362.883188,-383.047749
166.180297,1184.329507,6809.894666,-6511.811733
166.180606,-1702.473667,7328.038826,-2681.334243
166.180916,-814.226536,12213.398043,383.047749
166.181225,2516.700203,9178.553681,-2911.162892
166.181535,1258.350101,11325.150913,-1838.629195
166.181844,2960.823768,11843.295072,2911.162892
166.182154,-1628.453072,6735.874072,-306.438199
166.182463,2664.741391,9474.636058,-689.485948
166.182773,-814.226536,3923.091493,1378.971896
166.183082,-1554.432478,4737.318029,919.314598
166.183392,-1850.514855,13101.645173,-995.924147
166.183701,3552.988522,13841.851115,-4979.620737
166.184011,1406.391290,12731.542202,-5286.058936
166.184320,-2072.576638,10955.047942,153.219100
166.184630,-1480.411884,8512.368333,2987.772442
166.184939,-2368.659014,6883.915261,76.609550
166.185249,-1480.411884,6439.791695,1225.752797
166.185558,-1036.288319,8956.491898,5286.058936
166.185868,3627.009116,10955.047942,-5822.325785
166.186177,4367.215058,8808.450710,-9193.145976
166.186487,-3478.967927,12213.398043,-153.219100
166.186796,-2442.679609,11029.068536,4903.011187
166.187106,2442.679609,7920.203579,1302.362347
166.187415,3256.906145,10066.800811,1225.752797
166.187725,-2664.741391,7105.977043,2911.162892
166.188034,-2294.638420,7105.977043,-2145.067394
166.188344,-222.061783,8142.265362,306.438199
166.188653,3849.070898,6365.771101,-3370.820191
166.188963,-6217.729913,10288.862594,-3140.991542
166.189272,-3330.926739,14285.974681,4826.401637
166.189582,3034.844362,12657.521608,1378.971896
166.189891,5181.441594,9770.718434,-9882.631924
166.190201,-2442.679609,9992.780217,-5439.278036
166.190510,-3997.112087,7031.956449,6741.640382
166.190820,-148.041188,7105.977043,1302.362347
166.191129,1998.556043,6365.771101,-3217.601092
166.191439,4219.173869,9844.739029,536.266849
166.191748,-3552.988522,7550.100608,4903.011187
166.192058,-4219.173869,8364.327145,3064.381992
166.192367,-222.061783,13767.830521,-766.095498
166.192677,814.226536,12731.542202,-11261.603821
166.192986,-1184.329507,12213.398043,-12563.966167
166.193296,-1184.329507,13841.851115,-4443.353888
166.193605,3552.988522,13101.645173,-4596.572988
166.193915,814.226536,6143.709319,-3294.210641
166.194224,-2812.782580,11843.295072,9193.145976
166.194534,2368.659014,5995.668130,8197.221829
166.194843,2294.638420,2960.823768,2451.505594
166.195153,370.102971,2516.700203,2451.505594
166.195462,4737.318029,8438.347739,-5975.544884
166.195772,1924.535449,9326.594869,-8810.098227
166.196081,-2812.782580,6143.709319,229.828649
166.196391,-9178.553681,17764.942608,6205.373534
166.196700,2886.803174,17394.839637,-10265.679673
166.197010,8290.306550,13397.727550,-15934.786358
166.197319,666.185348,9918.759623,1072.533697
166.197629,-5255.462188,4589.276840,9346.365076
166.197938,-4367.215058,11325.150913,5975.544884
166.198248,2072.576638,11917.315666,-536.266849
166.198557,3552.988522,9474.636058,-5898.935335
166.198867,-444.123565,13397.727550,-5515.887586
166.199176,-2812.782580,10658.965565,-766.095498
166.199486,1702.473667,9844.739029,-4903.011187
166.199795,4737.318029,1184.329507,-9959.241474
166.200105,-1184.329507,3404.947333,4290.134789
166.200414,-7105.977043,5403.503377,17160.539155
166.200724,3108.864956,1480.411884,5056.230287
166.201033,148.041188,4071.132681,-4443.353888
166.201343,370.102971,9918.759623,-2145.067394
166.201652,-740.205942,7105.977043,-4903.011187
166.201962,-7031.956449,15174.221811,-3830.477490
166.202271,-3701.029710,19541.436869,1302.362347
166.202581,-592.164754,18061.024985,-3753.867940
166.202890,6365.771101,15692.365970,-9576.193725
166.203200,-1924.535449,11473.192101,-6894.859482
166.203509,-6513.812290,9622.677246,1532.190996
166.203819,2368.659014,6439.791695,3294.210641
166.204128,4811.338623,9992.780217,-4826.401637
166.204438,4293.194464,6809.894666,919.314598
166.204747,-5477.523971,3701.029710,10418.898773
166.205057,-4589.276840,7031.956449,8427.050478
166.205367,9548.656652,8438.347739,-7507.735880
166.205676,10807.006753,4737.318029,-16700.881856
166.205986,-9770.718434,4441.235652,-536.266849
166.206295,-7772.162391,10807.006753,11797.870669
166.206605,8216.285956,15840.407159,-4903.011187
166.206914,8068.244768,10288.862594,-13713.109414
166.207224,-2960.823768,14434.015869,5515.887586
166.207533,-7402.059420,13619.789333,14709.033562
166.207843,-666.185348,10214.842000,-919.314598
166.208152,6735.874072,8290.306550,-13483.280765
166.208462,-592.164754,15692.365970,-10725.336972
166.208771,-8290.306550,9622.677246,2681.334243
166.209081,-6809.894666,6809.894666,6894.859482
166.209390,4441.235652,9178.553681,-3677.258390
166.209700,7179.997637,6513.812290,-10342.289223
166.210009,-3256.906145,4219.173869,-153.219100
166.210319,-4589.276840,5477.523971,9499.584175
166.210629,6143.709319,2368.659014,-4596.572988
166.210938,2368.659014,4737.318029,-5592.497135
166.211248,-1406.391290,7550.100608,9269.755526
166.211557,-2886.803174,6957.935855,3677.258390
166.211867,888.247130,9844.739029,-3524.039291
166.212176,5033.400406,12583.501014,-2681.334243
166.212486,-2886.803174,16580.613101,-2911.162892
166.212795,-2590.720797,13471.748144,-2834.553343
166.213105,-2072.576638,12213.398043,-4903.011187
166.213414,-2812.782580,16210.510130,-5056.230287
166.213724,-148.041188,11621.233289,-5439.278036
166.214033,814.226536,6513.812290,-612.876398
166.214343,888.247130,3182.885551,3064.381992
166.214652,-2664.741391,7105.977043,6281.983084
166.214962,-518.144159,6143.709319,4136.915689
166.215271,4071.132681,7772.162391,1149.143247
166.215581,5551.544565,5255.462188,-1762.019645
166.215891,-2220.617826,8734.430116,-6665.030833
166.216200,2664.741391,10732.986159,-6435.202183
166.216510,1924.535449,12065.356855,-2834.553343
166.216819,-3108.864956,10955.047942,6511.811733
166.217129,-4515.256246,13693.809927,7431.126331
166.217438,-814.226536,14211.954086,-4366.744339
166.217748,3849.070898,9474.636058,-9576.193725
166.218057,-5995.668130,7105.977043,-4826.401637
166.218367,-7328.038826,16432.571912,-4366.744339
166.218676,2590.720797,13027.624579,-12947.013916
166.218986,4441.235652,10066.800811,-7814.174080
166.219295,1702.473667,7179.997637,9652.803275
166.219605,-4219.173869,3256.906145,11644.651570
166.219914,2368.659014,1258.350101,4826.401637
166.220224,1850.514855,3108.864956,0.000000
166.220533,5625.565159,1110.308913,-4903.011187
166.220843,-5181.441594,7772.162391,-2911.162892
166.221153,-4515.256246,15544.324782,-2681.334243
166.221462,2664.741391,16876.695478,-11721.261119
166.221772,518.144159,15914.427753,-9269.755526
166.222081,-1702.473667,15914.427753,-1762.019645
166.222391,-2960.823768,11991.336260,-2681.334243
166.222700,2368.659014,7402.059420,-8810.098227
166.223010,-1702.473667,7772.162391,4136.915689
166.223319,1480.411884,7105.977043,2987.772442
166.223629,-0.000000,7254.018232,-2757.943793
166.223938,-1332.370696,9622.677246,1608.800546
166.224248,1998.556043,7624.121203,3600.648841
166.224557,1850.514855,11843.295072,-7584.345430
166.224867,-0.000000,9474.636058,-6052.154434
166.225176,-2442.679609,4293.194464,3370.820191
166.225486,-2368.659014,8290.306550,842.705048
166.225795,3552.988522,8956.491898,-1378.971896
166.226105,740.205942,12139.377449,1915.238745
166.226415,-3108.864956,13767.830521,383.047749
166.226724,-2294.638420,15322.262999,-4366.744339
166.227034,3182.885551,12361.439231,-1838.629195
166.227343,-1998.556043,16654.633695,-6665.030833
166.227653,-2072.576638,11991.336260,-6511.811733
166.227962,-74.020594,11843.295072,-4673.182538
166.228272,1480.411884,3034.844362,-2987.772442
166.228581,3775.050304,-2960.823768,6358.592633
166.228891,-5699.585753,2738.761985,14019.547613
166.229200,-2886.803174,5181.441594,5515.887586
166.229510,5773.606348,2294.638420,-2681.334243
166.229819,4219.173869,5847.626942,-1838.629195
166.230129,-6291.750507,10807.006753,-2911.162892
166.230438,-2442.679609,14137.933492,-8350.440928
166.230748,1110.308913,12583.501014,-11108.384721
166.231057,1406.391290,13101.645173,-4903.011187
166.231367,962.267725,12879.583391,153.219100
166.231677,-1776.494261,8216.285956,2604.724693
166.231986,-3034.844362,11547.212695,9116.536426
166.232296,3849.070898,12583.501014,4290.134789
166.232605,4885.359217,8512.368333,-8580.269578
166.232915,-3256.906145,9104.533087,-6818.249932
166.233224,-4959.379811,6217.729913,1455.581446
166.233534,2368.659014,8882.471304,-8963.317327
166.233843,6217.729913,4737.318029,-13100.233016
166.234153,-2664.741391,3478.967927,1685.410096
166.234462,-6143.709319,9474.636058,10572.117872
166.234772,3627.009116,1776.494261,-842.705048
166.235081,12139.377449,2590.720797,-3600.648841
166.235391,1036.288319,7698.141797,5669.106685
166.235700,-8586.388927,13101.645173,12257.527968
166.236010,-3849.070898,15766.386565,6435.202183
166.236319,3627.009116,21317.931130,-12640.575717
166.236629,8364.327145,18061.024985,-21527.283494
166.236939,-3478.967927,16728.654289,-9422.974625
166.237248,-10807.006753,7550.100608,3830.477490
166.237558,-666.185348,7105.977043,1072.533697
166.237867,4219.173869,7550.100608,-3524.039291
166.238177,-148.041188,5181.441594,2757.943793
166.238486,-2516.700203,3034.844362,10495.508323
166.238796,592.164754,3627.009116,1991.848295
166.239105,4811.338623,4293.194464,-4673.182538
166.239415,1258.350101,8068.244768,-1608.800546
166.239724,-74.020594,5181.441594,-459.657299
166.240034,-2664.741391,9474.636058,2834.553343
166.240343,-0.000000,8808.450710,153.219100
166.240653,-888.247130,7772.162391,-4290.134789
166.240962,-4737.318029,15174.221811,-1608.800546
166.241272,-0.000000,17764.942608,-3370.820191
166.241581,3404.947333,14730.098246,-14019.547613
166.241891,-0.000000,13471.748144,-5056.230287
166.242201,-5847.626942,9844.739029,5592.497135
166.242510,-3108.864956,10436.903782,2757.943793
166.242820,3404.947333,11177.109724,-5669.106685
166.243129,4071.132681,2812.782580,-9269.755526
166.243439,4959.379811,3627.009116,-3064.381992
166.243748,296.082377,740.205942,5132.839837
166.244058,-1998.556043,1628.453072,10955.165621
166.244367,4663.297435,11399.171507,10878.556072
166.244677,-0.000000,12583.501014,3600.648841
166.244986,-6365.771101,10881.027347,1455.581446
166.245296,-814.226536,10881.027347,-9346.365076
166.245605,4515.256246,19985.560434,-26277.075581
166.245915,-3923.091493,15988.448347,-17237.148705
166.246224,-9474.636058,13619.789333,5669.106685
166.246534,3108.864956,17320.819043,0.000000
166.246843,3997.112087,10066.800811,-3753.867940
166.247153,4071.132681,4959.379811,9576.193725
166.247463,-0.000000,-444.123565,13176.842566
166.247772,-1480.411884,-1258.350101,5669.106685
166.248082,-666.185348,2368.659014,2757.943793
166.248391,1628.453072,9548.656652,-7737.564530
166.248701,6883.915261,10807.006753,-16930.710506
166.249010,1110.308913,10362.883188,-8503.660028
166.249320,-6143.709319,9104.533087,3140.991542
166.249629,-1332.370696,6957.935855,5515.887586
166.249939,-1480.411884,9474.636058,5592.497135
166.250248,-1998.556043,9474.636058,2987.772442
166.250558,2442.679609,10436.903782,-2834.553343
166.250867,444.123565,12879.583391,-6741.640382
166.251177,444.123565,13989.892304,-6741.640382
166.251486,5995.668130,18357.107362,-3907.087040
166.251796,962.267725,13619.789333,-1149.143247
166.252105,-4441.235652,7994.224174,3064.381992
166.252415,-2812.782580,8512.368333,5439.278036
166.252725,814.226536,518.144159,-3983.696590
166.253034,4885.359217,-2738.761985,-6894.859482
166.253344,814.226536,3404.947333,2451.505594
166.253653,-3478.967927,5477.523971,5286.058936
166.253963,-2664.741391,10732.986159,4213.525239
166.254272,6143.709319,16358.551318,306.438199
166.254582,5255.462188,12213.398043,-7431.126331
166.254891,-5181.441594,14211.954086,-5362.668486
166.255201,-9622.677246,8142.265362,459.657299
166.255510,9844.739029,6143.709319,-8963.317327
166.255820,4071.132681,6217.729913,-8197.221829
166.256129,-5329.482782,9548.656652,5286.058936
166.256439,-0.000000,15396.283594,7201.297681
166.256748,-74.020594,10807.006753,153.219100
166.257058,2516.700203,10362.883188,-2374.896044
166.257367,-1776.494261,12435.459826,-2221.676944
166.257677,296.082377,7328.038826,-11491.432470
166.257987,3034.844362,9622.677246,-12640.575717
166.258296,4589.276840,4811.338623,-3370.820191
166.258606,-444.123565,5033.400406,2604.724693
166.258915,-3627.009116,5403.503377,8963.317327
166.259225,1628.453072,10140.821405,8044.002729
166.259534,4737.318029,3552.988522,-459.657299
166.259844,5329.482782,5033.400406,-6052.154434
166.260153,-7772.162391,10881.027347,-1838.629195
166.260463,1480.411884,15692.365970,-9959.241474
166.260772,2812.782580,13397.727550,-16700.881856
166.261082,-2442.679609,11695.253884,-5362.668486
166.261391,-3330.926739,18875.251521,4136.915689
166.261701,1850.514855,6291.750507,76.609550
166.262010,3404.947333,8142.265362,1455.581446
166.262320,2368.659014,4959.379811,6971.469032
166.262629,-4293.194464,5181.441594,919.314598
166.262939,-4663.297435,8956.491898,-1455.581446
166.263249,296.082377,11473.192101,-6665.030833
166.263558,5255.462188,11843.295072,-14249.376263
166.263868,592.164754,12731.542202,-8733.488677
166.264177,-1776.494261,7698.141797,76.609550
166.264487,1776.494261,3923.091493,4903.011187
166.264796,1184.329507,3256.906145,7048.078582
166.265106,-2146.597232,4145.153275,5209.449386
166.265415,1702.473667,11695.253884,-842.705048
166.265725,1850.514855,8216.285956,-4366.744339
166.266034,592.164754,11029.068536,-5209.449386
166.266344,444.123565,17394.839637,-8580.269578
166.266653,-1184.329507,16432.571912,-8580.269578
166.266963,-1628.453072,13767.830521,-1608.800546
166.267272,-0.000000,9696.697840,3677.258390
166.267582,740.205942,6883.915261,306.438199
166.267891,-1850.514855,9178.553681,2604.724693
166.268201,-444.123565,3775.050304,4596.572988
166.268511,6291.750507,1776.494261,-4903.011187
166.268820,-3701.029710,4959.379811,-2451.505594
166.269130,-4145.153275,9474.636058,3830.477490
166.269439,-1406.391290,10362.883188,-5132.839837
166.269749,5255.462188,12361.439231,-15551.738609
166.270058,1554.432478,7476.080014,-3983.696590
166.270368,962.267725,5033.400406,4366.744339
166.270677,2220.617826,1554.432478,3830.477490
166.270987,-0.000000,5255.462188,10955.165621
166.271296,-1776.494261,15692.365970,11951.089769
166.271606,-888.247130,14952.160028,-1378.971896
166.271915,-518.144159,18875.251521,-8810.098227
166.272225,-814.226536,18209.066173,-9729.412825
166.272534,888.247130,16432.571912,-14325.985813
166.272844,370.102971,10066.800811,-15321.909960
166.273153,-444.123565,4811.338623,-1072.533697
166.273463,2146.597232,5625.565159,9882.631924
166.273773,-3404.947333,370.102971,15321.909960
166.274082,1332.370696,296.082377,10648.727422
166.274392,5181.441594,2664.741391,1302.362347
166.274701,888.247130,5033.400406,-2834.553343
166.275011,-2146.597232,5403.503377,0.000000
166.275320,-222.061783,15396.283594,-5056.230287
166.275630,2590.720797,20799.786970,-13100.233016
166.275939,-1628.453072,18949.272115,-7507.735880
166.276249,-2072.576638,15174.221811,766.095498
166.276558,-1628.453072,6809.894666,1378.971896
166.276868,-3775.050304,7846.182985,3140.991542
166.277177,2442.679609,2664.741391,2451.505594
166.277487,-222.061783,7105.977043,995.924147
166.277796,-5255.462188,8290.306550,4519.963438
166.278106,-1924.535449,12065.356855,-1072.533697
166.278415,3034.844362,12657.521608,-14555.814462
166.278725,4441.235652,14434.015869,-14172.766713
166.279035,3478.967927,2960.823768,-3753.867940
166.279344,-2368.659014,-1110.308913,8350.440928
166.279654,-5107.421000,5403.503377,14096.157163
166.279963,1332.370696,9770.718434,11644.651570
166.280273,4737.318029,13693.809927,-306.438199
166.280582,-222.061783,10658.965565,-8886.707777
166.280892,-4737.318029,18135.045579,-10801.946522
166.281201,1554.432478,15248.242405,-9576.193725
166.281511,2590.720797,14508.036463,-16011.395908
166.281820,-2368.659014,10807.006753,-2911.162892
166.282130,-2368.659014,8068.244768,9576.193725
166.282439,2442.679609,9622.677246,7201.297681
166.282749,3849.070898,3552.988522,4366.744339
166.283058,5107.421000,-148.041188,4596.572988
166.283368,1480.411884,5255.462188,0.000000
166.283677,-666.185348,8512.368333,-1915.238745
166.283987,-4219.173869,10584.944971,76.609550
166.284297,-2368.659014,18579.169144,-2911.162892
166.284606,-74.020594,19911.539840,-13176.842566
166.284916,666.185348,12657.521608,-13176.842566
166.285225,888.247130,6809.894666,-3370.820191
166.285535,444.123565,2368.659014,6128.763984
166.285844,-6365.771101,4737.318029,12180.918418
166.286154,-0.000000,11621.233289,11797.870669
166.286463,7105.977043,9918.759623,-4826.401637
166.286773,3997.112087,8956.491898,-7814.174080
166.287082,-1998.556043,13545.768739,-766.095498
166.287392,-1258.350101,8068.244768,-4903.011187
166.287701,1036.288319,7179.997637,-8120.612279
166.288011,-518.144159,7994.224174,2987.772442
166.288320,-2664.741391,11769.274478,-229.828649
166.288630,148.041188,7846.182985,-1455.581446
166.288939,-666.185348,11621.233289,2528.115143
166.289249,1406.391290,14211.954086,2834.553343
166.289559,4367.215058,7476.080014,-6894.859482
166.289868,-1184.329507,10214.842000,-6128.763984
166.290178,-6439.791695,8438.347739,4903.011187
166.290487,2220.617826,10658.965565,-3140.991542
166.290797,2664.741391,11843.295072,-10801.946522
166.291106,74.020594,7920.203579,-1378.971896
166.291416,4293.194464,3034.844362,2604.724693
166.291725,-2220.617826,-1628.453072,7660.954980
166.292035,-5033.400406,6809.894666,17160.539155
166.292344,-1924.535449,13545.768739,10189.070123
166.292654,4515.256246,16062.468941,-11721.261119
166.292963,666.185348,17246.798449,-14249.376263
166.293273,-4959.379811,12287.418637,-10112.460574
166.293582,1554.432478,10140.821405,-15475.129060
166.293892,370.102971,8290.306550,-9499.584175
166.294201,-2368.659014,4663.297435,10955.165621
166.294511,592.164754,2590.720797,18616.120601
166.294821,2368.659014,3849.070898,10495.508323
166.295130,-592.164754,7550.100608,3983.696590
166.295440,9252.574275,6883.915261,-4443.353888
166.295749,1184.329507,4811.338623,-8580.269578
166.296059,-11399.171507,15026.180623,-1532.190996
166.296368,-1332.370696,23464.528361,-4290.134789
166.296678,5477.523971,19763.498651,-18462.901502
166.296987,2886.803174,16950.716072,-9499.584175
166.297297,-5033.400406,11843.295072,7124.688131
166.297606,-2442.679609,-0.000000,4903.011187
166.297916,-74.020594,1184.329507,3907.087040
166.298225,2516.700203,6587.832884,4596.572988
166.298535,2368.659014,2664.741391,2987.772442
166.298844,2516.700203,10807.006753,-5056.230287
166.299154,-3404.947333,11769.274478,-2374.896044
166.299463,3108.864956,12139.377449,-2757.943793
166.299773,3478.967927,8586.388927,-6205.373534
166.300083,-5551.544565,5699.585753,-2068.457845
166.300392,-1258.350101,10584.944971,4060.306139
166.300702,-2960.823768,11547.212695,919.314598
166.301011,2146.597232,13767.830521,306.438199
166.301321,3330.926739,18875.251521,-1225.752797
166.301630,370.102971,8808.450710,-8503.660028
166.301940,-3701.029710,7846.182985,-1685.410096
166.302249,-6735.874072,10436.903782,4979.620737
166.302559,2516.700203,10658.965565,-6205.373534
166.302868,1110.308913,6883.915261,-11568.042020
166.303178,1258.350101,6069.688724,-229.828649
166.303487,1850.514855,1998.556043,5439.278036
166.303797,-1184.329507,666.185348,3064.381992
166.304106,1480.411884,4515.256246,7584.345430
166.304416,888.247130,9400.615463,6665.030833
166.304725,-1628.453072,10288.862594,1302.362347
166.305035,-4737.318029,14359.995275,-2298.286494
166.305345,2886.803174,21317.931130,-12870.404366
166.305654,4959.379811,12065.356855,-20531.359346
166.305964,-6143.709319,9918.759623,-2145.067394
166.306273,-8586.388927,14508.036463,14709.033562
166.306583,-2516.700203,7994.224174,1072.533697
166.306892,6587.832884,14434.015869,-11568.042020
166.307202,4367.215058,5329.482782,459.657299
166.307512,-0.000000,4885.359217,5132.839837
166.307821,-2960.823768,2664.741391,4826.401637
166.308131,-4441.235652,5847.626942,2987.772442
166.308440,2294.638420,9178.553681,-1915.238745
166.308750,2960.823768,12435.459826,-9193.145976
166.309060,-0.000000,9252.574275,-6511.811733
166.309369,-1184.329507,9696.697840,-2145.067394
166.309679,-222.061783,7476.080014,-1915.238745
166.309988,1332.370696,11029.068536,2757.943793
166.310298,2960.823768,12213.398043,7201.297681
