#time,accel_x,accel_y,accel_z
76.892856,-0.000000,9844.739029,-1838.629195
76.893165,1332.370696,8956.491898,0.000000
76.893475,148.041188,9844.739029,0.000000
76.893785,-0.000000,8882.471304,-459.657299
76.894094,-0.000000,8438.347739,-1762.019645
76.894404,-518.144159,8882.471304,-1991.848295
76.894714,-0.000000,8882.471304,-1991.848295
76.895023,-0.000000,10140.821405,-1225.752797
76.895333,-0.000000,10288.862594,0.000000
76.895643,370.102971,10214.842000,-383.047749
76.895952,444.123565,9474.636058,-383.047749
76.896262,-0.000000,8216.285956,-1532.190996
76.896572,-444.123565,8660.409521,-1149.143247
76.896881,-148.041188,9252.574275,-1608.800546
76.897191,1258.350101,10066.800811,-1608.800546
76.897500,-0.000000,10214.842000,-842.705048
76.897810,592.164754,10362.883188,-536.266849
76.898120,444.123565,9622.677246,0.000000
76.898429,-740.205942,7624.121203,-536.266849
76.898739,-1776.494261,8808.450710,1225.752797
76.899049,-0.000000,9474.636058,-1762.019645
76.899358,592.164754,9622.677246,-1149.143247
76.899668,148.041188,9400.615463,-306.438199
76.899978,370.102971,9104.533087,1455.581446
76.900287,1184.329507,8142.265362,-153.219100
76.900597,3997.112087,5551.544565,-306.438199
76.900907,3627.009116,6661.853478,4366.744339
76.901216,2220.617826,6587.832884,11491.432470
76.901526,-666.185348,5403.503377,13406.671215
76.901835,4515.256246,7624.121203,9806.022374
76.902145,6143.709319,6439.791695,3677.258390
76.902455,1924.535449,6587.832884,4979.620737
76.902764,-2664.741391,9474.636058,13942.938064
76.903074,-0.000000,11251.130318,16011.395908
76.903384,1850.514855,11843.295072,4290.134789
76.903693,-148.041188,12953.603985,6741.640382
76.904003,-2072.576638,13175.665768,11031.775171
76.904313,-4885.359217,13619.789333,9882.631924
76.904622,-2072.576638,17320.819043,3140.991542
76.904932,6661.853478,13767.830521,1685.410096
76.905242,962.267725,15766.386565,10495.508323
76.905551,-13545.768739,10584.944971,24055.398637
76.905861,-888.247130,17838.963202,9576.193725
76.906170,1036.288319,8882.471304,-5209.449386
76.906480,592.164754,11917.315666,919.314598
76.906790,-10362.883188,5255.462188,13406.671215
76.907099,-148.041188,9992.780217,6358.592633
76.907409,-296.082377,3256.906145,8044.002729
76.907719,-3108.864956,4219.173869,15858.176809
76.908028,4589.276840,2812.782580,14785.643111
76.908338,-2960.823768,-888.247130,10955.165621
76.908648,2368.659014,3997.112087,13789.718964
76.908957,-7105.977043,7550.100608,14096.157163
76.909267,962.267725,9474.636058,-536.266849
76.909577,1110.308913,10658.965565,-1685.410096
76.909886,1998.556043,13471.748144,1838.629195
76.910196,1776.494261,9178.553681,6205.373534
76.910505,-740.205942,9770.718434,16088.005458
76.910815,-1776.494261,10140.821405,26966.561530
76.911125,-74.020594,4885.359217,17773.415554
76.911434,4515.256246,7994.224174,0.000000
76.911744,-2812.782580,11399.171507,0.000000
76.912054,-666.185348,18727.210333,-995.924147
76.912363,5995.668130,18653.189738,-8656.879127
76.912673,666.185348,17320.819043,-2757.943793
76.912983,-10288.862594,14656.077652,14019.547613
76.913292,-6957.935855,11251.130318,14862.252661
76.913602,3997.112087,9400.615463,-3677.258390
76.913912,4071.132681,7402.059420,-9576.193725
76.914221,4515.256246,8512.368333,-3907.087040
76.914531,1258.350101,5921.647536,2604.724693
76.914840,-370.102971,6661.853478,11184.994271
76.915150,-0.000000,6217.729913,12104.308868
76.915460,2368.659014,3997.112087,536.266849
76.915769,-1850.514855,1850.514855,-7277.907231
76.916079,-3182.885551,3923.091493,-6281.983084
76.916389,592.164754,9474.636058,-8427.050478
76.916698,222.061783,13249.686362,-8886.707777
76.917008,-592.164754,13915.871710,-3600.648841
76.917318,2368.659014,13397.727550,2451.505594
76.917627,3034.844362,7994.224174,-2374.896044
76.917937,-2072.576638,7994.224174,7737.564530
76.918247,-1702.473667,7402.059420,15628.348159
76.918556,1702.473667,9326.594869,1378.971896
76.918866,10288.862594,10214.842000,-15092.081311
76.919175,-2886.803174,8808.450710,-6128.763984
76.919485,-2960.823768,7698.141797,2757.943793
76.919795,1776.494261,13989.892304,-2911.162892
76.920104,-1110.308913,14582.057057,0.000000
76.920414,1554.432478,10362.883188,-2145.067394
76.920724,1406.391290,2664.741391,-2834.553343
76.921033,4293.194464,1480.411884,-3217.601092
76.921343,1258.350101,2590.720797,9193.145976
76.921653,-2960.823768,74.020594,12257.527968
76.921962,2516.700203,6217.729913,8273.831378
76.922272,8734.430116,9548.656652,-4290.134789
76.922582,1036.288319,8290.306550,-5898.935335
76.922891,-8512.368333,14211.954086,4290.134789
76.923201,-5107.421000,18209.066173,-995.924147
76.923510,2812.782580,13767.830521,-16164.615008
76.923820,3256.906145,14137.933492,-9806.022374
76.924130,-4071.132681,11399.171507,4903.011187
76.924439,-8290.306550,9696.697840,6511.811733
76.924749,-1998.556043,12361.439231,8120.612279
76.925059,2146.597232,14730.098246,2911.162892
76.925368,5625.565159,12509.480420,-10189.070123
76.925678,2146.597232,11029.068536,-6435.202183
76.925988,-7994.224174,12731.542202,6435.202183
76.926297,-1776.494261,13915.871710,2374.896044
76.926607,6735.874072,13249.686362,-10878.556072
76.926917,2368.659014,9030.512492,-3370.820191
76.927226,-1406.391290,6217.729913,8427.050478
76.927536,-1554.432478,5107.421000,8427.050478
76.927845,-2072.576638,3849.070898,5132.839837
76.928155,222.061783,2146.597232,5515.887586
76.928465,4367.215058,4293.194464,-4673.182538
76.928774,-296.082377,4885.359217,-10878.556072
76.929084,-6439.791695,9548.656652,4443.353888
76.929394,-5773.606348,12435.459826,7584.345430
76.929703,4885.359217,13471.748144,-5745.716235
76.930013,2960.823768,8586.388927,-5745.716235
76.930323,-1258.350101,7920.203579,6435.202183
76.930632,-3108.864956,9326.594869,8810.098227
76.930942,-2146.597232,10658.965565,5362.668486
76.931252,2960.823768,10436.903782,-612.876398
76.931561,888.247130,11473.192101,-2451.505594
76.931871,-2368.659014,13175.665768,-7431.126331
76.932180,-9178.553681,14211.954086,995.924147
76.932490,-2664.741391,15248.242405,-2068.457845
76.932800,6069.688724,13545.768739,-14019.547613
76.933109,3182.885551,8438.347739,-10418.898773
76.933419,-2960.823768,7254.018232,6358.592633
76.933729,-4441.235652,7402.059420,12334.137518
76.934038,1480.411884,7772.162391,3370.820191
76.934348,4293.194464,6809.894666,-3140.991542
76.934658,814.226536,6439.791695,-4903.011187
76.934967,-2368.659014,7328.038826,-8350.440928
76.935277,-6217.729913,9918.759623,-5362.668486
76.935587,-2738.761985,11991.336260,-3677.258390
76.935896,4219.173869,9844.739029,-10495.508323
76.936206,5551.544565,7031.956449,-10342.289223
76.936515,-2664.741391,5181.441594,6588.421283
76.936825,-3552.988522,7550.100608,12410.747068
76.937135,5699.585753,6365.771101,689.485948
76.937444,5921.647536,7105.977043,-5286.058936
76.937754,666.185348,6365.771101,-1378.971896
76.938064,-2442.679609,7254.018232,-612.876398
76.938373,-740.205942,10584.944971,-4443.353888
76.938683,-592.164754,12953.603985,-6588.421283
76.938993,4811.338623,12361.439231,-8733.488677
76.939302,7105.977043,9770.718434,-9729.412825
76.939612,222.061783,9252.574275,2834.553343
76.939922,-1110.308913,10584.944971,12640.575717
76.940231,4219.173869,7179.997637,3677.258390
76.940541,7105.977043,7402.059420,-7354.516781
76.940850,1406.391290,8956.491898,-5669.106685
76.941160,-2220.617826,10584.944971,-2221.676944
76.941470,-3478.967927,13915.871710,-3983.696590
76.941779,-1480.411884,15026.180623,-4903.011187
76.942089,2886.803174,12213.398043,-7507.735880
76.942399,1776.494261,7920.203579,-5898.935335
76.942708,-1480.411884,7105.977043,3370.820191
76.943018,-6957.935855,10732.986159,14709.033562
76.943328,1110.308913,9548.656652,4136.915689
76.943637,4811.338623,7920.203579,-6588.421283
76.943947,-222.061783,7105.977043,-4979.620737
76.944257,-6735.874072,9178.553681,919.314598
76.944566,-7105.977043,10955.047942,-766.095498
76.944876,-2590.720797,12879.583391,-4979.620737
76.945185,3701.029710,11695.253884,-9959.241474
76.945495,4219.173869,9030.512492,-7354.516781
76.945805,-2072.576638,8660.409521,4903.011187
76.946114,-3775.050304,6217.729913,16471.053207
76.946424,2590.720797,5773.606348,10035.851024
76.946734,3627.009116,3182.885551,-919.314598
76.947043,962.267725,5403.503377,-2221.676944
76.947353,-4219.173869,10214.842000,-1225.752797
76.947663,-6069.688724,11325.150913,-2681.334243
76.947972,-1480.411884,14211.954086,-5362.668486
76.948282,2442.679609,11621.233289,-8273.831378
76.948591,2220.617826,7254.018232,-5669.106685
76.948901,-1850.514855,9252.574275,7277.907231
76.949210,-4293.194464,10214.842000,13942.938064
76.949520,2146.597232,9622.677246,7201.297681
76.949829,6365.771101,10214.842000,-1608.800546
76.950139,-592.164754,9400.615463,-1608.800546
76.950449,-5403.503377,10510.924376,-1532.190996
76.950758,-7698.141797,13249.686362,-2604.724693
76.951068,-518.144159,16062.468941,-9652.803275
76.951377,5255.462188,14211.954086,-14862.252661
76.951687,1258.350101,11843.295072,-5362.668486
76.951996,-3775.050304,9400.615463,9346.365076
76.952306,-1406.391290,7254.018232,14632.424012
76.952615,3923.091493,4885.359217,7277.907231
76.952925,5033.400406,4367.215058,-153.219100
76.953234,-148.041188,6809.894666,-2528.115143
76.953544,-3108.864956,8956.491898,-2757.943793
76.953854,-2886.803174,10955.047942,-5822.325785
76.954163,-1036.288319,12287.418637,-9269.755526
76.954473,2886.803174,12287.418637,-9652.803275
76.954782,2146.597232,5921.647536,-2681.334243
76.955092,-1184.329507,6291.750507,8656.879127
76.955401,-1110.308913,9474.636058,12793.794817
76.955711,3404.947333,6809.894666,4596.572988
76.956020,6513.812290,7179.997637,-3370.820191
76.956330,1184.329507,8438.347739,-4673.182538
76.956640,-2368.659014,10362.883188,-4060.306139
76.956949,-3923.091493,13693.809927,-5898.935335
76.957259,1036.288319,13323.706956,-8810.098227
76.957568,4737.318029,11399.171507,-11644.651570
76.957878,4515.256246,8586.388927,-5056.230287
76.958187,666.185348,7698.141797,10189.070123
76.958497,-1406.391290,7179.997637,15475.129060
76.958806,5921.647536,6587.832884,4979.620737
76.959116,7550.100608,6439.791695,-5515.887586
76.959426,-592.164754,9770.718434,-7201.297681
76.959735,-5107.421000,11695.253884,-2681.334243
76.960045,-5255.462188,14508.036463,-3600.648841
76.960354,-814.226536,13989.892304,-10418.898773
76.960664,4367.215058,11103.089130,-11338.213370
76.960973,-814.226536,8512.368333,-3294.210641
76.961283,-5625.565159,6661.853478,8427.050478
76.961592,-1184.329507,8438.347739,13713.109414
76.961902,2664.741391,7994.224174,2451.505594
76.962212,3182.885551,9252.574275,-2298.286494
76.962521,-2590.720797,7994.224174,-612.876398
76.962831,-7772.162391,9918.759623,-4213.525239
76.963140,-8216.285956,12139.377449,-8350.440928
76.963450,-1110.308913,14137.933492,-11184.994271
76.963759,3478.967927,8364.327145,-13713.109414
76.964069,1998.556043,6513.812290,-3600.648841
76.964378,-2960.823768,6587.832884,14709.033562
76.964688,-1110.308913,5033.400406,15628.348159
76.964998,2590.720797,6513.812290,7354.516781
76.965307,4515.256246,6513.812290,-1532.190996
76.965617,3256.906145,9104.533087,-8427.050478
76.965926,-1776.494261,11843.295072,-7660.954980
76.966236,-6513.812290,16136.489536,-1072.533697
76.966545,-1036.288319,16062.468941,-4749.792088
76.966855,5921.647536,9104.533087,-11031.775171
76.967164,888.247130,7920.203579,-2757.943793
76.967474,-5255.462188,9622.677246,12104.308868
76.967784,-148.041188,10066.800811,11874.480219
76.968093,5625.565159,11769.274478,-766.095498
76.968403,4071.132681,10881.027347,-4903.011187
76.968712,-2294.638420,11843.295072,-2528.115143
76.969022,-7698.141797,12361.439231,-1378.971896
76.969331,-5107.421000,15322.262999,-6281.983084
76.969641,1924.535449,12361.439231,-14172.766713
76.969950,4367.215058,9252.574275,-12640.575717
76.970260,-0.000000,5773.606348,2757.943793
76.970570,-3108.864956,4515.256246,15398.519510
76.970879,1332.370696,4589.276840,13713.109414
76.971189,4737.318029,2886.803174,2528.115143
76.971498,2886.803174,4441.235652,-6818.249932
76.971808,-1110.308913,9474.636058,-5822.325785
76.972117,-3849.070898,11695.253884,-6358.592633
76.972427,-3775.050304,15322.262999,-7431.126331
76.972736,370.102971,10288.862594,-7890.783629
76.973046,1332.370696,7105.977043,-7048.078582
76.973356,518.144159,6661.853478,612.876398
76.973665,-2220.617826,8068.244768,11491.432470
76.973975,1924.535449,11621.233289,10342.289223
76.974284,5477.523971,10066.800811,-842.705048
76.974594,5033.400406,10584.944971,-5975.544884
76.974903,-1776.494261,10066.800811,-4749.792088
76.975213,-5921.647536,11843.295072,-5898.935335
76.975522,-3552.988522,13175.665768,-7660.954980
76.975832,2146.597232,11843.295072,-9729.412825
76.976142,4219.173869,9252.574275,-9499.584175
76.976451,2738.761985,6365.771101,1532.190996
76.976761,-1258.350101,4885.359217,13330.061665
76.977070,444.123565,3775.050304,12870.404366
76.977380,4145.153275,8364.327145,2757.943793
76.977689,5181.441594,7550.100608,-7814.174080
76.977999,-1628.453072,9030.512492,-8733.488677
76.978308,-5107.421000,13397.727550,-4903.011187
76.978618,-4959.379811,14137.933492,-4596.572988
76.978928,1184.329507,10436.903782,-11414.822920
76.979237,1332.370696,6291.750507,-8273.831378
76.979547,-2368.659014,6143.709319,2987.772442
76.979856,-3923.091493,7476.080014,11568.042020
76.980166,-148.041188,9696.697840,8350.440928
76.980475,3701.029710,9548.656652,-3600.648841
76.980785,2812.782580,9104.533087,-6358.592633
76.981094,-3256.906145,9030.512492,-4519.963438
76.981404,-7772.162391,12583.501014,-4596.572988
76.981713,-3404.947333,13101.645173,-7890.783629
76.982023,2516.700203,9992.780217,-11797.870669
76.982333,3552.988522,5995.668130,-7354.516781
76.982642,740.205942,4885.359217,7201.297681
76.982952,-74.020594,5107.421000,16011.395908
76.983261,1332.370696,6217.729913,9652.803275
76.983571,5181.441594,7772.162391,612.876398
76.983880,2146.597232,8660.409521,-6971.469032
76.984190,1036.288319,12731.542202,-9499.584175
76.984499,-3775.050304,16728.654289,-6128.763984
76.984809,-6809.894666,14952.160028,-2451.505594
76.985119,2072.576638,10436.903782,-6052.154434
76.985428,4441.235652,7772.162391,-6741.640382
76.985738,-2294.638420,6439.791695,5439.278036
76.986047,-4589.276840,11621.233289,13636.499864
76.986357,1776.494261,12065.356855,5439.278036
76.986666,6661.853478,12287.418637,-7354.516781
76.986976,2294.638420,9770.718434,-7124.688131
76.987285,-4811.338623,11991.336260,-5898.935335
76.987595,-8512.368333,10362.883188,-1608.800546
76.987905,-592.164754,12139.377449,-6205.373534
76.988214,3701.029710,8882.471304,-10572.117872
76.988524,3552.988522,4885.359217,-4749.792088
76.988833,-0.000000,3552.988522,9116.536426
76.989143,-1332.370696,5329.482782,12563.966167
76.989452,1924.535449,6661.853478,6588.421283
76.989762,4219.173869,9474.636058,-2145.067394
76.990071,666.185348,9474.636058,-8427.050478
76.990381,-1628.453072,10955.047942,-5822.325785
76.990691,-5625.565159,14804.118840,-3753.867940
76.991000,-2886.803174,13619.789333,-3830.477490
76.991310,2442.679609,11251.130318,-6588.421283
76.991619,2664.741391,9030.512492,-6358.592633
76.991929,518.144159,8142.265362,3064.381992
76.992238,-1332.370696,10955.047942,12640.575717
76.992548,1850.514855,12435.459826,7814.174080
76.992857,5773.606348,11325.150913,-2221.676944
76.993167,4071.132681,7846.182985,-6358.592633
76.993477,-2072.576638,9844.739029,-5975.544884
76.993786,-5773.606348,10140.821405,-2834.553343
76.994096,-962.267725,12953.603985,-3983.696590
76.994405,8290.306550,12139.377449,-8503.660028
76.994715,5403.503377,7698.141797,-6358.592633
76.995024,-666.185348,5995.668130,7737.564530
76.995334,-2294.638420,6365.771101,14402.595362
76.995643,1332.370696,7402.059420,5822.325785
76.995953,2146.597232,8216.285956,-6818.249932
76.996263,3478.967927,8882.471304,-9729.412825
76.996572,-2294.638420,10288.862594,-8656.879127
76.996882,-6735.874072,13101.645173,-2221.676944
76.997191,-3108.864956,12657.521608,1302.362347
76.997501,2664.741391,8956.491898,-8427.050478
76.997810,1850.514855,6957.935855,-3600.648841
76.998120,-2516.700203,7105.977043,7354.516781
76.998429,-2294.638420,9548.656652,8656.879127
76.998739,2516.700203,11029.068536,4903.011187
76.999049,3404.947333,9622.677246,-3294.210641
76.999358,814.226536,8586.388927,-5745.716235
76.999668,-4663.297435,10658.965565,-3907.087040
76.999977,-5847.626942,12953.603985,-1838.629195
77.000287,-1480.411884,13471.748144,-6205.373534
77.000596,3997.112087,8956.491898,-9652.803275
77.000906,1036.288319,6069.688724,-1915.238745
77.001215,-814.226536,7105.977043,8044.002729
77.001525,-0.000000,7550.100608,9806.022374
77.001835,1480.411884,7846.182985,4443.353888
77.002144,4737.318029,9252.574275,-4366.744339
77.002454,2442.679609,8512.368333,-9422.974625
77.002763,-3182.885551,11325.150913,-4596.572988
77.003073,-6661.853478,14359.995275,4826.401637
77.003382,-2220.617826,10881.027347,-1532.190996
77.003692,3330.926739,7698.141797,-8044.002729
77.004001,2442.679609,5625.565159,-5286.058936
77.004311,-1850.514855,8438.347739,6358.592633
77.004621,-1850.514855,12065.356855,9269.755526
77.004930,3034.844362,11991.336260,3753.867940
77.005240,4441.235652,8660.409521,-3753.867940
77.005549,-666.185348,8216.285956,-3677.258390
77.005859,-4367.215058,7846.182985,-2068.457845
77.006168,-5847.626942,12953.603985,-2374.896044
77.006478,592.164754,12879.583391,-9576.193725
77.006787,5551.544565,9548.656652,-11644.651570
77.007097,814.226536,7994.224174,-3753.867940
77.007407,-1406.391290,6365.771101,6052.154434
77.007716,-1332.370696,6365.771101,10265.679673
77.008026,2664.741391,7920.203579,1991.848295
77.008335,4737.318029,6809.894666,-4443.353888
77.008645,3034.844362,7772.162391,-7584.345430
77.008954,-2960.823768,9178.553681,-3524.039291
77.009264,-2960.823768,10436.903782,-306.438199
77.009573,1184.329507,11473.192101,-4060.306139
77.009883,2368.659014,7698.141797,-8120.612279
77.010193,2220.617826,7179.997637,-3294.210641
77.010502,-1184.329507,9770.718434,5209.449386
77.010812,-962.267725,10658.965565,8656.879127
77.011121,3330.926739,10732.986159,3447.429741
77.011431,3627.009116,9030.512492,-3600.648841
77.011740,-0.000000,9548.656652,-3217.601092
77.012050,-2664.741391,11843.295072,-1685.410096
77.012359,-5255.462188,14582.057057,-4213.525239
77.012669,2220.617826,13693.809927,-10265.679673
77.012978,5033.400406,13249.686362,-9499.584175
77.013288,148.041188,5847.626942,-1149.143247
77.013598,-3034.844362,6069.688724,10878.556072
77.013907,-1110.308913,5625.565159,11414.822920
77.014217,4145.153275,5403.503377,1532.190996
77.014526,4811.338623,6513.812290,-7201.297681
77.014836,1406.391290,8216.285956,-6128.763984
77.015145,-3997.112087,10214.842000,-1225.752797
77.015455,-5403.503377,10510.924376,153.219100
77.015764,2442.679609,9104.533087,-4826.401637
77.016074,2294.638420,6587.832884,-9882.631924
77.016384,-1110.308913,8216.285956,-612.876398
77.016693,-4367.215058,11843.295072,7660.954980
77.017003,222.061783,13619.789333,4903.011187
77.017312,3182.885551,14285.974681,76.609550
77.017622,1924.535449,10140.821405,-2145.067394
77.017931,-2516.700203,10140.821405,-2451.505594
77.018241,-5477.523971,11029.068536,-2145.067394
77.018550,-4441.235652,14137.933492,-4366.744339
77.018860,370.102971,13989.892304,-10418.898773
77.019170,3330.926739,9622.677246,-10801.946522
77.019479,370.102971,7698.141797,-995.924147
77.019789,-2220.617826,5033.400406,10265.679673
77.020098,888.247130,7772.162391,9346.365076
77.020408,3256.906145,5403.503377,3370.820191
77.020717,3552.988522,5847.626942,-2757.943793
77.021027,1924.535449,7402.059420,-4826.401637
77.021336,-4737.318029,10658.965565,-2604.724693
77.021646,-5847.626942,12805.562797,-536.266849
77.021956,-740.205942,11695.253884,-7584.345430
77.022265,2294.638420,9104.533087,-12257.527968
77.022575,1480.411884,9326.594869,-4673.182538
77.022884,-4663.297435,10881.027347,7354.516781
77.023194,-814.226536,10955.047942,10801.946522
77.023503,4515.256246,8734.430116,1685.410096
77.023813,2886.803174,6661.853478,-3064.381992
77.024122,-1702.473667,8734.430116,-2145.067394
77.024432,-3478.967927,9770.718434,612.876398
77.024742,-3256.906145,12435.459826,-7507.735880
77.025051,2886.803174,13915.871710,-11491.432470
77.025361,2738.761985,9104.533087,-11108.384721
77.025670,1480.411884,6217.729913,842.705048
77.025980,-1332.370696,6735.874072,14632.424012
77.026289,444.123565,5255.462188,11951.089769
77.026599,5033.400406,6143.709319,3370.820191
77.026908,5329.482782,6217.729913,-4443.353888
77.027218,2220.617826,8660.409521,-8273.831378
77.027528,-4441.235652,12657.521608,-3983.696590
77.027837,-4737.318029,12953.603985,-4290.134789
77.028147,666.185348,13397.727550,-9116.536426
77.028456,2960.823768,9104.533087,-9959.241474
77.028766,-888.247130,9252.574275,4366.744339
77.029075,-2590.720797,9326.594869,12180.918418
77.029385,1554.432478,8438.347739,10418.898773
77.029694,4441.235652,8142.265362,1608.800546
77.030004,3552.988522,7179.997637,-1072.533697
77.030314,-592.164754,9474.636058,-2451.505594
77.030623,-4737.318029,11843.295072,-4903.011187
77.030933,-2368.659014,14656.077652,-6665.030833
77.031242,1702.473667,13397.727550,-11338.213370
77.031552,2738.761985,8882.471304,-12334.137518
77.031861,-444.123565,6439.791695,4290.134789
77.032171,-2146.597232,5699.585753,14172.766713
77.032480,2368.659014,4737.318029,8886.707777
77.032790,3404.947333,5033.400406,1302.362347
77.033100,2738.761985,8808.450710,-2911.162892
77.033409,222.061783,10436.903782,-4060.306139
77.033719,-6957.935855,12657.521608,-3677.258390
77.034028,-5255.462188,13767.830521,-4060.306139
77.034338,3256.906145,10140.821405,-12563.966167
77.034647,1850.514855,10362.883188,-12947.013916
77.034957,-1924.535449,9178.553681,995.924147
77.035266,-2738.761985,9622.677246,12640.575717
77.035576,1998.556043,10881.027347,9729.412825
77.035886,4219.173869,9030.512492,1455.581446
77.036195,2220.617826,7476.080014,-1378.971896
77.036505,-2442.679609,8882.471304,-3370.820191
77.036814,-5625.565159,11695.253884,-4136.915689
77.037124,-3775.050304,14359.995275,-7048.078582
77.037433,4071.132681,13545.768739,-12410.747068
77.037743,2072.576638,9474.636058,-9269.755526
77.038052,-1332.370696,8216.285956,4519.963438
77.038362,-1628.453072,6143.709319,13483.280765
77.038672,1998.556043,4885.359217,9499.584175
77.038981,3775.050304,7550.100608,3370.820191
77.039291,2886.803174,7179.997637,-2451.505594
77.039600,-518.144159,8808.450710,-7277.907231
77.039910,-7254.018232,12879.583391,-5209.449386
77.040219,-5551.544565,16580.613101,-4136.915689
77.040529,2442.679609,12213.398043,-11951.089769
77.040838,3256.906145,8808.450710,-10342.289223
77.041148,370.102971,8068.244768,4290.134789
77.041457,-4367.215058,7550.100608,17313.758255
77.041767,1628.453072,7105.977043,11338.213370
77.042077,5551.544565,6735.874072,2987.772442
77.042386,3627.009116,7254.018232,-3294.210641
77.042696,-2072.576638,8956.491898,-5056.230287
77.043005,-8586.388927,15174.221811,-5286.058936
77.043315,-1480.411884,16210.510130,-9269.755526
77.043624,3256.906145,11917.315666,-13942.938064
77.043934,1184.329507,10436.903782,-6435.202183
77.044243,-2664.741391,8142.265362,7660.954980
77.044553,222.061783,6365.771101,11184.994271
77.044863,4145.153275,6883.915261,7354.516781
77.045172,5699.585753,6957.935855,1762.019645
77.045482,3701.029710,7994.224174,-2145.067394
77.045791,-1702.473667,7254.018232,-4903.011187
77.046101,-4663.297435,12509.480420,-5439.278036
77.046410,-3552.988522,12731.542202,-8044.002729
77.046720,1628.453072,9326.594869,-10648.727422
77.047029,1702.473667,7846.182985,-6818.249932
77.047339,-1776.494261,8586.388927,4290.134789
77.047649,962.267725,7994.224174,13023.623466
77.047958,2072.576638,7254.018232,8886.707777
77.048268,4145.153275,7698.141797,2834.553343
77.048577,2664.741391,7920.203579,-2221.676944
77.048887,-2886.803174,10584.944971,-6435.202183
77.049196,-5033.400406,14285.974681,-5056.230287
77.049506,-2516.700203,14137.933492,-7814.174080
77.049815,4145.153275,11769.274478,-14096.157163
77.050125,-2516.700203,10732.986159,-7660.954980
77.050434,-2294.638420,6587.832884,9346.365076
77.050744,-1776.494261,5255.462188,15015.471761
77.051053,2738.761985,6291.750507,6818.249932
77.051362,6809.894666,6365.771101,-1378.971896
77.051672,1850.514855,6291.750507,-4596.572988
77.051981,-3330.926739,11399.171507,-5515.887586
77.052291,-6957.935855,13545.768739,-3753.867940
77.052600,-1776.494261,13175.665768,-8733.488677
77.052909,5625.565159,7772.162391,-12180.918418
77.053219,-0.000000,6365.771101,-4826.401637
77.053528,-1628.453072,7920.203579,9806.022374
77.053838,-0.000000,7624.121203,12563.966167
77.054147,3330.926739,8586.388927,6665.030833
77.054456,2516.700203,11621.233289,-536.266849
77.054766,1480.411884,7772.162391,-5669.106685
77.055075,-2886.803174,11917.315666,-7814.174080
77.055385,-6291.750507,15396.283594,-5822.325785
77.055694,-2812.782580,14582.057057,-9806.022374
77.056003,2146.597232,10214.842000,-12334.137518
77.056313,1332.370696,7920.203579,-3753.867940
77.056622,-592.164754,7031.956449,8503.660028
77.056932,-1628.453072,5403.503377,13176.842566
77.057241,1554.432478,3627.009116,11797.870669
77.057551,4737.318029,7624.121203,459.657299
77.057860,2960.823768,8586.388927,-7201.297681
77.058169,-4885.359217,10436.903782,-6511.811733
77.058479,-6587.832884,14211.954086,-4136.915689
77.058788,296.082377,12139.377449,-11414.822920
77.059098,2812.782580,10658.965565,-13713.109414
77.059407,222.061783,8068.244768,-1455.581446
77.059716,-2590.720797,7772.162391,11951.089769
77.060026,1110.308913,6439.791695,11951.089769
77.060335,3627.009116,6661.853478,7048.078582
77.060645,3775.050304,7550.100608,-1072.533697
77.060954,518.144159,8734.430116,-7354.516781
77.061263,-3108.864956,10732.986159,-6435.202183
77.061573,-5847.626942,14952.160028,-4749.792088
77.061882,-444.123565,13989.892304,-10265.679673
77.062192,1480.411884,9992.780217,-11721.261119
77.062501,1406.391290,8956.491898,-229.828649
77.062810,-2516.700203,7772.162391,11568.042020
77.063120,1406.391290,5107.421000,11261.603821
77.063429,4293.194464,5773.606348,6435.202183
77.063739,4441.235652,9178.553681,-1991.848295
77.064048,2738.761985,8808.450710,-9576.193725
77.064357,-4589.276840,11843.295072,-4060.306139
77.064667,-5551.544565,13545.768739,-4366.744339
77.064976,-0.000000,13175.665768,-8350.440928
77.065286,3256.906145,10288.862594,-9193.145976
77.065595,2368.659014,6291.750507,1608.800546
77.065905,-2590.720797,5921.647536,12257.527968
77.066214,-666.185348,7476.080014,11644.651570
77.066523,3478.967927,8290.306550,4443.353888
77.066833,5699.585753,9770.718434,-5132.839837
77.067142,1480.411884,9030.512492,-7660.954980
77.067452,-6439.791695,14211.954086,-4366.744339
77.067761,-6439.791695,14285.974681,-2451.505594
77.068070,-444.123565,11547.212695,-9499.584175
77.068380,2886.803174,8660.409521,-9576.193725
77.068689,2664.741391,5403.503377,2374.896044
77.068999,-444.123565,7031.956449,10112.460574
77.069308,814.226536,8068.244768,9499.584175
77.069617,3478.967927,7994.224174,3600.648841
77.069927,3997.112087,6217.729913,-3447.429741
77.070236,-1554.432478,7328.038826,-6665.030833
77.070546,-4219.173869,9992.780217,-4749.792088
77.070855,-5181.441594,12435.459826,-6128.763984
77.071164,-1406.391290,11843.295072,-8810.098227
77.071474,5995.668130,8216.285956,-8120.612279
77.071783,2072.576638,7254.018232,-842.705048
77.072093,-2812.782580,8364.327145,10495.508323
77.072402,-2146.597232,9548.656652,12793.794817
77.072711,3997.112087,7698.141797,2451.505594
77.073021,2072.576638,10436.903782,-8963.317327
77.073330,-1406.391290,11473.192101,-7660.954980
77.073640,-7920.203579,12509.480420,-2987.772442
77.073949,-3701.029710,13915.871710,-3830.477490
77.074259,1480.411884,11843.295072,-10955.165621
77.074568,2886.803174,9474.636058,-9039.926876
77.074877,-148.041188,7105.977043,2068.457845
77.075187,-3923.091493,6069.688724,11491.432470
77.075496,1480.411884,7328.038826,9806.022374
77.075806,3627.009116,6957.935855,3600.648841
77.076115,3552.988522,6883.915261,-5975.544884
77.076424,-1258.350101,7846.182985,-4673.182538
77.076734,-7179.997637,10436.903782,-459.657299
77.077043,-2590.720797,12657.521608,-4673.182538
77.077353,2146.597232,10658.965565,-11338.213370
77.077662,2294.638420,10214.842000,-6205.373534
77.077971,-1776.494261,8660.409521,3217.601092
77.078281,-3034.844362,8364.327145,7660.954980
77.078590,-888.247130,8956.491898,8886.707777
77.078900,4441.235652,10658.965565,-919.314598
77.079209,4737.318029,9104.533087,-5975.544884
77.079518,-814.226536,12213.398043,-5515.887586
77.079828,-8068.244768,11621.233289,-1072.533697
77.080137,-5181.441594,10140.821405,-612.876398
77.080447,3701.029710,10807.006753,-11261.603821
77.080756,2812.782580,7179.997637,-9499.584175
77.081066,1332.370696,7920.203579,3830.477490
77.081375,-1184.329507,7254.018232,9576.193725
77.081684,1184.329507,6143.709319,7354.516781
77.081994,4071.132681,7624.121203,2068.457845
77.082303,2812.782580,7179.997637,-2298.286494
77.082613,-666.185348,11177.109724,-5439.278036
77.082922,-6809.894666,12879.583391,-4826.401637
77.083231,-2812.782580,13101.645173,-5669.106685
77.083541,3034.844362,11843.295072,-11568.042020
77.083850,2516.700203,9844.739029,-7354.516781
77.084160,-740.205942,9400.615463,3830.477490
77.084469,-2738.761985,8438.347739,11874.480219
77.084778,1850.514855,8660.409521,7124.688131
77.085088,5403.503377,9548.656652,-1532.190996
77.085397,1924.535449,7846.182985,-5362.668486
77.085707,-2294.638420,9400.615463,-3753.867940
77.086016,-4737.318029,9770.718434,-1302.362347
77.086325,-2960.823768,9400.615463,-3370.820191
77.086635,1702.473667,10214.842000,-8733.488677
77.086944,1184.329507,8734.430116,-7354.516781
77.087254,814.226536,5847.626942,0.000000
77.087563,-962.267725,7105.977043,8427.050478
77.087872,222.061783,8882.471304,7660.954980
77.088182,3256.906145,8290.306550,612.876398
77.088491,2590.720797,8142.265362,-4366.744339
77.088801,-2368.659014,10214.842000,-5056.230287
77.089110,-3923.091493,12805.562797,-2451.505594
77.089420,-3108.864956,13545.768739,-5745.716235
77.089729,2368.659014,12731.542202,-10418.898773
77.090038,1924.535449,9030.512492,-6511.811733
77.090348,-1332.370696,6883.915261,3140.991542
77.090657,-3627.009116,7624.121203,11261.603821
77.090967,-74.020594,7994.224174,7890.783629
77.091276,6661.853478,7550.100608,-1915.238745
77.091585,5921.647536,8290.306550,-4136.915689
77.091895,-3478.967927,9474.636058,-1838.629195
77.092204,-5477.523971,11843.295072,-2298.286494
77.092514,-740.205942,12213.398043,-7354.516781
77.092823,1998.556043,11917.315666,-9882.631924
77.093132,2516.700203,8808.450710,-6281.983084
77.093442,-370.102971,7698.141797,2374.896044
77.093751,-2442.679609,7254.018232,9806.022374
77.094061,1554.432478,8216.285956,7737.564530
77.094370,1258.350101,9252.574275,-4596.572988
77.094679,2220.617826,6883.915261,-4979.620737
77.094989,-1184.329507,10881.027347,-5209.449386
77.095298,-7846.182985,11769.274478,-3983.696590
77.095608,-1036.288319,13767.830521,-6128.763984
77.095917,2812.782580,10214.842000,-10648.727422
77.096226,296.082377,9030.512492,-6818.249932
77.096536,-2516.700203,6513.812290,5132.839837
77.096845,-2368.659014,7254.018232,10418.898773
77.097155,2368.659014,9918.759623,1762.019645
77.097464,6587.832884,7476.080014,-3294.210641
77.097774,1850.514855,8734.430116,-1608.800546
77.098083,-3775.050304,10510.924376,0.000000
77.098392,-4811.338623,12213.398043,-3370.820191
77.098702,-2442.679609,12731.542202,-9806.022374
77.099011,2516.700203,10955.047942,-13176.842566
77.099321,2072.576638,8956.491898,-9959.241474
77.099630,-1110.308913,8734.430116,2757.943793
77.099939,-0.000000,8808.450710,11031.775171
77.100249,1850.514855,5625.565159,7660.954980
77.100558,3923.091493,5255.462188,1838.629195
77.100868,1702.473667,6809.894666,-2298.286494
77.101177,-3182.885551,9104.533087,-3983.696590
77.101486,-3552.988522,13767.830521,-8273.831378
77.101796,-666.185348,13101.645173,-10265.679673
77.102105,2886.803174,11547.212695,-12334.137518
77.102415,444.123565,9030.512492,-4903.011187
77.102724,-2738.761985,8290.306550,6128.763984
77.103033,-1184.329507,9030.512492,10418.898773
77.103343,3701.029710,7846.182985,5669.106685
77.103652,6143.709319,7105.977043,-1838.629195
77.103962,962.267725,7698.141797,-3600.648841
77.104271,-3701.029710,10214.842000,-3830.477490
77.104580,-4663.297435,11473.192101,-2757.943793
77.104890,-1110.308913,13175.665768,-9269.755526
77.105199,2294.638420,12435.459826,-12717.185267
77.105509,1776.494261,10140.821405,-5975.544884
77.105818,1258.350101,6365.771101,8197.221829
77.106128,-592.164754,7846.182985,10725.336972
77.106437,1924.535449,5107.421000,9576.193725
77.106746,4219.173869,4515.256246,2451.505594
77.107056,2738.761985,7624.121203,-4366.744339
77.107365,-3923.091493,11399.171507,-5439.278036
77.107675,-4663.297435,14508.036463,-3447.429741
77.107984,-74.020594,15100.201217,-8350.440928
77.108293,2960.823768,12361.439231,-12104.308868
77.108603,-814.226536,9400.615463,-5669.106685
77.108912,-2220.617826,7328.038826,7354.516781
77.109222,-296.082377,7920.203579,12334.137518
77.109531,4145.153275,9104.533087,6818.249932
77.109840,4737.318029,7624.121203,0.000000
77.110150,-962.267725,7476.080014,-4136.915689
77.110459,-4663.297435,9770.718434,-2604.724693
77.110769,-6217.729913,12657.521608,-5056.230287
77.111078,-1036.288319,15100.201217,-11338.213370
77.111387,2738.761985,11843.295072,-16394.443657
77.111697,2368.659014,8660.409521,-5056.230287
77.112006,-1924.535449,7105.977043,9039.926876
77.112316,-1184.329507,4589.276840,15628.348159
77.112625,2738.761985,4441.235652,11261.603821
77.112935,3701.029710,6365.771101,4903.011187
77.113244,1332.370696,8290.306550,-5515.887586
77.113553,-2294.638420,11769.274478,-7660.954980
77.113863,-4737.318029,15174.221811,-8350.440928
77.114172,-1702.473667,15618.345376,-10035.851024
77.114482,2886.803174,10881.027347,-10418.898773
77.114791,-0.000000,9474.636058,-2834.553343
77.115100,-2220.617826,6809.894666,9806.022374
77.115410,-814.226536,8660.409521,13866.328514
77.115719,4367.215058,6365.771101,4443.353888
77.116029,6217.729913,7328.038826,-2374.896044
77.116338,370.102971,8808.450710,-4290.134789
77.116647,-6809.894666,11103.089130,-3064.381992
77.116957,-6735.874072,13249.686362,-5439.278036
77.117266,592.164754,14878.139434,-12257.527968
77.117576,4145.153275,10362.883188,-15858.176809
77.117885,888.247130,7920.203579,-3447.429741
77.118194,-1406.391290,5477.523971,11261.603821
77.118504,-148.041188,3552.988522,15168.690860
77.118813,3627.009116,3330.926739,9959.241474
77.119123,3552.988522,3997.112087,1302.362347
77.119432,2294.638420,7476.080014,-5975.544884
77.119741,-3108.864956,13397.727550,-9269.755526
77.120051,-5403.503377,14582.057057,-4290.134789
77.120360,296.082377,16062.468941,-10572.117872
77.120670,2664.741391,11621.233289,-11568.042020
77.120979,296.082377,8586.388927,-1149.143247
77.121289,-2368.659014,7328.038826,13023.623466
77.121598,1628.453072,6069.688724,13330.061665
77.121907,5181.441594,7920.203579,4826.401637
77.122217,4367.215058,7846.182985,0.000000
77.122526,518.144159,7994.224174,-3600.648841
77.122836,-7328.038826,11029.068536,-6358.592633
77.123145,-6365.771101,14359.995275,-6435.202183
77.123454,-296.082377,15396.283594,-12104.308868
77.123764,4367.215058,11177.109724,-15704.957709
77.124073,148.041188,7698.141797,-2145.067394
77.124383,-4071.132681,4737.318029,13483.280765
77.124692,518.144159,3182.885551,15321.909960
77.125001,4441.235652,5477.523971,7277.907231
77.125311,3256.906145,5107.421000,995.924147
77.125620,814.226536,8364.327145,-6665.030833
77.125930,-3849.070898,12583.501014,-8197.221829
77.126239,-6365.771101,15396.283594,-7431.126331
77.126548,296.082377,14656.077652,-9882.631924
77.126858,2368.659014,10584.944971,-11491.432470
77.127167,-2220.617826,7920.203579,-3753.867940
77.127477,-4219.173869,7402.059420,14555.814462
77.127786,1554.432478,8142.265362,13176.842566
77.128095,5699.585753,7846.182985,2451.505594
77.128405,3849.070898,8438.347739,-1915.238745
77.128714,-592.164754,11473.192101,-5132.839837
77.129024,-7105.977043,12435.459826,-5975.544884
77.129333,-3923.091493,15840.407159,-8427.050478
77.129643,962.267725,14063.912898,-14019.547613
77.129952,2516.700203,9104.533087,-9729.412825
77.130261,-444.123565,6587.832884,3370.820191
77.130571,-962.267725,3404.947333,14249.376263
77.130880,2294.638420,3404.947333,13713.109414
77.131190,1332.370696,5181.441594,8963.317327
77.131499,2146.597232,6587.832884,-766.095498
77.131808,3849.070898,10214.842000,-11491.432470
77.132118,-5773.606348,12435.459826,-8886.707777
77.132427,-5847.626942,14804.118840,-2834.553343
77.132737,296.082377,14211.954086,-10342.289223
77.133046,1628.453072,12065.356855,-11184.994271
77.133355,-0.000000,8216.285956,3140.991542
77.133665,-4441.235652,7624.121203,14172.766713
77.133974,666.185348,9030.512492,9806.022374
77.134284,5551.544565,8142.265362,229.828649
77.134593,4515.256246,6513.812290,-3447.429741
77.134902,-592.164754,9770.718434,-6128.763984
77.135212,-7994.224174,11325.150913,-2911.162892
77.135521,-3701.029710,13397.727550,-6358.592633
77.135831,4515.256246,10066.800811,-16547.662757
77.136140,4367.215058,8142.265362,-10112.460574
77.136450,296.082377,5477.523971,6588.421283
77.136759,-2368.659014,3849.070898,15168.690860
77.137068,1480.411884,5551.544565,10495.508323
77.137378,5625.565159,6957.935855,4060.306139
77.137687,5403.503377,8512.368333,-6358.592633
77.137997,-1036.288319,13027.624579,-9806.022374
77.138306,-6957.935855,13323.706956,-6435.202183
77.138615,-1702.473667,14285.974681,-9806.022374
77.138925,1110.308913,13027.624579,-10189.070123
77.139234,888.247130,10584.944971,-5745.716235
77.139544,814.226536,7624.121203,4519.963438
77.139853,-1406.391290,7254.018232,12104.308868
77.140162,3478.967927,8438.347739,9116.536426
77.140472,5847.626942,7031.956449,2374.896044
77.140781,2442.679609,8438.347739,-3370.820191
77.141091,-1776.494261,8660.409521,-6894.859482
77.141400,-3849.070898,10881.027347,-3983.696590
77.141709,-3478.967927,14434.015869,-6588.421283
77.142019,2072.576638,9918.759623,-11568.042020
77.142328,3108.864956,6809.894666,-7737.564530
77.142638,2220.617826,4589.276840,5439.278036
77.142947,-1628.453072,2886.803174,13253.452115
77.143256,222.061783,7179.997637,12640.575717
77.143566,4219.173869,8290.306550,2068.457845
77.143875,4737.318029,7994.224174,-9576.193725
77.144185,1554.432478,12879.583391,-9882.631924
77.144494,-6809.894666,13619.789333,-2987.772442
77.144804,-5329.482782,14656.077652,-4826.401637
77.145113,2072.576638,9622.677246,-9806.022374
77.145422,4589.276840,9178.553681,-5592.497135
77.145732,148.041188,8068.244768,5822.325785
77.146041,-3256.906145,7994.224174,11261.603821
77.146351,2220.617826,7550.100608,7737.564530
77.146660,6957.935855,6069.688724,-229.828649
77.146969,2368.659014,8290.306550,-4749.792088
77.147279,-4811.338623,12583.501014,-2298.286494
77.147588,-5255.462188,12657.521608,-4136.915689
77.147898,-814.226536,12213.398043,-9959.241474
77.148207,592.164754,11399.171507,-10572.117872
77.148516,1850.514855,7031.956449,-4290.134789
77.148826,740.205942,5255.462188,4366.744339
77.149135,-2368.659014,5551.544565,12640.575717
77.149444,-0.000000,7328.038826,12180.918418
77.149753,3478.967927,8438.347739,0.000000
77.150063,3552.988522,10288.862594,-10495.508323
77.150372,-1258.350101,11103.089130,-7660.954980
77.150681,-6513.812290,13249.686362,-3524.039291
77.150991,-3182.885551,13397.727550,-4060.306139
77.151300,3182.885551,11621.233289,-7431.126331
77.151609,1036.288319,7254.018232,-4826.401637
77.151918,-1554.432478,7105.977043,6741.640382
77.152228,-888.247130,7698.141797,11951.089769
77.152537,3701.029710,9104.533087,4749.792088
77.152846,6809.894666,9400.615463,-2987.772442
77.153155,370.102971,8290.306550,-2451.505594
77.153465,-4737.318029,11029.068536,-995.924147
77.153774,-5329.482782,11843.295072,-3983.696590
77.154083,-740.205942,14582.057057,-9039.926876
77.154392,3182.885551,13619.789333,-9882.631924
77.154702,2886.803174,8216.285956,-4903.011187
77.155011,-1406.391290,5033.400406,7354.516781
77.155320,-1998.556043,5921.647536,14096.157163
77.155629,2442.679609,7402.059420,9882.631924
77.155939,2812.782580,6513.812290,-2528.115143
77.156248,1776.494261,7846.182985,-6128.763984
77.156557,-2516.700203,10436.903782,-6205.373534
77.156867,-3552.988522,12953.603985,-4366.744339
77.157176,-962.267725,12065.356855,-5286.058936
77.157485,1258.350101,10066.800811,-7124.688131
77.157794,3108.864956,8438.347739,-4903.011187
77.158104,-962.267725,7105.977043,5439.278036
77.158413,-2294.638420,8734.430116,11261.603821
77.158722,3701.029710,11769.274478,3447.429741
77.159031,6217.729913,8882.471304,-4366.744339
77.159341,-0.000000,9992.780217,-3830.477490
77.159650,-4885.359217,11029.068536,-1608.800546
77.159959,-6809.894666,12583.501014,-3753.867940
77.160268,-518.144159,13693.809927,-8044.002729
77.160578,3775.050304,9992.780217,-9882.631924
77.160887,2516.700203,7179.997637,-4826.401637
77.161196,-0.000000,6365.771101,6971.469032
77.161505,-4293.194464,7179.997637,13789.718964
77.161815,1406.391290,7031.956449,6435.202183
77.162124,5329.482782,7772.162391,-3677.258390
77.162433,2368.659014,8364.327145,-7814.174080
77.162742,-2294.638420,10658.965565,-5669.106685
77.163052,-4737.318029,11991.336260,-3753.867940
77.163361,-1332.370696,11917.315666,-5669.106685
77.163670,2220.617826,10510.924376,-7048.078582
77.163980,2220.617826,7994.224174,-3294.210641
77.164289,-2220.617826,5181.441594,2528.115143
77.164598,-1332.370696,8512.368333,9269.755526
77.164907,3552.988522,9400.615463,3217.601092
77.165217,4589.276840,10955.047942,-4213.525239
77.165526,814.226536,10214.842000,-4673.182538
77.165835,-5847.626942,9474.636058,-2068.457845
77.166144,-4367.215058,13471.748144,-2451.505594
77.166454,1480.411884,13989.892304,-10572.117872
77.166763,3627.009116,10584.944971,-12257.527968
77.167072,2368.659014,8734.430116,-612.876398
77.167381,-3256.906145,6587.832884,6971.469032
77.167691,-296.082377,5255.462188,9806.022374
77.168000,3478.967927,6661.853478,4826.401637
77.168309,4071.132681,7476.080014,-1532.190996
77.168618,888.247130,6809.894666,-2374.896044
77.168928,-3108.864956,10066.800811,-2681.334243
77.169237,-4293.194464,12139.377449,-3294.210641
77.169546,-518.144159,12065.356855,-7584.345430
77.169856,2368.659014,10732.986159,-9499.584175
77.170165,-370.102971,9622.677246,-3217.601092
77.170474,-1628.453072,7846.182985,5822.325785
77.170783,-592.164754,10584.944971,9806.022374
77.171093,2368.659014,9474.636058,5515.887586
77.171402,4737.318029,9326.594869,2451.505594
77.171711,-370.102971,8512.368333,-4213.525239
77.172020,-5995.668130,8808.450710,-2911.162892
77.172330,-5107.421000,13323.706956,-3677.258390
77.172639,-0.000000,12213.398043,-10189.070123
77.172948,3849.070898,11251.130318,-13330.061665
77.173257,1480.411884,7179.997637,-2528.115143
77.173567,-3701.029710,4663.297435,11338.213370
77.173876,-1480.411884,6365.771101,13100.233016
77.174185,2664.741391,5773.606348,4290.134789
77.174494,4293.194464,6439.791695,-4136.915689
77.174804,592.164754,9030.512492,-4979.620737
77.175113,-3256.906145,11399.171507,-4060.306139
77.175422,-2590.720797,13471.748144,-3983.696590
77.175732,-3849.070898,14285.974681,-7584.345430
77.176041,1480.411884,10881.027347,-8350.440928
77.176350,1406.391290,9104.533087,-4290.134789
77.176659,-2738.761985,9030.512492,5439.278036
77.176969,888.247130,9696.697840,10648.727422
77.177278,3404.947333,8586.388927,4443.353888
77.177587,2738.761985,7698.141797,-1608.800546
77.177896,-518.144159,8808.450710,-1302.362347
77.178206,-5255.462188,9622.677246,-2911.162892
77.178515,-5181.441594,13915.871710,-7737.564530
77.178824,148.041188,14211.954086,-11108.384721
77.179133,3404.947333,9696.697840,-11338.213370
77.179443,1850.514855,8586.388927,-2451.505594
77.179752,-2590.720797,4737.318029,9806.022374
77.180061,-1258.350101,8512.368333,11644.651570
77.180370,3701.029710,6069.688724,3983.696590
77.180680,3330.926739,5847.626942,-2298.286494
77.180989,1406.391290,7550.100608,-3677.258390
77.181298,-3923.091493,10955.047942,-3140.991542
77.181608,-4219.173869,13027.624579,-5822.325785
77.181917,-888.247130,13323.706956,-9806.022374
77.182226,1924.535449,11695.253884,-10418.898773
77.182535,1702.473667,10436.903782,-4136.915689
77.182845,-2220.617826,11473.192101,8350.440928
77.183154,666.185348,8956.491898,11797.870669
77.183463,4071.132681,7105.977043,4826.401637
77.183772,2664.741391,5847.626942,-153.219100
77.184082,-1924.535449,8586.388927,-1149.143247
77.184391,-4811.338623,13545.768739,-2757.943793
77.184700,-2368.659014,14878.139434,-9576.193725
77.185009,888.247130,14952.160028,-13789.718964
77.185319,1776.494261,11103.089130,-10112.460574
77.185628,-0.000000,7476.080014,-2451.505594
77.185937,-2960.823768,5033.400406,10648.727422
77.186246,296.082377,4885.359217,13023.623466
77.186556,3552.988522,5107.421000,5132.839837
77.186865,3997.112087,5995.668130,-1302.362347
77.187174,2738.761985,7254.018232,-4136.915689
77.187484,-4959.379811,11695.253884,-4519.963438
77.187793,-3997.112087,13915.871710,-6205.373534
77.188102,-1406.391290,13767.830521,-12104.308868
77.188411,2960.823768,10807.006753,-12793.794817
77.188721,740.205942,8882.471304,-1532.190996
77.189030,-2220.617826,7624.121203,10878.556072
77.189339,-0.000000,7772.162391,12947.013916
77.189648,4515.256246,5921.647536,5745.716235
77.189958,2294.638420,6143.709319,0.000000
77.190267,-888.247130,9400.615463,-2987.772442
77.190576,-4737.318029,11029.068536,-6052.154434
77.190885,-3034.844362,15766.386565,-10112.460574
77.191195,2442.679609,16136.489536,-14402.595362
77.191504,1184.329507,10066.800811,-11338.213370
77.191813,-2368.659014,7846.182985,2145.067394
77.192122,-1998.556043,5403.503377,13483.280765
77.192432,1924.535449,4219.173869,10572.117872
77.192741,3256.906145,5181.441594,5362.668486
77.193050,2664.741391,6957.935855,995.924147
77.193360,444.123565,9252.574275,-6741.640382
77.193669,-4737.318029,10436.903782,-8733.488677
77.193978,-5403.503377,14434.015869,-6205.373534
77.194287,-2146.597232,15840.407159,-8580.269578
77.194597,3182.885551,11177.109724,-12410.747068
77.194906,592.164754,8216.285956,-766.095498
77.195215,-2664.741391,7550.100608,13636.499864
77.195524,1702.473667,5773.606348,13100.233016
77.195834,5847.626942,5699.585753,2834.553343
77.196143,3330.926739,7624.121203,-2757.943793
77.196452,-3108.864956,8068.244768,-3294.210641
77.196761,-4811.338623,12361.439231,-5439.278036
77.197071,-962.267725,12065.356855,-11721.261119
77.197380,3478.967927,15174.221811,-15168.690860
77.197689,296.082377,9104.533087,-9422.974625
77.197998,-1628.453072,6957.935855,5515.887586
77.198308,-1110.308913,5255.462188,13330.061665
77.198617,1110.308913,6217.729913,12257.527968
77.198926,4071.132681,5921.647536,3447.429741
77.199236,1850.514855,8068.244768,-919.314598
77.199545,296.082377,10881.027347,-6741.640382
77.199854,-6143.709319,14285.974681,-4596.572988
77.200163,-2664.741391,15914.427753,-7354.516781
77.200473,1628.453072,12509.480420,-11797.870669
77.200782,2590.720797,9252.574275,-10189.070123
77.201091,-148.041188,7476.080014,4443.353888
77.201400,-1628.453072,4959.379811,12870.404366
77.201710,2738.761985,4811.338623,11184.994271
77.202019,4441.235652,4811.338623,5209.449386
77.202328,1998.556043,8364.327145,-1532.190996
77.202637,-3034.844362,11473.192101,-6205.373534
77.202947,-5255.462188,14285.974681,-10801.946522
77.203256,-3552.988522,15692.365970,-11721.261119
77.203565,2516.700203,13397.727550,-14938.862211
77.203874,1406.391290,9326.594869,-8044.002729
77.204184,-296.082377,4367.215058,6894.859482
77.204493,-2072.576638,4367.215058,15858.176809
77.204802,740.205942,4515.256246,12257.527968
77.205112,4811.338623,4959.379811,3753.867940
77.205421,2886.803174,8734.430116,-3830.477490
77.205730,-2960.823768,13027.624579,-9576.193725
77.206039,-4959.379811,13545.768739,-7660.954980
77.206349,-2960.823768,15396.283594,-9039.926876
77.206658,1184.329507,13027.624579,-13406.671215
77.206967,2146.597232,9622.677246,-6818.249932
77.207276,-962.267725,5921.647536,6971.469032
77.207586,-2146.597232,4515.256246,14479.204912
77.207895,3108.864956,6735.874072,12257.527968
77.208204,3997.112087,7254.018232,4060.306139
77.208513,1554.432478,8142.265362,-7354.516781
77.208823,-2886.803174,11991.336260,-8810.098227
77.209132,-7476.080014,14582.057057,-7201.297681
77.209441,-1554.432478,15988.448347,-10572.117872
77.209750,3034.844362,12065.356855,-15475.129060
77.210060,-740.205942,10288.862594,-4826.401637
77.210369,-2368.659014,5255.462188,9959.241474
77.210678,-1110.308913,3330.926739,13713.109414
77.210988,3552.988522,3552.988522,8656.879127
77.211297,4515.256246,6365.771101,536.266849
77.211606,2442.679609,8216.285956,-4673.182538
77.211915,-2146.597232,10732.986159,-7967.393179
77.212225,-6217.729913,13989.892304,-6052.154434
77.212534,-2368.659014,14730.098246,-8350.440928
77.212843,5329.482782,9992.780217,-11338.213370
77.213152,1702.473667,9104.533087,-5132.839837
77.213462,-1480.411884,8512.368333,8656.879127
77.213771,-444.123565,6439.791695,14019.547613
77.214080,3997.112087,7031.956449,8810.098227
77.214389,4293.194464,8290.306550,0.000000
77.214699,2368.659014,10881.027347,-5515.887586
77.215008,-4293.194464,13323.706956,-7354.516781
77.215317,-5699.585753,14063.912898,-6281.983084
77.215626,1554.432478,14434.015869,-13100.233016
77.215936,1998.556043,11843.295072,-12870.404366
77.216245,1702.473667,8290.306550,-2068.457845
77.216554,-1776.494261,5255.462188,11568.042020
77.216864,962.267725,3552.988522,13483.280765
77.217173,1776.494261,4959.379811,7967.393179
77.217482,3627.009116,8142.265362,1149.143247
77.217791,1924.535449,8290.306550,-6511.811733
77.218101,-2960.823768,9844.739029,-8503.660028
77.218410,-5773.606348,13915.871710,-7507.735880
77.218719,-3404.947333,13545.768739,-10265.679673
77.219028,1924.535449,10510.924376,-11261.603821
77.219338,2590.720797,7920.203579,-1378.971896
77.219647,-1998.556043,6217.729913,9576.193725
77.219956,-2590.720797,7846.182985,18386.291952
77.220265,2442.679609,7698.141797,8273.831378
77.220575,4737.318029,8956.491898,-1991.848295
77.220884,1332.370696,11843.295072,-7584.345430
77.221193,-4515.256246,13249.686362,-6511.811733
77.221502,-6587.832884,16432.571912,-5822.325785
77.221812,444.123565,14730.098246,-11721.261119
77.222121,1924.535449,10066.800811,-11108.384721
77.222430,370.102971,7920.203579,76.609550
77.222739,1036.288319,3404.947333,12793.794817
77.223049,222.061783,4589.276840,11951.089769
77.223358,3478.967927,5403.503377,6818.249932
77.223667,3849.070898,8290.306550,-536.266849
77.223977,1406.391290,9770.718434,-5439.278036
77.224286,-6439.791695,12805.562797,-6894.859482
77.224595,-5107.421000,14359.995275,-6052.154434
77.224904,-0.000000,13545.768739,-10112.460574
77.225214,1702.473667,10066.800811,-10955.165621
77.225523,592.164754,7402.059420,-306.438199
77.225832,-1776.494261,6735.874072,11568.042020
77.226141,-592.164754,5181.441594,12563.966167
77.226451,3256.906145,7328.038826,5209.449386
77.226760,4367.215058,9474.636058,-3447.429741
77.227069,1924.535449,7550.100608,-2681.334243
77.227378,-4663.297435,11399.171507,-4749.792088
77.227688,-4589.276840,14434.015869,-4136.915689
77.227997,-666.185348,12953.603985,-8886.707777
77.228306,3478.967927,10658.965565,-10112.460574
77.228615,1480.411884,6513.812290,-1302.362347
77.228925,-1850.514855,5033.400406,10495.508323
77.229234,962.267725,6587.832884,11338.213370
77.229543,4811.338623,7105.977043,3600.648841
77.229853,3701.029710,8882.471304,-4903.011187
77.230162,-666.185348,9474.636058,-3677.258390
77.230471,-4885.359217,11103.089130,-2911.162892
77.230780,-3034.844362,12287.418637,-5745.716235
77.231090,222.061783,13101.645173,-9959.241474
77.231399,2368.659014,13397.727550,-12410.747068
77.231708,740.205942,7994.224174,-1532.190996
77.232017,-1554.432478,8142.265362,8963.317327
77.232327,-1998.556043,7846.182985,11797.870669
77.232636,3478.967927,9326.594869,4060.306139
77.232945,4811.338623,8512.368333,-3753.867940
77.233254,-1554.432478,9770.718434,-4903.011187
77.233564,-4219.173869,10510.924376,-3217.601092
77.233873,-3627.009116,12065.356855,-6128.763984
77.234182,3552.988522,10510.924376,-11184.994271
77.234491,1258.350101,9104.533087,-9116.536426
77.234801,1406.391290,6957.935855,0.000000
77.235110,-962.267725,5995.668130,9039.926876
77.235419,814.226536,6957.935855,12027.699319
77.235729,1258.350101,9622.677246,7584.345430
77.236038,3849.070898,8290.306550,-3217.601092
77.236347,740.205942,9400.615463,-5745.716235
77.236656,-3775.050304,12657.521608,-5898.935335
77.236966,-3034.844362,12361.439231,-4673.182538
77.237275,666.185348,14582.057057,-9959.241474
77.237584,1480.411884,11547.212695,-6128.763984
77.237893,1110.308913,7994.224174,536.266849
77.238203,-1628.453072,6957.935855,9499.584175
77.238512,-370.102971,8290.306550,10189.070123
77.238821,3256.906145,6883.915261,2911.162892
77.239130,4071.132681,10066.800811,-4979.620737
77.239440,-0.000000,10732.986159,-5439.278036
77.239749,-4663.297435,11695.253884,-2451.505594
77.240058,-3552.988522,13397.727550,-4519.963438
77.240367,666.185348,11325.150913,-11951.089769
77.240677,1628.453072,8586.388927,-9499.584175
77.240986,-0.000000,7031.956449,1455.581446
77.241295,-1406.391290,5699.585753,9193.145976
77.241605,1036.288319,6661.853478,10342.289223
77.241914,3404.947333,6217.729913,4366.744339
77.242223,3701.029710,6883.915261,-2298.286494
77.242532,-1480.411884,9548.656652,-4366.744339
77.242842,-3627.009116,14063.912898,-1532.190996
77.243151,-1554.432478,14730.098246,-7354.516781
77.243460,370.102971,14434.015869,-11951.089769
77.243769,370.102971,11843.295072,-8273.831378
77.244079,-1184.329507,7920.203579,-306.438199
77.244388,-1554.432478,9252.574275,9346.365076
77.244697,740.205942,8660.409521,10035.851024
77.245006,4219.173869,7476.080014,4060.306139
77.245316,3034.844362,7920.203579,-1532.190996
77.245625,-1184.329507,8734.430116,-3600.648841
77.245934,-4145.153275,11177.109724,-3217.601092
77.246243,-4145.153275,12805.562797,-5975.544884
77.246553,1184.329507,12065.356855,-10265.679673
77.246862,2960.823768,10510.924376,-8810.098227
77.247171,-518.144159,7550.100608,306.438199
77.247481,-1406.391290,5033.400406,9346.365076
77.247790,-74.020594,6513.812290,11414.822920
77.248099,2590.720797,6587.832884,4443.353888
77.248408,2368.659014,9326.594869,-2987.772442
77.248718,-370.102971,9030.512492,-4749.792088
77.249027,-5329.482782,10732.986159,-4290.134789
77.249336,-2812.782580,11991.336260,-6435.202183
77.249645,592.164754,11769.274478,-9959.241474
77.249955,1776.494261,9104.533087,-8580.269578
77.250264,-592.164754,6069.688724,1991.848295
77.250573,-2442.679609,6661.853478,11184.994271
77.250882,962.267725,7846.182985,7814.174080
77.251192,6957.935855,7328.038826,842.705048
77.251501,2960.823768,7994.224174,-1608.800546
77.251810,-3182.885551,8808.450710,-1608.800546
77.252120,-5107.421000,10140.821405,-2451.505594
77.252429,-2368.659014,14137.933492,-8503.660028
77.252738,1850.514855,12213.398043,-15475.129060
77.253048,1998.556043,10658.965565,-8886.707777
77.253357,-1628.453072,7846.182985,1072.533697
77.253666,-1110.308913,6365.771101,8963.317327
77.253976,1702.473667,5477.523971,9806.022374
77.254285,3182.885551,4959.379811,3294.210641
77.254594,2590.720797,8216.285956,-1532.190996
77.254903,-0.000000,8068.244768,-2911.162892
77.255213,-5181.441594,11473.192101,-3753.867940
77.255522,-3256.906145,14359.995275,-6511.811733
77.255831,2220.617826,12657.521608,-12563.966167
77.256141,2072.576638,9992.780217,-9576.193725
77.256450,-2368.659014,8216.285956,2757.943793
77.256759,-2886.803174,7179.997637,11184.994271
77.257069,-74.020594,4959.379811,7967.393179
77.257378,5477.523971,7328.038826,2374.896044
77.257687,1850.514855,7994.224174,-2451.505594
77.257996,-1554.432478,9474.636058,-2834.553343
77.258306,-4811.338623,11695.253884,-4749.792088
77.258615,-2664.741391,14063.912898,-10189.070123
77.258924,1924.535449,12583.501014,-13406.671215
77.259234,-0.000000,9918.759623,-8503.660028
77.259543,-370.102971,8660.409521,3753.867940
77.259852,-370.102971,5329.482782,11721.261119
77.260162,1184.329507,5329.482782,9882.631924
77.260471,5107.421000,4293.194464,4903.011187
77.260780,3997.112087,6217.729913,76.609550
77.261090,-1628.453072,9474.636058,-2528.115143
77.261399,-3849.070898,13989.892304,-6052.154434
77.261708,-1776.494261,15248.242405,-9499.584175
77.262017,1480.411884,13989.892304,-14402.595362
77.262327,1998.556043,12583.501014,-8810.098227
77.262636,-3701.029710,9030.512492,7660.954980
77.262945,-2146.597232,9030.512492,11951.089769
77.263255,2516.700203,7254.018232,9039.926876
77.263564,3256.906145,6291.750507,2757.943793
77.263873,1702.473667,7994.224174,-766.095498
77.264183,-4219.173869,7698.141797,-229.828649
77.264492,-4441.235652,11695.253884,-5439.278036
77.264801,-1110.308913,13101.645173,-11951.089769
77.265110,1776.494261,11103.089130,-15858.176809
77.265420,-148.041188,9252.574275,-5669.106685
77.265729,-1258.350101,6069.688724,6894.859482
77.266038,-666.185348,3034.844362,12334.137518
77.266348,2368.659014,3478.967927,11797.870669
77.266657,2738.761985,4737.318029,6128.763984
77.266966,2072.576638,6809.894666,-1149.143247
77.267276,-222.061783,11547.212695,-9269.755526
77.267585,-3775.050304,16654.633695,-9346.365076
77.267894,-2664.741391,16284.530724,-9882.631924
77.268204,2072.576638,14359.995275,-12027.699319
77.268513,888.247130,12583.501014,-8427.050478
77.268822,-1110.308913,8586.388927,5669.106685
77.269131,-2072.576638,6513.812290,14632.424012
77.269441,3108.864956,5773.606348,10035.851024
77.269750,4959.379811,4811.338623,-1915.238745
77.270059,3330.926739,8068.244768,-2528.115143
77.270369,-4737.318029,11695.253884,-3140.991542
77.270678,-5921.647536,13175.665768,-6052.154434
77.270987,740.205942,16136.489536,-13636.499864
77.271297,1924.535449,11399.171507,-16624.272307
77.271606,740.205942,10066.800811,-6281.983084
77.271915,-2146.597232,5033.400406,8886.707777
77.272224,518.144159,3627.009116,13942.938064
77.272534,2590.720797,2590.720797,10955.165621
77.272843,2590.720797,5255.462188,6358.592633
77.273152,2368.659014,7994.224174,-3064.381992
77.273462,-2590.720797,10436.903782,-7660.954980
77.273771,-4663.297435,16580.613101,-8733.488677
77.274080,-2146.597232,17468.860231,-11874.480219
77.274390,1924.535449,12805.562797,-15015.471761
77.274699,-0.000000,11843.295072,-4290.134789
77.275008,-2368.659014,7550.100608,9959.241474
77.275318,1110.308913,6143.709319,14096.157163
77.275627,3552.988522,4737.318029,8886.707777
77.275936,5477.523971,6143.709319,2911.162892
77.276245,666.185348,7624.121203,-2451.505594
77.276555,-4219.173869,11399.171507,-5286.058936
77.276864,-4515.256246,15100.201217,-7277.907231
77.277173,-222.061783,15840.407159,-14709.033562
77.277483,1924.535449,14211.954086,-15704.957709
77.277792,592.164754,10807.006753,-3753.867940
77.278101,-1184.329507,5329.482782,9576.193725
77.278411,-1184.329507,3775.050304,14709.033562
77.278720,1998.556043,2960.823768,12947.013916
77.279029,3182.885551,5033.400406,3907.087040
77.279338,3034.844362,6661.853478,-5898.935335
77.279648,-3849.070898,11547.212695,-8580.269578
77.279957,-5995.668130,16284.530724,-7354.516781
77.280266,148.041188,14211.954086,-12947.013916
77.280576,2590.720797,11843.295072,-12870.404366
77.280885,-1924.535449,9770.718434,306.438199
77.281194,-3478.967927,6217.729913,12947.013916
77.281504,222.061783,7105.977043,14019.547613
77.281813,3701.029710,6661.853478,6665.030833
77.282122,4293.194464,8882.471304,-612.876398
77.282431,222.061783,11473.192101,-5669.106685
77.282741,-3108.864956,13249.686362,-8503.660028
77.283050,-4885.359217,16210.510130,-10725.336972
77.283359,666.185348,14434.015869,-14862.252661
77.283669,1554.432478,9770.718434,-11721.261119
77.283978,666.185348,7772.162391,2528.115143
77.284287,-592.164754,2516.700203,13406.671215
77.284597,1036.288319,-0.000000,14479.204912
77.284906,2812.782580,3108.864956,9882.631924
77.285215,1998.556043,5181.441594,612.876398
77.285525,444.123565,11399.171507,-11108.384721
77.285834,-2294.638420,15470.304188,-10572.117872
77.286143,-4737.318029,16876.695478,-8886.707777
77.286452,-888.247130,15988.448347,-11874.480219
77.286762,518.144159,11843.295072,-10418.898773
77.287071,592.164754,9622.677246,-383.047749
77.287380,-1998.556043,7254.018232,11568.042020
77.287690,1554.432478,5329.482782,12257.527968
77.287999,4145.153275,6143.709319,6205.373534
77.288308,2886.803174,9844.739029,-1302.362347
77.288618,-518.144159,10584.944971,-4903.011187
77.288927,-5181.441594,11399.171507,-7354.516781
77.289236,-4145.153275,14508.036463,-10418.898773
77.289545,-444.123565,13027.624579,-14096.157163
77.289855,2664.741391,10362.883188,-11261.603821
77.290164,2072.576638,7328.038826,153.219100
77.290473,-1184.329507,2738.761985,12793.794817
77.290783,222.061783,2220.617826,17237.148705
77.291092,3478.967927,4663.297435,9269.755526
77.291401,4663.297435,7402.059420,-2374.896044
77.291711,-444.123565,10807.006753,-6511.811733
77.292020,-3330.926739,15322.262999,-7890.783629
77.292329,-3108.864956,16136.489536,-10035.851024
77.292639,-0.000000,13619.789333,-9652.803275
77.292948,2220.617826,13101.645173,-7890.783629
77.293257,-222.061783,8290.306550,919.314598
77.293566,-2146.597232,7105.977043,12793.794817
77.293876,444.123565,7920.203579,14709.033562
77.294185,4663.297435,5033.400406,3294.210641
77.294494,3775.050304,8956.491898,-4443.353888
77.294804,-3182.885551,10288.862594,-3600.648841
77.295113,-4145.153275,11547.212695,-6052.154434
77.295422,-2738.761985,13471.748144,-14632.424012
77.295732,-0.000000,12361.439231,-13789.718964
77.296041,666.185348,6809.894666,-5975.544884
77.296350,1332.370696,6217.729913,4290.134789
77.296659,-0.000000,2960.823768,13176.842566
77.296969,-1702.473667,4441.235652,16088.005458
77.297278,2738.761985,6143.709319,7201.297681
77.297587,3849.070898,7846.182985,-7048.078582
77.297897,1110.308913,10807.006753,-10878.556072
77.298206,-4219.173869,14582.057057,-7201.297681
77.298515,-4885.359217,16728.654289,-7584.345430
77.298825,1258.350101,13471.748144,-10648.727422
77.299134,1924.535449,11843.295072,-5132.839837
77.299443,-962.267725,7624.121203,3677.258390
77.299753,444.123565,5699.585753,10725.336972
77.300062,-0.000000,7994.224174,11491.432470
77.300371,4885.359217,8290.306550,1838.629195
77.300680,4663.297435,11399.171507,-4903.011187
77.300990,-2590.720797,10807.006753,-5898.935335
77.301299,-4811.338623,11399.171507,-7354.516781
77.301608,-2294.638420,14137.933492,-9806.022374
77.301918,2812.782580,12731.542202,-13789.718964
77.302227,2886.803174,8438.347739,-8503.660028
77.302536,222.061783,5699.585753,5439.278036
77.302846,-2368.659014,2960.823768,14019.547613
77.303155,1110.308913,3627.009116,11338.213370
77.303464,3701.029710,5329.482782,1991.848295
77.303773,2886.803174,7698.141797,-5362.668486
77.304083,814.226536,10436.903782,-7890.783629
77.304392,-3627.009116,14211.954086,-7354.516781
77.304701,-3182.885551,13767.830521,-8350.440928
77.305011,-888.247130,12509.480420,-8656.879127
77.305320,2590.720797,10510.924376,-5209.449386
77.305629,-1332.370696,5477.523971,4290.134789
77.305939,-2146.597232,7994.224174,11031.775171
77.306248,2220.617826,8216.285956,9039.926876
77.306557,4219.173869,8068.244768,1149.143247
77.306867,2886.803174,9622.677246,-5592.497135
77.307176,-3478.967927,11399.171507,-2528.115143
77.307485,-4145.153275,12583.501014,-5592.497135
77.307794,-814.226536,12879.583391,-10189.070123
77.308104,2072.576638,13249.686362,-9652.803275
77.308413,-74.020594,11325.150913,-4213.525239
77.308722,-1036.288319,5329.482782,4443.353888
77.309032,-1702.473667,4737.318029,12717.185267
77.309341,962.267725,5699.585753,9499.584175
77.309650,3256.906145,6661.853478,-1378.971896
77.309960,3256.906145,9548.656652,-5822.325785
77.310269,740.205942,11843.295072,-5515.887586
77.310578,-3256.906145,12509.480420,-4290.134789
77.310887,-2664.741391,11843.295072,-4826.401637
77.311197,370.102971,10214.842000,-6128.763984
77.311506,2368.659014,9030.512492,-4596.572988
77.311815,-666.185348,7402.059420,3447.429741
77.312125,-1628.453072,8438.347739,9882.631924
77.312434,2220.617826,10066.800811,7048.078582
77.312743,6217.729913,7105.977043,-1685.410096
77.313053,592.164754,11325.150913,-3140.991542
77.313362,-3552.988522,11695.253884,-1532.190996
77.313671,-3404.947333,11843.295072,-5669.106685
77.313981,-1036.288319,12509.480420,-10418.898773
77.314290,1554.432478,12139.377449,-9269.755526
77.314599,1332.370696,7772.162391,-3753.867940
77.314908,-222.061783,5995.668130,3753.867940
77.315218,-148.041188,6513.812290,10112.460574
77.315527,-1258.350101,7179.997637,9729.412825
77.315836,4515.256246,6809.894666,689.485948
77.316146,2368.659014,8586.388927,-4290.134789
77.316455,-962.267725,9104.533087,-4749.792088
77.316764,-4663.297435,10066.800811,-4903.011187
77.317074,-3330.926739,13471.748144,-6281.983084
77.317383,740.205942,11325.150913,-8810.098227
77.317692,1628.453072,9770.718434,-6894.859482
77.318001,-370.102971,8364.327145,3753.867940
77.318311,-2590.720797,8882.471304,14096.157163
77.318620,2516.700203,8438.347739,6588.421283
77.318929,3627.009116,8364.327145,229.828649
77.319239,1110.308913,9696.697840,-1838.629195
77.319548,-3552.988522,11029.068536,-2604.724693
77.319857,-5107.421000,12879.583391,-3294.210641
77.320167,-814.226536,13545.768739,-11568.042020
77.320476,2368.659014,13619.789333,-14019.547613
77.320785,1554.432478,9622.677246,-5515.887586
77.321095,-2664.741391,6291.750507,7048.078582
77.321404,-370.102971,3701.029710,11797.870669
77.321713,2072.576638,4145.153275,7584.345430
77.322022,4145.153275,4737.318029,1072.533697
77.322332,2516.700203,6143.709319,-2451.505594
77.322641,-1184.329507,10140.821405,-7124.688131
77.322950,-3108.864956,12065.356855,-3447.429741
77.323260,-1998.556043,13989.892304,-6358.592633
77.323569,1406.391290,11547.212695,-9806.022374
77.323878,592.164754,11695.253884,-5669.106685
77.324188,-2886.803174,11843.295072,3447.429741
77.324497,-1258.350101,9918.759623,8120.612279
77.324806,3478.967927,8586.388927,3907.087040
77.325115,3627.009116,8660.409521,-229.828649
77.325425,1480.411884,9104.533087,3217.601092
77.325734,-3701.029710,9400.615463,-1225.752797
77.326043,-3627.009116,11991.336260,-4826.401637
77.326353,814.226536,12879.583391,-10112.460574
77.326662,1924.535449,10436.903782,-11568.042020
77.326971,-1184.329507,11251.130318,-689.485948
77.327281,-1480.411884,6365.771101,6971.469032
77.327590,1776.494261,4737.318029,8733.488677
77.327899,2960.823768,5329.482782,4366.744339
77.328209,3552.988522,5773.606348,2221.676944
77.328518,1332.370696,5625.565159,0.000000
77.328827,-1184.329507,9400.615463,-2911.162892
77.329136,-4293.194464,12879.583391,-2451.505594
77.329446,-1850.514855,14359.995275,-7124.688131
77.329755,1554.432478,11991.336260,-9882.631924
77.330064,1258.350101,12287.418637,-7431.126331
77.330374,-1480.411884,11769.274478,4519.963438
77.330683,-1036.288319,7772.162391,9422.974625
77.330992,2812.782580,7550.100608,7048.078582
77.331302,1924.535449,8290.306550,2757.943793
77.331611,-222.061783,7772.162391,459.657299
77.331920,-3182.885551,9770.718434,-3064.381992
77.332229,-3849.070898,12657.521608,-7277.907231
77.332539,-296.082377,12953.603985,-13483.280765
77.332848,2294.638420,11917.315666,-15015.471761
77.333157,-814.226536,8512.368333,-4290.134789
77.333467,-2072.576638,6217.729913,8733.488677
77.333776,148.041188,3627.009116,12640.575717
77.334085,3182.885551,6291.750507,8273.831378
77.334395,3775.050304,5181.441594,3064.381992
77.334704,1036.288319,5625.565159,-766.095498
77.335013,-2590.720797,10140.821405,-4673.182538
77.335323,-3404.947333,14063.912898,-7431.126331
77.335632,-1998.556043,14137.933492,-9269.755526
77.335941,1776.494261,15470.304188,-13636.499864
77.336250,74.020594,12213.398043,-5975.544884
77.336560,-1776.494261,9548.656652,6435.202183
77.336869,1036.288319,5921.647536,9959.241474
77.337178,2516.700203,6217.729913,9269.755526
77.337488,3256.906145,7846.182985,5669.106685
77.337797,370.102971,8290.306550,-306.438199
77.338106,-3552.988522,11325.150913,-5362.668486
77.338416,-3182.885551,13323.706956,-8580.269578
77.338725,-592.164754,16432.571912,-14479.204912
77.339034,1776.494261,13175.665768,-15551.738609
77.339343,-74.020594,9696.697840,-2374.896044
77.339653,-2886.803174,5699.585753,11874.480219
77.339962,296.082377,2146.597232,12563.966167
77.340271,4219.173869,1628.453072,7354.516781
77.340581,2738.761985,2368.659014,3753.867940
77.340890,222.061783,8216.285956,-1685.410096
77.341199,-1554.432478,9548.656652,-4673.182538
77.341509,-3034.844362,14582.057057,-9193.145976
77.341818,-1628.453072,16802.674883,-11874.480219
77.342127,1406.391290,12583.501014,-12257.527968
77.342437,-666.185348,10732.986159,-3524.039291
77.342746,-1110.308913,7994.224174,6435.202183
77.343055,2664.741391,5255.462188,11338.213370
77.343364,2294.638420,5033.400406,8733.488677
77.343674,2960.823768,7698.141797,4290.134789
77.343983,-666.185348,9622.677246,-2911.162892
77.344292,-4219.173869,12731.542202,-6741.640382
77.344602,-3034.844362,15692.365970,-9576.193725
77.344911,1332.370696,15248.242405,-15934.786358
77.345220,2146.597232,13841.851115,-14555.814462
77.345530,-888.247130,7994.224174,0.000000
77.345839,-1628.453072,5033.400406,12257.527968
77.346148,2590.720797,2664.741391,11491.432470
77.346457,4441.235652,3330.926739,8656.879127
77.346767,2368.659014,5107.421000,4903.011187
77.347076,-444.123565,7994.224174,-1608.800546
77.347385,-2664.741391,11399.171507,-7048.078582
77.347695,-4293.194464,14952.160028,-9269.755526
77.348004,-1776.494261,15396.283594,-15168.690860
77.348313,2960.823768,12361.439231,-17466.977354
77.348623,-518.144159,9326.594869,-2451.505594
77.348932,-1554.432478,6587.832884,11644.651570
77.349241,814.226536,4663.297435,15015.471761
77.349551,2960.823768,5033.400406,10648.727422
77.349860,3108.864956,6883.915261,3217.601092
77.350169,-1110.308913,9548.656652,-4213.525239
77.350479,-3330.926739,12065.356855,-8656.879127
77.350788,-3108.864956,15618.345376,-11414.822920
77.351098,592.164754,14878.139434,-17390.367805
77.351407,1776.494261,11251.130318,-13100.233016
77.351717,-444.123565,8216.285956,2451.505594
77.352026,-1924.535449,5255.462188,14709.033562
77.352336,1776.494261,2960.823768,14325.985813
77.352645,444.123565,4145.153275,11261.603821
77.352954,3182.885551,6291.750507,1608.800546
77.353264,666.185348,10436.903782,-5439.278036
77.353573,-3404.947333,14137.933492,-8503.660028
77.353883,-4071.132681,16284.530724,-10112.460574
77.354192,-296.082377,17098.757260,-14402.595362
77.354502,1776.494261,11769.274478,-12180.918418
77.354811,-1776.494261,8068.244768,3753.867940
77.355121,-888.247130,5033.400406,15551.738609
77.355430,-814.226536,3701.029710,14479.204912
77.355740,4071.132681,4811.338623,8273.831378
77.356049,2442.679609,8068.244768,2604.724693
77.356358,-2072.576638,10288.862594,-5515.887586
77.356668,-2960.823768,14137.933492,-9959.241474
77.356977,-4145.153275,18061.024985,-13406.671215
77.357287,-370.102971,15174.221811,-16241.224558
77.357596,-74.020594,11177.109724,-8120.612279
77.357906,-1332.370696,6365.771101,6665.030833
77.358215,-1184.329507,3849.070898,12717.185267
77.358525,3997.112087,1702.473667,12410.747068
77.358834,2590.720797,3923.091493,8273.831378
77.359143,1480.411884,6883.915261,1685.410096
77.359453,-0.000000,9918.759623,-7431.126331
77.359762,-3627.009116,14434.015869,-11261.603821
77.360072,-3775.050304,15322.262999,-11644.651570
77.360381,-814.226536,13915.871710,-14096.157163
77.360691,1184.329507,11843.295072,-9346.365076
77.361000,1332.370696,8512.368333,3753.867940
77.361310,-148.041188,6143.709319,13713.109414
77.361619,1332.370696,3478.967927,16164.615008
77.361928,3034.844362,5773.606348,9652.803275
77.362238,3849.070898,8956.491898,-3140.991542
77.362547,-2960.823768,13027.624579,-15015.471761
77.362857,-5033.400406,16580.613101,-8963.317327
77.363166,-2368.659014,17320.819043,-13100.233016
77.363476,1036.288319,15100.201217,-17237.148705
77.363785,1184.329507,11177.109724,-8350.440928
77.364095,-3552.988522,6883.915261,8580.269578
77.364404,-1332.370696,3552.988522,15168.690860
77.364714,2812.782580,3256.906145,12104.308868
77.365023,4515.256246,4663.297435,5286.058936
77.365332,3182.885551,7698.141797,-2528.115143
77.365642,-1406.391290,9992.780217,-8197.221829
77.365951,-4737.318029,13101.645173,-7967.393179
77.366261,-518.144159,15396.283594,-12257.527968
77.366570,518.144159,13027.624579,-15628.348159
77.366880,592.164754,10658.965565,-7354.516781
77.367189,-370.102971,5847.626942,9346.365076
77.367499,-370.102971,4441.235652,11951.089769
77.367808,1998.556043,5921.647536,10878.556072
77.368117,3034.844362,6365.771101,7354.516781
77.368427,2368.659014,9474.636058,-2681.334243
77.368736,-0.000000,13397.727550,-9269.755526
77.369046,-4811.338623,14804.118840,-8810.098227
77.369355,-3256.906145,16432.571912,-11721.261119
77.369665,592.164754,13471.748144,-14938.862211
77.369974,962.267725,11251.130318,-5975.544884
77.370284,518.144159,6513.812290,8120.612279
77.370593,592.164754,3849.070898,14172.766713
77.370903,1850.514855,3997.112087,12793.794817
77.371212,3627.009116,5403.503377,6818.249932
77.371521,2738.761985,7698.141797,-4213.525239
77.371831,-2516.700203,9992.780217,-8580.269578
77.372140,-4811.338623,13989.892304,-8733.488677
77.372450,-1332.370696,13619.789333,-12104.308868
77.372759,2146.597232,12065.356855,-14785.643111
77.373069,-222.061783,7772.162391,-2374.896044
77.373378,-1110.308913,5329.482782,11874.480219
77.373688,-740.205942,3627.009116,15245.300410
77.373997,-370.102971,6069.688724,12793.794817
77.374306,3330.926739,8438.347739,1915.238745
77.374616,2886.803174,11029.068536,-7277.907231
77.374925,-1924.535449,14434.015869,-9039.926876
77.375235,-7105.977043,16654.633695,-7584.345430
77.375544,1480.411884,13175.665768,-12487.356617
77.375854,2368.659014,13101.645173,-13023.623466
77.376163,-814.226536,9474.636058,-1225.752797
77.376473,-1258.350101,5033.400406,10035.851024
77.376782,370.102971,3478.967927,9346.365076
77.377091,3478.967927,3330.926739,8197.221829
77.377401,3256.906145,7105.977043,3830.477490
77.377710,2220.617826,9104.533087,-4213.525239
77.378020,-2368.659014,9992.780217,-7354.516781
77.378329,-3552.988522,13693.809927,-9193.145976
77.378639,-1110.308913,12805.562797,-11261.603821
77.378948,370.102971,10288.862594,-10418.898773
77.379258,-148.041188,9104.533087,0.000000
77.379567,-1702.473667,5847.626942,7660.954980
77.379877,962.267725,6735.874072,9346.365076
77.380186,1332.370696,7179.997637,7124.688131
77.380495,2812.782580,10288.862594,-306.438199
77.380805,2368.659014,11843.295072,-6894.859482
77.381114,-4885.359217,10955.047942,-4136.915689
77.381424,-5847.626942,14137.933492,-5669.106685
77.381733,-740.205942,12805.562797,-9422.974625
77.382043,2072.576638,10436.903782,-11108.384721
77.382352,1184.329507,7402.059420,-2374.896044
77.382662,-962.267725,5181.441594,9882.631924
77.382971,1036.288319,2960.823768,10955.165621
77.383280,3330.926739,3997.112087,6665.030833
77.383590,2960.823768,7254.018232,1838.629195
77.383899,666.185348,9474.636058,-3064.381992
77.384209,-2960.823768,11251.130318,-4443.353888
77.384518,-2294.638420,13619.789333,-7354.516781
77.384828,-888.247130,13101.645173,-12027.699319
77.385137,2442.679609,11177.109724,-10112.460574
77.385447,-1184.329507,11769.274478,229.828649
77.385756,-2294.638420,9474.636058,8580.269578
77.386066,-0.000000,8438.347739,11031.775171
77.386375,2072.576638,7846.182985,4519.963438
77.386684,3552.988522,9696.697840,-2757.943793
77.386994,444.123565,10362.883188,-5822.325785
77.387303,-2368.659014,10140.821405,-5439.278036
77.387613,-4367.215058,12065.356855,-4903.011187
77.387922,518.144159,10807.006753,-8503.660028
77.388232,1554.432478,9252.574275,-7584.345430
77.388541,-592.164754,6735.874072,-153.219100
77.388851,-0.000000,6069.688724,6358.592633
77.389160,-0.000000,4219.173869,7814.174080
77.389469,3404.947333,8290.306550,4826.401637
77.389779,1332.370696,11029.068536,2834.553343
77.390088,222.061783,9030.512492,-3830.477490
77.390398,-2664.741391,11547.212695,-3983.696590
77.390707,-2886.803174,11991.336260,-6205.373534
77.391017,740.205942,13101.645173,-8580.269578
77.391326,-444.123565,12139.377449,-8963.317327
77.391636,-444.123565,8808.450710,612.876398
77.391945,-1924.535449,7772.162391,7431.126331
77.392255,592.164754,8142.265362,8120.612279
77.392564,592.164754,10362.883188,2145.067394
77.392873,2516.700203,10807.006753,-1838.629195
77.393183,370.102971,9622.677246,-4290.134789
77.393492,-3256.906145,9696.697840,-4213.525239
77.393802,-2590.720797,11473.192101,-4903.011187
77.394111,-518.144159,9844.739029,-7431.126331
77.394421,1480.411884,9770.718434,-7201.297681
77.394730,296.082377,8586.388927,-2298.286494
77.395040,148.041188,5255.462188,4903.011187
77.395349,-1406.391290,5995.668130,9269.755526
77.395658,2146.597232,8808.450710,5515.887586
77.395968,2368.659014,8956.491898,0.000000
77.396277,-222.061783,9770.718434,-2528.115143
77.396587,-3775.050304,11473.192101,-4290.134789
77.396896,-0.000000,11177.109724,-5286.058936
77.397206,-370.102971,12879.583391,-11261.603821
77.397515,1998.556043,11473.192101,-9346.365076
77.397825,-0.000000,8068.244768,0.000000
77.398134,-2886.803174,8438.347739,9959.241474
77.398443,-888.247130,6365.771101,11108.384721
77.398753,3404.947333,7624.121203,3677.258390
77.399062,3701.029710,8586.388927,-2451.505594
77.399372,-0.000000,10140.821405,-3140.991542
77.399681,-4737.318029,14211.954086,-1378.971896
77.399991,-2738.761985,14211.954086,-6205.373534
77.400300,-370.102971,13915.871710,-10878.556072
77.400610,2146.597232,10140.821405,-9116.536426
77.400919,-1406.391290,8734.430116,-383.047749
77.401229,-1406.391290,5921.647536,6435.202183
77.401538,888.247130,5477.523971,9806.022374
77.401847,1258.350101,7402.059420,5362.668486
77.402157,2294.638420,7179.997637,0.000000
77.402466,-962.267725,8882.471304,-1991.848295
77.402776,-2886.803174,10732.986159,-5209.449386
77.403085,-2146.597232,12731.542202,-7737.564530
77.403395,-0.000000,13841.851115,-10572.117872
77.403704,666.185348,11103.089130,-7201.297681
77.404014,-2960.823768,11547.212695,-229.828649
77.404323,-814.226536,6365.771101,7354.516781
77.404632,888.247130,4959.379811,7201.297681
77.404942,2960.823768,6809.894666,3370.820191
77.405251,3256.906145,8068.244768,-306.438199
77.405561,-740.205942,11103.089130,-2987.772442
77.405870,-4737.318029,12213.398043,-2604.724693
77.406180,-2812.782580,13915.871710,-6358.592633
77.406489,888.247130,14063.912898,-13559.890315
77.406799,2664.741391,11325.150913,-14862.252661
77.407108,1110.308913,9622.677246,-1302.362347
77.407418,-740.205942,5107.421000,7660.954980
77.407727,1036.288319,5255.462188,10265.679673
77.408036,2220.617826,4959.379811,8503.660028
77.408346,1628.453072,6365.771101,842.705048
77.408655,-296.082377,7698.141797,-3140.991542
77.408965,-2072.576638,10955.047942,-6128.763984
77.409274,-2738.761985,13619.789333,-9729.412825
77.409584,-814.226536,13619.789333,-16011.395908
77.409893,814.226536,13545.768739,-8963.317327
77.410203,-666.185348,9844.739029,689.485948
77.410512,-592.164754,8216.285956,7660.954980
77.410821,518.144159,5773.606348,9806.022374
77.411131,2664.741391,4145.153275,9882.631924
77.411440,1702.473667,6809.894666,1838.629195
77.411750,-740.205942,8142.265362,-1225.752797
77.412059,-4515.256246,11177.109724,-4290.134789
77.412369,-2664.741391,14137.933492,-10189.070123
77.412678,1406.391290,13767.830521,-14479.204912
77.412988,814.226536,10658.965565,-11031.775171
77.413297,-148.041188,9326.594869,995.924147
77.413607,-666.185348,4441.235652,10878.556072
77.413916,2368.659014,3701.029710,12793.794817
77.414225,2442.679609,5329.482782,9499.584175
77.414535,2294.638420,6069.688724,1455.581446
77.414844,518.144159,9474.636058,-3370.820191
77.415154,-3034.844362,12805.562797,-6205.373534
77.415463,-1258.350101,17172.777854,-9116.536426
77.415773,-0.000000,15248.242405,-14019.547613
77.416082,296.082377,14359.995275,-7890.783629
77.416392,-1702.473667,10362.883188,2911.162892
77.416701,148.041188,7105.977043,9576.193725
77.417010,1184.329507,5625.565159,9269.755526
77.417320,2664.741391,4885.359217,6052.154434
77.417629,2516.700203,7105.977043,2451.505594
77.417939,-814.226536,9400.615463,-1915.238745
77.418248,-4219.173869,11843.295072,-7354.516781
77.418558,-2368.659014,13397.727550,-11874.480219
77.418867,-0.000000,13175.665768,-16011.395908
77.419177,444.123565,10436.903782,-9346.365076
77.419486,962.267725,7994.224174,1915.238745
77.419795,-74.020594,2442.679609,11338.213370
77.420105,1110.308913,3256.906145,14019.547613
77.420414,1628.453072,3627.009116,11031.775171
77.420724,1702.473667,7031.956449,995.924147
77.421033,1480.411884,10732.986159,-10265.679673
77.421343,-2368.659014,13767.830521,-10801.946522
77.421652,-2146.597232,17246.798449,-13636.499864
77.421962,-518.144159,15026.180623,-13713.109414
77.422271,1036.288319,13471.748144,-7967.393179
77.422581,-222.061783,8142.265362,3830.477490
77.422890,296.082377,5551.544565,12793.794817
77.423199,1628.453072,4441.235652,11874.480219
77.423509,3923.091493,3997.112087,5975.544884
77.423818,1998.556043,7772.162391,919.314598
77.424128,-3997.112087,11029.068536,-4060.306139
77.424437,-3478.967927,14211.954086,-8656.879127
77.424747,-962.267725,15766.386565,-15704.957709
77.425056,1258.350101,14804.118840,-17773.415554
77.425366,518.144159,10066.800811,-6894.859482
77.425675,-222.061783,4959.379811,5362.668486
77.425984,962.267725,3330.926739,13176.842566
77.426294,2368.659014,2368.659014,13713.109414
77.426603,1702.473667,3775.050304,10265.679673
77.426913,-0.000000,9030.512492,3524.039291
77.427222,-0.000000,10436.903782,-8120.612279
77.427532,-2590.720797,14952.160028,-12410.747068
77.427841,-3849.070898,15692.365970,-12717.185267
77.428151,-814.226536,15544.324782,-7354.516781
77.428460,1406.391290,12139.377449,-7277.907231
77.428770,-0.000000,7328.038826,6588.421283
77.429079,-518.144159,3552.988522,14785.643111
77.429388,2368.659014,2220.617826,13789.718964
77.429698,2368.659014,6735.874072,12257.527968
77.430007,1554.432478,10807.006753,-383.047749
77.430317,-2220.617826,12657.521608,-6818.249932
77.430626,-4441.235652,15544.324782,-10955.165621
77.430936,-1332.370696,17616.901420,-15781.567259
77.431245,2368.659014,13545.768739,-18845.949251
77.431555,962.267725,10362.883188,-7048.078582
77.431864,-0.000000,5847.626942,9652.803275
77.432173,-148.041188,1406.391290,16930.710506
77.432483,2442.679609,222.061783,15015.471761
77.432792,2442.679609,4737.318029,8656.879127
77.433102,2294.638420,6661.853478,-3140.991542
77.433411,-814.226536,11695.253884,-10725.336972
77.433721,-2146.597232,15988.448347,-12947.013916
77.434030,-2442.679609,13101.645173,-15934.786358
77.434340,-0.000000,15914.427753,-12410.747068
77.434649,-740.205942,10362.883188,-1608.800546
77.434958,-888.247130,6513.812290,9269.755526
77.435268,-0.000000,4959.379811,14632.424012
77.435577,2146.597232,5551.544565,11261.603821
77.435887,1850.514855,7698.141797,4213.525239
77.436196,2368.659014,11769.274478,-4519.963438
77.436506,-2220.617826,13027.624579,-9576.193725
77.436815,-7328.038826,17024.736666,-14555.814462
77.437125,-740.205942,15692.365970,-14555.814462
77.437434,1998.556043,11103.089130,-15321.909960
77.437744,666.185348,6587.832884,-1302.362347
77.438053,-888.247130,3552.988522,13100.233016
77.438362,-0.000000,444.123565,14862.252661
77.438672,2960.823768,1702.473667,12027.699319
77.438981,2960.823768,6069.688724,4979.620737
77.439291,1998.556043,9474.636058,-4749.792088
77.439600,-2516.700203,13915.871710,-13253.452115
77.439910,-4737.318029,16876.695478,-12027.699319
77.440219,-1184.329507,17320.819043,-14402.595362
77.440529,1332.370696,14063.912898,-11951.089769
77.440838,-296.082377,9474.636058,-536.266849
77.441147,-1702.473667,4145.153275,13023.623466
77.441457,1776.494261,4663.297435,14555.814462
77.441766,2960.823768,4737.318029,8273.831378
77.442076,1998.556043,9252.574275,2068.457845
77.442385,888.247130,10955.047942,-5056.230287
77.442695,-2886.803174,13249.686362,-9959.241474
77.443004,-3478.967927,16358.551318,-12487.356617
77.443314,-1036.288319,12435.459826,-14632.424012
77.443623,1110.308913,11103.089130,-11874.480219
77.443933,2368.659014,6883.915261,0.000000
77.444242,-1036.288319,1332.370696,12793.794817
77.444551,-148.041188,1406.391290,17543.586904
77.444861,3627.009116,3256.906145,12870.404366
77.445170,3256.906145,7476.080014,995.924147
77.445480,1332.370696,10658.965565,-7890.783629
77.445789,-1332.370696,15396.283594,-10801.946522
77.446099,-4589.276840,16728.654289,-12027.699319
77.446408,-1184.329507,16432.571912,-14249.376263
77.446718,-1036.288319,13841.851115,-10955.165621
77.447027,-444.123565,9178.553681,2374.896044
77.447336,-1036.288319,5921.647536,12180.918418
77.447646,1702.473667,4663.297435,13636.499864
77.447955,3182.885551,4293.194464,8197.221829
77.448265,666.185348,8882.471304,842.705048
77.448574,-1036.288319,11473.192101,-4443.353888
77.448884,-2368.659014,13915.871710,-9499.584175
77.449193,-2442.679609,14359.995275,-12870.404366
77.449503,-148.041188,12879.583391,-14862.252661
77.449812,740.205942,9622.677246,-8886.707777
77.450122,296.082377,5773.606348,4596.572988
77.450431,1924.535449,2590.720797,11414.822920
77.450740,814.226536,666.185348,14096.157163
77.451050,1258.350101,8216.285956,13176.842566
77.451359,2516.700203,8364.327145,229.828649
77.451669,2886.803174,11843.295072,-11568.042020
77.451975,-2368.659014,14582.057057,-10725.336972
77.452284,-5107.421000,15914.427753,-7660.954980
77.452594,-2516.700203,15988.448347,-12104.308868
77.452903,962.267725,12731.542202,-9269.755526
77.453213,370.102971,8882.471304,2068.457845
77.453522,-1480.411884,4367.215058,11797.870669
77.453832,1332.370696,5033.400406,9499.584175
77.454141,2368.659014,6513.812290,5822.325785
77.454451,2738.761985,8660.409521,-1072.533697
77.454760,-740.205942,10362.883188,-5056.230287
77.455070,-2368.659014,13397.727550,-7507.735880
77.455379,-6291.750507,11917.315666,-9039.926876
77.455688,-222.061783,12805.562797,-12257.527968
77.455998,1036.288319,10510.924376,-8963.317327
77.456307,888.247130,7031.956449,1838.629195
77.456617,-888.247130,4145.153275,11568.042020
77.456926,148.041188,2738.761985,14709.033562
77.457236,2368.659014,6291.750507,7124.688131
77.457545,3478.967927,8660.409521,-1455.581446
77.457855,296.082377,11769.274478,-7737.564530
77.458164,1036.288319,11769.274478,-10418.898773
77.458474,-4515.256246,13841.851115,-8503.660028
77.458783,-1628.453072,13545.768739,-8273.831378
77.459093,1406.391290,11029.068536,-5362.668486
77.459402,1036.288319,9326.594869,1072.533697
77.459712,-888.247130,5403.503377,10725.336972
77.460021,444.123565,6217.729913,11644.651570
77.460331,1998.556043,7179.997637,5056.230287
77.460640,4145.153275,9992.780217,-2068.457845
77.460950,-1332.370696,11029.068536,-3140.991542
77.461259,-4737.318029,13323.706956,-4443.353888
77.461569,-2294.638420,14211.954086,-8350.440928
77.461878,444.123565,13767.830521,-11874.480219
77.462188,1258.350101,10658.965565,-7431.126331
77.462497,1036.288319,7105.977043,4443.353888
77.462807,-222.061783,5551.544565,9882.631924
77.463116,-0.000000,5477.523971,10265.679673
77.463426,1776.494261,6661.853478,4903.011187
77.463735,3108.864956,8364.327145,-3524.039291
77.464044,1480.411884,8438.347739,-5669.106685
77.464354,-2886.803174,11325.150913,-5592.497135
77.464663,-3182.885551,11251.130318,-4903.011187
77.464973,-222.061783,11177.109724,-7814.174080
77.465282,1776.494261,9770.718434,-4979.620737
77.465592,444.123565,7476.080014,1915.238745
77.465901,518.144159,5995.668130,6588.421283
77.466211,740.205942,8512.368333,6741.640382
77.466520,1924.535449,11029.068536,3064.381992
77.466830,2960.823768,12361.439231,-5056.230287
77.467139,370.102971,11621.233289,-5898.935335
77.467449,-4293.194464,12953.603985,-6052.154434
77.467758,-2664.741391,12139.377449,-8503.660028
77.468068,592.164754,12287.418637,-11414.822920
77.468377,1850.514855,9548.656652,-6205.373534
77.468687,814.226536,7105.977043,3217.601092
77.468996,-444.123565,4663.297435,9193.145976
77.469306,-74.020594,5107.421000,10112.460574
77.469615,1924.535449,5033.400406,4749.792088
77.469925,2442.679609,8068.244768,-4136.915689
77.470234,740.205942,9474.636058,-7124.688131
77.470544,-3256.906145,10436.903782,-5898.935335
77.470853,-4737.318029,11843.295072,-5209.449386
77.471163,444.123565,11843.295072,-7660.954980
77.471472,1554.432478,11695.253884,-6281.983084
77.471782,-0.000000,8882.471304,1072.533697
77.472091,-1480.411884,7846.182985,8273.831378
77.472401,370.102971,8364.327145,7201.297681
77.472710,3552.988522,10066.800811,3140.991542
77.473019,2146.597232,10807.006753,-1838.629195
77.473329,-1480.411884,11695.253884,-3217.601092
77.473638,-4515.256246,10881.027347,-4673.182538
77.473948,-1036.288319,11917.315666,-10878.556072
77.474257,296.082377,11695.253884,-12487.356617
77.474567,1924.535449,9770.718434,-6205.373534
77.474876,-518.144159,6439.791695,4596.572988
77.475186,-1776.494261,4589.276840,10725.336972
77.475495,2072.576638,4441.235652,9499.584175
77.475805,2146.597232,5773.606348,3217.601092
77.476114,2664.741391,7920.203579,-1608.800546
77.476424,666.185348,8882.471304,-3983.696590
77.476733,-2072.576638,11843.295072,-9269.755526
77.477043,-2886.803174,13397.727550,-6894.859482
77.477352,-0.000000,13767.830521,-7814.174080
77.477662,962.267725,12583.501014,-5898.935335
77.477971,-148.041188,9992.780217,536.266849
77.478281,-2812.782580,9844.739029,5669.106685
77.478590,1036.288319,7402.059420,7507.735880
77.478900,2590.720797,8660.409521,3447.429741
77.479209,740.205942,9178.553681,383.047749
77.479519,-222.061783,10288.862594,-2681.334243
77.479828,-4145.153275,11029.068536,-5975.544884
77.480138,-3034.844362,12953.603985,-8656.879127
77.480447,2368.659014,11547.212695,-11721.261119
77.480757,2072.576638,10510.924376,-8197.221829
77.481066,-1036.288319,7254.018232,1225.752797
77.481375,-888.247130,3552.988522,12334.137518
77.481685,1406.391290,3404.947333,10189.070123
77.481994,2812.782580,5033.400406,3753.867940
77.482304,2664.741391,7698.141797,-1915.238745
77.482613,-888.247130,9844.739029,-5209.449386
77.482923,-2516.700203,13619.789333,-4673.182538
77.483232,-2368.659014,14582.057057,-8044.002729
77.483542,-370.102971,14804.118840,-11797.870669
77.483851,-666.185348,14285.974681,-7967.393179
77.484161,-74.020594,8512.368333,0.000000
77.484470,296.082377,7994.224174,7814.174080
77.484780,962.267725,7402.059420,8427.050478
77.485089,2146.597232,6217.729913,6281.983084
77.485399,-0.000000,7105.977043,4903.011187
77.485708,-1628.453072,9252.574275,-2451.505594
77.486018,-3701.029710,10807.006753,-6511.811733
77.486327,-2442.679609,12879.583391,-10955.165621
77.486637,1554.432478,14434.015869,-15551.738609
77.486946,-0.000000,11695.253884,-9729.412825
77.487256,-666.185348,6587.832884,2298.286494
77.487565,-370.102971,4515.256246,10035.851024
77.487875,2072.576638,3108.864956,9959.241474
77.488184,2738.761985,3923.091493,8810.098227
77.488494,2294.638420,7105.977043,459.657299
77.488803,740.205942,8068.244768,-3907.087040
77.489113,-2368.659014,12657.521608,-6818.249932
77.489422,-4219.173869,14063.912898,-9039.926876
77.489732,1184.329507,13989.892304,-13713.109414
77.490041,666.185348,13323.706956,-9346.365076
77.490350,370.102971,10807.006753,1455.581446
77.490660,-814.226536,7698.141797,9729.412825
77.490969,1628.453072,6069.688724,7967.393179
77.491279,1850.514855,6291.750507,8044.002729
77.491588,740.205942,7772.162391,3140.991542
77.491898,-2146.597232,9252.574275,-2374.896044
77.492207,-2886.803174,12213.398043,-8197.221829
77.492517,-3552.988522,11917.315666,-13942.938064
77.492826,1184.329507,15174.221811,-15398.519510
77.493136,1184.329507,12213.398043,-7967.393179
77.493445,-814.226536,7772.162391,6358.592633
77.493755,-814.226536,3775.050304,13406.671215
77.494064,2442.679609,-74.020594,11951.089769
77.494374,2146.597232,3627.009116,6741.640382
77.494683,3404.947333,5773.606348,0.000000
77.494993,-1554.432478,7328.038826,-5669.106685
77.495302,-4293.194464,15026.180623,-8350.440928
77.495612,-3775.050304,15174.221811,-10725.336972
77.495921,1258.350101,15248.242405,-15245.300410
77.496231,1184.329507,12879.583391,-9652.803275
77.496540,-1184.329507,7698.141797,5745.716235
77.496850,-1406.391290,7920.203579,12257.527968
77.497159,3701.029710,5921.647536,10955.165621
77.497469,1480.411884,7402.059420,7354.516781
77.497778,1036.288319,7920.203579,1455.581446
77.498088,-962.267725,10955.047942,-7431.126331
77.498397,-3627.009116,14359.995275,-11414.822920
77.498706,-1628.453072,17246.798449,-13942.938064
77.499016,222.061783,15544.324782,-15475.129060
77.499325,2442.679609,11325.150913,-6665.030833
77.499635,-3330.926739,5699.585753,9116.536426
77.499944,-518.144159,444.123565,14709.033562
77.500254,2072.576638,444.123565,12717.185267
77.500563,1776.494261,3552.988522,7201.297681
77.500873,3404.947333,6661.853478,-995.924147
77.501182,296.082377,11251.130318,-9346.365076
77.501492,-4515.256246,14285.974681,-9729.412825
77.501801,-3256.906145,17394.839637,-12870.404366
77.502111,444.123565,15322.262999,-16241.224558
77.502420,-888.247130,12583.501014,-7124.688131
77.502730,-74.020594,7402.059420,6435.202183
77.503039,148.041188,3256.906145,12640.575717
77.503349,1184.329507,3108.864956,12487.356617
77.503658,2664.741391,5551.544565,8656.879127
77.503968,-0.000000,10807.006753,-919.314598
77.504277,-2516.700203,10510.924376,-7814.174080
77.504587,-3404.947333,14952.160028,-11338.213370
77.504896,-814.226536,16506.592507,-16700.881856
77.505206,814.226536,15248.242405,-15704.957709
77.505515,-592.164754,11325.150913,-1608.800546
77.505825,518.144159,5699.585753,8963.317327
77.506134,1184.329507,1332.370696,13559.890315
77.506444,1184.329507,2146.597232,14862.252661
77.506753,2738.761985,2664.741391,3830.477490
77.507063,3997.112087,7624.121203,-3447.429741
77.507372,-1776.494261,13175.665768,-7584.345430
77.507681,-5625.565159,15692.365970,-8886.707777
77.507991,-2368.659014,18505.148550,-16930.710506
77.508300,2590.720797,14211.954086,-17620.196454
77.508610,-814.226536,11991.336260,-3217.601092
77.508919,-222.061783,7328.038826,10495.508323
77.509229,1406.391290,3108.864956,14096.157163
77.509538,-222.061783,3627.009116,15245.300410
77.509848,1702.473667,5477.523971,8273.831378
77.510157,1480.411884,7772.162391,-4366.744339
77.510467,-370.102971,11251.130318,-10801.946522
77.510776,-4219.173869,15100.201217,-11568.042020
77.511086,-888.247130,15692.365970,-13483.280765
77.511395,1184.329507,12805.562797,-15015.471761
77.511705,-1554.432478,8364.327145,229.828649
77.512014,-1184.329507,3997.112087,12870.404366
77.512324,1702.473667,2368.659014,14325.985813
77.512633,1332.370696,3182.885551,11261.603821
77.512943,3108.864956,6587.832884,5592.497135
77.513252,2368.659014,9030.512492,-5592.497135
77.513562,-518.144159,14137.933492,-10955.165621
77.513871,-3627.009116,16506.592507,-10495.508323
77.514181,-1332.370696,17024.736666,-13942.938064
77.514490,1406.391290,14211.954086,-14632.424012
77.514800,1554.432478,8586.388927,-1302.362347
77.515109,444.123565,5921.647536,12257.527968
77.515419,1924.535449,3997.112087,14709.033562
77.515728,1776.494261,3256.906145,12410.747068
77.516037,740.205942,6365.771101,7584.345430
77.516347,1406.391290,9696.697840,-4596.572988
77.516656,-2294.638420,13767.830521,-15168.690860
77.516966,-4589.276840,16580.613101,-13713.109414
77.517275,-1702.473667,16580.613101,-17466.977354
77.517585,592.164754,12657.521608,-15628.348159
77.517894,-370.102971,7031.956449,1072.533697
77.518204,2960.823768,2590.720797,15858.176809
77.518513,1554.432478,518.144159,15858.176809
77.518823,814.226536,1628.453072,14096.157163
77.519132,3256.906145,5625.565159,5056.230287
77.519442,2072.576638,9474.636058,-7890.783629
77.519751,-2960.823768,15100.201217,-14096.157163
77.520061,-6069.688724,16210.510130,-12027.699319
77.520370,-1036.288319,16506.592507,-14325.985813
77.520680,2516.700203,12953.603985,-13713.109414
77.520989,-2590.720797,9326.594869,2451.505594
77.521299,-888.247130,4885.359217,15858.176809
77.521608,-0.000000,2516.700203,15398.519510
77.521918,2590.720797,4811.338623,10342.289223
77.522227,2738.761985,9030.512492,3217.601092
77.522537,-888.247130,13619.789333,-3983.696590
77.522846,-3108.864956,16580.613101,-11568.042020
77.523156,-3775.050304,17098.757260,-14096.157163
77.523465,-148.041188,15174.221811,-16317.834107
77.523775,-0.000000,11251.130318,-9652.803275
77.524084,-74.020594,7402.059420,3447.429741
77.524394,-1258.350101,1924.535449,15475.129060
77.524703,2368.659014,1924.535449,14096.157163
77.525012,2146.597232,3330.926739,8120.612279
77.525322,1184.329507,6365.771101,5898.935335
77.525631,592.164754,10436.903782,-6588.421283
77.525941,-3256.906145,13101.645173,-10955.165621
77.526250,-4515.256246,15692.365970,-10955.165621
77.526560,-666.185348,14359.995275,-13330.061665
77.526869,2960.823768,9844.739029,-9422.974625
77.527179,1036.288319,7254.018232,3140.991542
77.527488,-0.000000,4515.256246,13789.718964
77.527798,-370.102971,5181.441594,13176.842566
77.528107,4441.235652,5995.668130,11261.603821
77.528417,2590.720797,9400.615463,229.828649
77.528726,-0.000000,12657.521608,-6971.469032
77.529036,-3330.926739,15840.407159,-10572.117872
77.529345,-2960.823768,15618.345376,-12334.137518
77.529655,-2368.659014,16210.510130,-12257.527968
77.529964,1480.411884,9992.780217,-8197.221829
77.530274,888.247130,5625.565159,4519.963438
77.530583,888.247130,2146.597232,13406.671215
77.530893,-0.000000,2738.761985,16164.615008
77.531202,2146.597232,6587.832884,8427.050478
77.531512,3775.050304,7476.080014,-1915.238745
77.531821,222.061783,10436.903782,-8810.098227
77.532131,-3775.050304,13915.871710,-9499.584175
77.532440,-2072.576638,15100.201217,-12257.527968
77.532750,-0.000000,13693.809927,-14019.547613
77.533059,1850.514855,11103.089130,-7277.907231
77.533368,-888.247130,6069.688724,5898.935335
77.533678,-666.185348,4515.256246,13713.109414
77.533987,2368.659014,5255.462188,14555.814462
77.534297,2442.679609,6661.853478,5898.935335
77.534606,2294.638420,9918.759623,-2068.457845
77.534916,370.102971,12065.356855,-7277.907231
77.535225,-4737.318029,13767.830521,-9269.755526
77.535535,-3478.967927,14359.995275,-11414.822920
77.535844,518.144159,12361.439231,-13636.499864
77.536154,888.247130,9400.615463,-5592.497135
77.536463,-0.000000,4811.338623,6741.640382
77.536773,-1110.308913,2812.782580,13713.109414
77.537082,1480.411884,4737.318029,12180.918418
77.537392,3256.906145,6587.832884,6052.154434
77.537701,1184.329507,9474.636058,-612.876398
77.538011,518.144159,11991.336260,-6971.469032
77.538320,-1332.370696,13323.706956,-9116.536426
77.538630,-4219.173869,15692.365970,-10725.336972
77.538939,-814.226536,13101.645173,-10418.898773
77.539249,1628.453072,11547.212695,-5056.230287
77.539558,1480.411884,6587.832884,2987.772442
77.539868,-1184.329507,5403.503377,12870.404366
77.540177,-370.102971,6365.771101,10572.117872
77.540487,2590.720797,7328.038826,2221.676944
77.540796,2812.782580,9770.718434,-3447.429741
77.541106,-444.123565,10288.862594,-7124.688131
77.541415,-4959.379811,12139.377449,-8120.612279
77.541725,-2738.761985,12805.562797,-8810.098227
77.542034,-74.020594,11547.212695,-9882.631924
77.542343,2220.617826,7772.162391,-6435.202183
77.542653,-0.000000,3997.112087,5362.668486
77.542962,-666.185348,3182.885551,12717.185267
77.543272,2368.659014,3997.112087,9806.022374
77.543581,2812.782580,8734.430116,2911.162892
77.543891,1628.453072,9770.718434,-3830.477490
77.544200,-1406.391290,11547.212695,-6358.592633
77.544510,-2442.679609,13915.871710,-8197.221829
77.544819,-2664.741391,14730.098246,-11568.042020
77.545129,-0.000000,13397.727550,-11338.213370
77.545438,2738.761985,10658.965565,-2604.724693
77.545748,-444.123565,6957.935855,6511.811733
77.546057,-740.205942,6809.894666,11031.775171
77.546367,2368.659014,6291.750507,8197.221829
77.546676,1702.473667,8512.368333,-1608.800546
77.546986,962.267725,9474.636058,-1915.238745
77.547295,-1184.329507,10881.027347,-5439.278036
77.547605,-3330.926739,12509.480420,-7890.783629
77.547914,-2960.823768,12213.398043,-10189.070123
77.548224,-1776.494261,11473.192101,-11797.870669
77.548533,1036.288319,8068.244768,-4749.792088
77.548843,962.267725,5255.462188,4596.572988
77.549152,-814.226536,4145.153275,11184.994271
77.549462,370.102971,4071.132681,11184.994271
77.549771,2516.700203,7920.203579,2528.115143
77.550081,1406.391290,9252.574275,-2528.115143
77.550390,-1998.556043,11991.336260,-5362.668486
77.550699,-2664.741391,12509.480420,-7737.564530
77.551009,-1110.308913,14063.912898,-10418.898773
77.551318,-0.000000,13619.789333,-10955.165621
77.551628,592.164754,9770.718434,-2451.505594
77.551937,-0.000000,6883.915261,5286.058936
77.552247,-0.000000,5847.626942,9806.022374
77.552556,1998.556043,5403.503377,10035.851024
77.552866,1850.514855,7105.977043,4290.134789
77.553175,2294.638420,10214.842000,-1991.848295
77.553485,-1332.370696,11695.253884,-4596.572988
77.553794,-2812.782580,14211.954086,-6588.421283
77.554104,-1406.391290,14063.912898,-11414.822920
77.554413,592.164754,12509.480420,-11184.994271
77.554723,1628.453072,10288.862594,-3600.648841
77.555032,444.123565,7328.038826,5209.449386
77.555342,-1850.514855,6735.874072,12717.185267
77.555651,444.123565,5255.462188,10495.508323
77.555961,1850.514855,7402.059420,3677.258390
77.556270,2960.823768,7846.182985,-3447.429741
77.556580,-1554.432478,9400.615463,-5515.887586
77.556889,-4145.153275,14211.954086,-7277.907231
77.557199,-1776.494261,13397.727550,-11261.603821
77.557508,1184.329507,13693.809927,-12027.699319
77.557818,518.144159,10510.924376,-3064.381992
77.558127,-1406.391290,6809.894666,7354.516781
77.558437,888.247130,5329.482782,9576.193725
77.558746,1406.391290,6883.915261,7048.078582
77.559056,2368.659014,8808.450710,4213.525239
77.559365,1628.453072,8438.347739,-1915.238745
77.559675,-2664.741391,10436.903782,-4903.011187
77.559984,-3775.050304,14137.933492,-7584.345430
77.560294,-1850.514855,14137.933492,-10725.336972
77.560603,814.226536,13471.748144,-12257.527968
77.560913,1554.432478,9696.697840,-1532.190996
77.561222,-444.123565,6291.750507,6052.154434
77.561531,666.185348,4145.153275,10572.117872
77.561841,1406.391290,5847.626942,9576.193725
77.562150,3108.864956,6217.729913,4903.011187
77.562460,2812.782580,6513.812290,-612.876398
77.562769,-1332.370696,9992.780217,-5362.668486
77.563079,-4663.297435,13175.665768,-7660.954980
77.563388,-814.226536,15470.304188,-13559.890315
77.563698,814.226536,13249.686362,-13559.890315
77.564007,222.061783,11399.171507,-3983.696590
77.564317,-666.185348,7476.080014,7354.516781
77.564626,-74.020594,4663.297435,10035.851024
77.564936,1850.514855,5921.647536,9039.926876
77.565245,1702.473667,9474.636058,7584.345430
77.565555,592.164754,9474.636058,-2145.067394
77.565864,-2590.720797,11029.068536,-5515.887586
77.566174,-3256.906145,14211.954086,-10035.851024
77.566483,-814.226536,14063.912898,-15092.081311
77.566793,1110.308913,11473.192101,-11338.213370
77.567102,1628.453072,9030.512492,-2145.067394
77.567412,296.082377,3923.091493,8120.612279
77.567721,1110.308913,3701.029710,12947.013916
77.568031,1036.288319,3849.070898,11338.213370
77.568340,3404.947333,6217.729913,5669.106685
77.568650,1998.556043,7254.018232,-2757.943793
77.568959,-1702.473667,11399.171507,-6971.469032
77.569269,-2960.823768,16210.510130,-10495.508323
77.569578,-1850.514855,16876.695478,-16164.615008
77.569888,1258.350101,15692.365970,-13023.623466
77.570197,-296.082377,11917.315666,-1149.143247
77.570507,-444.123565,7698.141797,8656.879127
77.570816,-0.000000,4589.276840,11031.775171
77.571126,1702.473667,6809.894666,9806.022374
77.571435,2516.700203,5329.482782,4903.011187
77.571745,814.226536,8290.306550,-2911.162892
77.572054,-2368.659014,11917.315666,-7124.688131
77.572364,-4737.318029,13471.748144,-10572.117872
77.572673,-444.123565,14804.118840,-15781.567259
77.572982,962.267725,10807.006753,-13330.061665
77.573292,1332.370696,7031.956449,-536.266849
77.573601,-1036.288319,2590.720797,10955.165621
77.573911,-1110.308913,1110.308913,14172.766713
77.574220,666.185348,3404.947333,12410.747068
77.574530,2960.823768,6143.709319,4749.792088
77.574839,2220.617826,10955.047942,-6205.373534
77.575149,-2368.659014,13693.809927,-10035.851024
77.575458,-3330.926739,17542.880825,-10648.727422
77.575768,-1924.535449,17024.736666,-15092.081311
77.576077,1702.473667,14878.139434,-12180.918418
77.576387,1184.329507,9844.739029,459.657299
77.576696,1998.556043,2442.679609,12947.013916
77.577006,1258.350101,2294.638420,14938.862211
77.577315,1184.329507,3701.029710,14096.157163
77.577625,2664.741391,6291.750507,5132.839837
77.577934,888.247130,9548.656652,-4826.401637
77.578244,-2590.720797,14063.912898,-11108.384721
77.578553,-4737.318029,16210.510130,-14249.376263
77.578863,-296.082377,15692.365970,-18999.168350
77.579172,-0.000000,12065.356855,-13176.842566
77.579482,1184.329507,8216.285956,2451.505594
77.579791,518.144159,2738.761985,12257.527968
77.580101,1110.308913,1924.535449,16164.615008
77.580410,1480.411884,2590.720797,15245.300410
77.580720,1406.391290,4071.132681,5132.839837
77.581029,2812.782580,8586.388927,-7584.345430
77.581339,-2072.576638,11991.336260,-12717.185267
77.581648,-5921.647536,16802.674883,-13406.671215
77.581958,-888.247130,17616.901420,-15168.690860
77.582267,888.247130,13693.809927,-12180.918418
77.582577,1480.411884,10658.965565,1072.533697
77.582886,-740.205942,3997.112087,14096.157163
77.583196,666.185348,4145.153275,15781.567259
77.583505,2590.720797,4663.297435,11261.603821
77.583814,1406.391290,5995.668130,8427.050478
77.584124,-888.247130,11251.130318,-3447.429741
77.584433,-3108.864956,16580.613101,-12257.527968
77.584743,-2146.597232,16284.530724,-17160.539155
77.585052,-0.000000,16358.551318,-17696.806004
77.585362,1554.432478,12139.377449,-8120.612279
77.585671,296.082377,5551.544565,4060.306139
77.585981,518.144159,2442.679609,15168.690860
77.586290,814.226536,148.041188,17007.320056
77.586600,-74.020594,2072.576638,13483.280765
77.586909,1850.514855,4959.379811,3217.601092
77.587219,1480.411884,9622.677246,-7660.954980
77.587528,-2812.782580,14878.139434,-12104.308868
77.587838,-3997.112087,17394.839637,-12947.013916
77.588147,-666.185348,16580.613101,-15475.129060
77.588457,1332.370696,13545.768739,-10035.851024
77.588766,-0.000000,8364.327145,4366.744339
77.589076,-814.226536,5773.606348,13789.718964
77.589385,1702.473667,2960.823768,13176.842566
77.589695,1258.350101,6291.750507,10265.679673
77.590004,1480.411884,10140.821405,2451.505594
77.590314,-222.061783,10955.047942,-7890.783629
77.590623,-3330.926739,14434.015869,-14479.204912
77.590933,-2960.823768,15396.283594,-16854.100956
77.591242,370.102971,13767.830521,-15475.129060
77.591552,1554.432478,9918.759623,-9729.412825
77.591861,3034.844362,4219.173869,5209.449386
77.592171,296.082377,-592.164754,17160.539155
77.592480,1998.556043,2368.659014,17926.634653
77.592790,2146.597232,3923.091493,11951.089769
77.593099,2442.679609,7698.141797,-536.266849
77.593409,1776.494261,12657.521608,-12487.356617
77.593718,-4737.318029,16358.551318,-14479.204912
77.594028,-5329.482782,18801.230927,-14019.547613
77.594337,-592.164754,17098.757260,-15934.786358
77.594646,1332.370696,12509.480420,-9193.145976
77.594956,296.082377,8808.450710,6741.640382
77.595265,1924.535449,4367.215058,17237.148705
77.595575,2516.700203,1480.411884,14862.252661
77.595884,1406.391290,4145.153275,9806.022374
77.596194,1036.288319,7846.182985,1225.752797
77.596503,-1924.535449,11251.130318,-9882.631924
77.596813,-2220.617826,12731.542202,-15321.909960
77.597122,-3478.967927,14656.077652,-16164.615008
77.597432,296.082377,13471.748144,-15398.519510
77.597741,1110.308913,9918.759623,-5592.497135
77.598051,-444.123565,4663.297435,7584.345430
77.598360,-148.041188,296.082377,18003.244203
77.598670,1628.453072,1036.288319,16241.224558
77.598979,3330.926739,5921.647536,7660.954980
77.599289,3108.864956,9326.594869,-3907.087040
77.599598,-1998.556043,14211.954086,-14249.376263
77.599908,-3923.091493,17024.736666,-11797.870669
77.600217,-3182.885551,18727.210333,-13713.109414
77.600527,1184.329507,16210.510130,-14402.595362
77.600836,444.123565,12213.398043,-3600.648841
77.601146,-1702.473667,5403.503377,10265.679673
77.601455,296.082377,2812.782580,15551.738609
77.601765,1998.556043,3775.050304,11338.213370
77.602074,1480.411884,7328.038826,5822.325785
77.602384,2516.700203,9252.574275,-3294.210641
77.602693,-2294.638420,11991.336260,-10265.679673
77.603003,-3701.029710,14878.139434,-12947.013916
77.603312,-2886.803174,15026.180623,-13406.671215
77.603622,1332.370696,11769.274478,-13253.452115
77.603931,2442.679609,8142.265362,-3753.867940
77.604241,-370.102971,2960.823768,11108.384721
77.604550,962.267725,1406.391290,16241.224558
77.604860,370.102971,2516.700203,12947.013916
77.605169,1036.288319,8216.285956,3524.039291
77.605478,2664.741391,9326.594869,-5286.058936
77.605788,-814.226536,13619.789333,-12947.013916
77.606097,-4959.379811,16654.633695,-11721.261119
77.606407,-3552.988522,16802.674883,-11797.870669
77.606716,1924.535449,13767.830521,-12027.699319
77.607026,2220.617826,11029.068536,-3370.820191
77.607335,-0.000000,4959.379811,11108.384721
77.607645,148.041188,3330.926739,14709.033562
77.607954,1628.453072,5773.606348,10801.946522
77.608264,666.185348,9992.780217,4903.011187
77.608573,1332.370696,9918.759623,-4443.353888
77.608883,-1332.370696,12953.603985,-11338.213370
77.609192,-3701.029710,14878.139434,-13253.452115
77.609502,-4367.215058,13249.686362,-13100.233016
77.609811,1258.350101,11029.068536,-11184.994271
77.610121,2072.576638,5847.626942,-1532.190996
77.610430,-0.000000,2886.803174,10725.336972
77.610740,-0.000000,1924.535449,15475.129060
77.611049,2072.576638,2368.659014,10725.336972
77.611359,2664.741391,8660.409521,2298.286494
77.611668,2960.823768,10362.883188,-7507.735880
77.611978,-1406.391290,11769.274478,-11031.775171
77.612287,-4441.235652,16210.510130,-8273.831378
77.612597,-2368.659014,15174.221811,-10495.508323
77.612906,296.082377,12509.480420,-9806.022374
77.613216,2146.597232,9992.780217,0.000000
77.613525,444.123565,4589.276840,9959.241474
77.613835,1184.329507,3923.091493,10035.851024
77.614144,2072.576638,6291.750507,7967.393179
77.614454,-296.082377,9548.656652,3907.087040
77.614763,1332.370696,11843.295072,-2987.772442
77.615073,-888.247130,12583.501014,-9039.926876
77.615382,-4441.235652,14582.057057,-10801.946522
77.615692,-2146.597232,14285.974681,-11491.432470
77.616001,1924.535449,10584.944971,-9193.145976
77.616310,814.226536,7179.997637,306.438199
77.616620,740.205942,5773.606348,10035.851024
77.616929,-1036.288319,3701.029710,12640.575717
77.617239,962.267725,6217.729913,6971.469032
77.617548,3404.947333,6661.853478,153.219100
77.617858,1998.556043,8734.430116,-7354.516781
77.618167,444.123565,10732.986159,-9882.631924
77.618477,-4737.318029,12657.521608,-6511.811733
77.618786,-3034.844362,14434.015869,-7814.174080
77.619096,2368.659014,11769.274478,-8350.440928
77.619405,2368.659014,6661.853478,-76.609550
77.619715,-444.123565,6661.853478,9652.803275
77.620024,1036.288319,6883.915261,10495.508323
77.620334,1554.432478,8660.409521,5286.058936
77.620643,148.041188,12361.439231,689.485948
77.620953,1184.329507,10732.986159,-6435.202183
77.621262,-1702.473667,14211.954086,-9269.755526
77.621572,-3701.029710,14656.077652,-9806.022374
77.621881,-1406.391290,14211.954086,-9806.022374
77.622191,1480.411884,9918.759623,-8273.831378
77.622500,2516.700203,6217.729913,0.000000
77.622810,-370.102971,3701.029710,10189.070123
77.623119,-444.123565,3182.885551,12410.747068
77.623429,962.267725,5921.647536,7584.345430
77.623738,4959.379811,4811.338623,-2911.162892
77.624048,2516.700203,9178.553681,-7814.174080
77.624357,-1776.494261,8734.430116,-6971.469032
77.624667,-4367.215058,14804.118840,-5439.278036
77.624976,-2442.679609,13545.768739,-8350.440928
77.625286,814.226536,13101.645173,-7277.907231
77.625595,2368.659014,9770.718434,-1072.533697
77.625905,-0.000000,5625.565159,5822.325785
77.626214,148.041188,7624.121203,8350.440928
77.626524,444.123565,10584.944971,6971.469032
77.626833,1332.370696,10881.027347,1608.800546
77.627142,518.144159,10807.006753,-3140.991542
77.627452,-2738.761985,11991.336260,-7584.345430
77.627761,-2812.782580,12139.377449,-10878.556072
77.628071,-1258.350101,12287.418637,-11261.603821
77.628380,1332.370696,9770.718434,-7277.907231
77.628690,1332.370696,5699.585753,1378.971896
77.628999,666.185348,4811.338623,9652.803275
77.629309,-888.247130,4441.235652,12104.308868
77.629618,888.247130,7846.182985,9193.145976
77.629928,2220.617826,5699.585753,612.876398
77.630237,1776.494261,9474.636058,-4826.401637
77.630547,-1998.556043,10955.047942,-6511.811733
77.630856,-5995.668130,14063.912898,-4213.525239
77.631166,-0.000000,16580.613101,-10801.946522
77.631475,962.267725,14063.912898,-7507.735880
77.631785,-148.041188,11399.171507,536.266849
77.632094,-518.144159,6883.915261,7737.564530
77.632404,666.185348,9400.615463,10112.460574
77.632713,1036.288319,7402.059420,6971.469032
77.633023,1628.453072,8956.491898,1072.533697
77.633332,-0.000000,10066.800811,-4673.182538
77.633642,-3256.906145,10214.842000,-7124.688131
77.633951,-1850.514855,13693.809927,-10189.070123
77.634261,518.144159,12509.480420,-11568.042020
77.634570,1628.453072,9622.677246,-6588.421283
77.634880,518.144159,6217.729913,2604.724693
77.635189,-0.000000,2590.720797,4903.011187
77.635499,518.144159,2590.720797,9806.022374
77.635808,1258.350101,5699.585753,6435.202183
77.636118,2664.741391,6587.832884,-995.924147
77.636427,1258.350101,9474.636058,-5362.668486
77.636737,-4293.194464,11769.274478,-9422.974625
77.637046,-4441.235652,15840.407159,-8656.879127
77.637356,-222.061783,16728.654289,-12180.918418
77.637665,1480.411884,14137.933492,-9499.584175
77.637974,666.185348,8808.450710,-459.657299
77.638284,222.061783,4885.359217,8810.098227
77.638593,-962.267725,5329.482782,11031.775171
77.638903,962.267725,7105.977043,8503.660028
77.639212,1258.350101,7328.038826,2145.067394
77.639522,518.144159,9548.656652,-3677.258390
77.639831,-2664.741391,13027.624579,-8580.269578
77.640141,-3256.906145,15322.262999,-11261.603821
77.640450,296.082377,15322.262999,-14479.204912
77.640760,1406.391290,11251.130318,-8810.098227
77.641069,740.205942,6365.771101,2681.334243
77.641379,222.061783,3478.967927,11491.432470
77.641688,-222.061783,2368.659014,12257.527968
77.641998,1480.411884,5107.421000,7967.393179
77.642307,2960.823768,6439.791695,-2145.067394
77.642617,1628.453072,7031.956449,-5898.935335
77.642926,-3552.988522,13323.706956,-7507.735880
77.643236,-3182.885551,15840.407159,-10495.508323
77.643545,-814.226536,15396.283594,-13176.842566
77.643855,2960.823768,12213.398043,-7431.126331
77.644164,518.144159,7846.182985,2604.724693
77.644474,-1110.308913,5403.503377,10648.727422
77.644783,814.226536,4811.338623,13023.623466
77.645093,1258.350101,6587.832884,8580.269578
77.645402,962.267725,8956.491898,2681.334243
77.645712,-0.000000,9622.677246,-4596.572988
77.646021,-3034.844362,14211.954086,-10189.070123
77.646331,-3627.009116,17024.736666,-13866.328514
77.646640,-2368.659014,15248.242405,-17466.977354
77.646950,1332.370696,11251.130318,-7814.174080
77.647259,1554.432478,7105.977043,4596.572988
77.647569,888.247130,2664.741391,11951.089769
77.647878,1332.370696,-0.000000,13713.109414
77.648188,2072.576638,3849.070898,9806.022374
77.648497,1480.411884,5255.462188,2911.162892
77.648807,518.144159,8068.244768,-6971.469032
77.649116,-3108.864956,13471.748144,-11184.994271
77.649425,-4071.132681,16876.695478,-12027.699319
77.649735,-222.061783,18135.045579,-15628.348159
77.650044,2738.761985,14434.015869,-10035.851024
77.650354,1702.473667,7772.162391,4290.134789
77.650663,-888.247130,4589.276840,15245.300410
77.650973,-962.267725,3775.050304,14555.814462
77.651282,1924.535449,5255.462188,10112.460574
77.651592,1776.494261,8512.368333,2221.676944
77.651901,-740.205942,11325.150913,-8120.612279
77.652211,-2664.741391,15692.365970,-15092.081311
77.652520,-2664.741391,19467.416275,-16854.100956
77.652830,-1110.308913,16062.468941,-15398.519510
77.653139,740.205942,11769.274478,-6894.859482
77.653449,740.205942,5773.606348,6741.640382
77.653758,-1184.329507,4663.297435,19075.777900
77.654067,444.123565,444.123565,16471.053207
77.654377,962.267725,2442.679609,9806.022374
77.654686,3108.864956,5551.544565,-1685.410096
77.654996,-0.000000,8882.471304,-9959.241474
77.655305,-3552.988522,15618.345376,-12257.527968
77.655615,-3997.112087,19467.416275,-14249.376263
77.655924,-666.185348,17542.880825,-16164.615008
77.656233,2368.659014,11843.295072,-9346.365076
77.656543,2146.597232,4515.256246,7660.954980
77.656852,-1332.370696,1998.556043,17083.929605
77.657162,-444.123565,2368.659014,17620.196454
77.657471,2294.638420,5921.647536,10112.460574
77.657780,1776.494261,9252.574275,-1838.629195
77.658090,-814.226536,13619.789333,-12104.308868
77.658399,-5329.482782,15914.427753,-14479.204912
77.658709,-2664.741391,19763.498651,-15704.957709
77.659018,-0.000000,16580.613101,-15628.348159
77.659327,1258.350101,10510.924376,-6052.154434
77.659637,1036.288319,4737.318029,8963.317327
77.659946,814.226536,222.061783,16241.224558
77.660256,296.082377,222.061783,17160.539155
77.660565,1036.288319,4737.318029,12180.918418
77.660875,2886.803174,8142.265362,-1838.629195
77.661184,296.082377,11399.171507,-12640.575717
77.661493,-4885.359217,15766.386565,-13559.890315
77.661803,-4145.153275,18135.045579,-16011.395908
77.662112,1332.370696,16580.613101,-17160.539155
77.662422,1406.391290,11843.295072,-7737.564530
77.662731,-0.000000,5033.400406,11797.870669
77.663040,1702.473667,2516.700203,19152.387450
77.663350,444.123565,3108.864956,16854.100956
77.663659,2442.679609,6217.729913,11031.775171
77.663969,1776.494261,8734.430116,-2298.286494
77.664278,-1258.350101,13767.830521,-13636.499864
77.664587,-4441.235652,18061.024985,-16317.834107
77.664897,-4293.194464,17098.757260,-16930.710506
77.665206,296.082377,16432.571912,-12257.527968
77.665516,1776.494261,8068.244768,-2604.724693
77.665825,592.164754,3404.947333,12793.794817
77.666135,148.041188,148.041188,19688.654299
77.666444,296.082377,2072.576638,16088.005458
77.666753,2960.823768,3034.844362,9039.926876
77.667063,2738.761985,8364.327145,-4979.620737
77.667372,-888.247130,13619.789333,-15245.300410
77.667682,-4811.338623,18061.024985,-15398.519510
77.667991,296.082377,18727.210333,-16317.834107
77.668300,1406.391290,14211.954086,-14555.814462
77.668610,2072.576638,8216.285956,-1378.971896
77.668919,1554.432478,1628.453072,14862.252661
77.669229,-1184.329507,-370.102971,19765.263848
77.669538,-2590.720797,3404.947333,13636.499864
77.669847,1924.535449,6661.853478,5515.887586
77.670157,1480.411884,12213.398043,-8120.612279
77.670466,-370.102971,16136.489536,-16394.443657
77.670776,-6143.709319,18949.272115,-16394.443657
77.671085,-3330.926739,20207.622217,-15551.738609
77.671395,1850.514855,14582.057057,-13866.328514
77.671704,1628.453072,6661.853478,153.219100
77.672013,1184.329507,2368.659014,14862.252661
77.672323,370.102971,-2664.741391,19612.044749
77.672632,-370.102971,1036.288319,16317.834107
77.672942,3256.906145,5773.606348,5898.935335
77.673251,2812.782580,9400.615463,-9806.022374
77.673560,-518.144159,13323.706956,-15704.957709
77.673870,-6883.915261,17246.798449,-12487.356617
77.674179,-1998.556043,17542.880825,-15551.738609
77.674489,2368.659014,14211.954086,-13406.671215
77.674798,3182.885551,7402.059420,1149.143247
77.675107,-222.061783,2738.761985,16547.662757
77.675417,666.185348,-370.102971,19305.606550
77.675726,-0.000000,5181.441594,14249.376263
