#time,accel_x,accel_y,accel_z
149.226226,-74.020594,9548.656652,-1302.362347
149.226536,-1036.288319,9474.636058,-1072.533697
149.226846,-0.000000,9622.677246,-1991.848295
149.227156,-0.000000,9252.574275,-1532.190996
149.227466,370.102971,9992.780217,-1455.581446
149.227776,296.082377,9178.553681,306.438199
149.228086,-0.000000,9622.677246,-919.314598
149.228395,-0.000000,8956.491898,-842.705048
149.228705,222.061783,8512.368333,-1915.238745
149.229015,296.082377,9104.533087,-1608.800546
149.229325,-0.000000,10584.944971,-2068.457845
149.229635,-0.000000,10732.986159,-689.485948
149.229945,-0.000000,9992.780217,229.828649
149.230255,-0.000000,8660.409521,-1455.581446
149.230565,-666.185348,7254.018232,-4673.182538
149.230874,-962.267725,8956.491898,-2298.286494
149.231184,-0.000000,10288.862594,0.000000
149.231494,296.082377,10807.006753,-306.438199
149.231804,-370.102971,8734.430116,-383.047749
149.232114,518.144159,8734.430116,-1991.848295
149.232424,222.061783,8438.347739,-2068.457845
149.232734,-74.020594,8290.306550,-1455.581446
149.233044,222.061783,9030.512492,0.000000
149.233353,518.144159,8882.471304,1225.752797
149.233663,1554.432478,7772.162391,766.095498
149.233973,4219.173869,6809.894666,612.876398
149.234283,2442.679609,6587.832884,5975.544884
149.234593,1554.432478,7254.018232,10725.336972
149.234903,-814.226536,4293.194464,15475.129060
149.235213,7179.997637,8882.471304,6205.373534
149.235523,4959.379811,6439.791695,2068.457845
149.235832,148.041188,9104.533087,8656.879127
149.236142,-2294.638420,11029.068536,16547.662757
149.236452,-0.000000,10510.924376,11338.213370
149.236762,3108.864956,11177.109724,3064.381992
149.237072,-888.247130,11695.253884,9576.193725
149.237382,-3849.070898,12065.356855,12640.575717
149.237692,-16432.571912,18431.127956,2987.772442
149.238002,17690.922014,16654.633695,-6052.154434
149.238311,-814.226536,5773.606348,11874.480219
149.238621,-13545.768739,8956.491898,33248.544613
149.238931,4515.256246,18579.169144,10342.289223
149.239241,-6439.791695,6661.853478,-1762.019645
149.239551,5699.585753,13619.789333,-306.438199
149.239861,-17024.736666,1036.288319,14402.595362
149.240171,1702.473667,14434.015869,2987.772442
149.240481,-296.082377,4515.256246,3677.258390
149.240790,-5625.565159,5995.668130,12257.527968
149.241100,6143.709319,5477.523971,14632.424012
149.241410,-5995.668130,-666.185348,12257.527968
149.241720,4737.318029,7772.162391,13636.499864
149.242030,-4441.235652,4737.318029,15321.909960
149.242340,1924.535449,8142.265362,1532.190996
149.242650,-3478.967927,6217.729913,5439.278036
149.242960,1776.494261,15988.448347,2298.286494
149.243269,3478.967927,10732.986159,-3983.696590
149.243579,1924.535449,12287.418637,10648.727422
149.243889,740.205942,11769.274478,24515.055936
149.244199,666.185348,2886.803174,20837.797546
149.244509,6143.709319,7772.162391,11184.994271
149.244819,-3849.070898,5329.482782,8120.612279
149.245129,1554.432478,12583.501014,4290.134789
149.245439,7105.977043,14508.036463,-5132.839837
149.245748,3627.009116,17616.901420,-1532.190996
149.246058,-2960.823768,15692.365970,14479.204912
149.246368,-9844.739029,13545.768739,19688.654299
149.246678,444.123565,11843.295072,7354.516781
149.246988,4367.215058,7846.182985,-4903.011187
149.247298,3849.070898,8216.285956,-4060.306139
149.247608,-444.123565,8512.368333,10878.556072
149.247918,-1702.473667,9844.739029,17313.758255
149.248227,148.041188,8364.327145,11414.822920
149.248537,4737.318029,5995.668130,5132.839837
149.248847,1332.370696,2368.659014,2451.505594
149.249157,-7698.141797,1554.432478,9269.755526
149.249467,-4663.297435,6883.915261,4903.011187
149.249777,5477.523971,9696.697840,-5362.668486
149.250087,6661.853478,8216.285956,-5286.058936
149.250397,-0.000000,6069.688724,13330.061665
149.250706,-8068.244768,5477.523971,24668.275036
149.251016,-370.102971,10881.027347,13253.452115
149.251326,5403.503377,11251.130318,-2834.553343
149.251636,444.123565,10362.883188,-2681.334243
149.251946,-6661.853478,13027.624579,3600.648841
149.252256,-1628.453072,13471.748144,-2298.286494
149.252566,7772.162391,15618.345376,-7048.078582
149.252876,3849.070898,11991.336260,7814.174080
149.253185,-5329.482782,7254.018232,26583.513781
149.253495,-1332.370696,4663.297435,21910.331243
149.253805,5403.503377,4293.194464,6588.421283
149.254115,222.061783,5551.544565,4903.011187
149.254425,666.185348,6957.935855,6128.763984
149.254735,4515.256246,5181.441594,-2145.067394
149.255045,-0.000000,7920.203579,3830.477490
149.255355,-7402.059420,-1702.473667,18156.463303
149.255664,-8882.471304,17542.880825,14632.424012
149.255974,14952.160028,15470.304188,10725.336972
149.256284,-19837.519246,8364.327145,12487.356617
149.256594,11621.233289,19615.457463,3294.210641
149.256904,1554.432478,1480.411884,-11874.480219
149.257214,740.205942,14359.995275,3600.648841
149.257524,-9844.739029,11843.295072,30643.819920
149.257834,1924.535449,14804.118840,12870.404366
149.258143,222.061783,9104.533087,1378.971896
149.258453,-10881.027347,11325.150913,16241.224558
149.258763,6587.832884,12509.480420,7814.174080
149.259073,1554.432478,6587.832884,-11261.603821
149.259383,740.205942,15396.283594,2911.162892
149.259693,-4959.379811,11991.336260,21450.673944
149.260003,1554.432478,14582.057057,4596.572988
149.260313,6291.750507,9844.739029,1378.971896
149.260622,-4589.276840,11917.315666,16854.100956
149.260932,-740.205942,9770.718434,21220.845295
149.261242,3627.009116,1036.288319,6894.859482
149.261552,3034.844362,5699.585753,10265.679673
149.261862,-1406.391290,1628.453072,15092.081311
149.262172,6883.915261,7698.141797,612.876398
149.262482,592.164754,9918.759623,8197.221829
149.262792,-7031.956449,11843.295072,20914.407095
149.263101,3108.864956,12361.439231,9806.022374
149.263411,2664.741391,9252.574275,1225.752797
149.263721,-2442.679609,4885.359217,7660.954980
149.264031,-11547.212695,7476.080014,15781.567259
149.264341,-740.205942,13397.727550,7660.954980
149.264651,-0.000000,14211.954086,1915.238745
149.264961,4367.215058,14285.974681,4596.572988
149.265271,296.082377,15692.365970,11797.870669
149.265580,-4737.318029,12657.521608,8427.050478
149.265890,-1702.473667,14434.015869,6435.202183
149.266200,-1480.411884,8364.327145,3753.867940
149.266510,3404.947333,6661.853478,-689.485948
149.266820,-5107.421000,7994.224174,3370.820191
149.267130,-74.020594,7920.203579,10725.336972
149.267440,444.123565,6957.935855,10342.289223
149.267750,5181.441594,3108.864956,8733.488677
149.268059,1184.329507,5255.462188,12257.527968
149.268369,-8660.409521,1406.391290,14862.252661
149.268679,5033.400406,7550.100608,2604.724693
149.268989,7031.956449,7846.182985,-5439.278036
149.269299,1184.329507,9622.677246,4060.306139
149.269609,-2368.659014,13841.851115,16471.053207
149.269919,3330.926739,7254.018232,15475.129060
149.270229,6809.894666,11769.274478,7967.393179
149.270538,-5181.441594,4071.132681,13483.280765
149.270848,-1702.473667,9992.780217,11184.994271
149.271158,222.061783,11399.171507,-5132.839837
149.271468,5403.503377,16210.510130,-13406.671215
149.271778,-962.267725,13397.727550,3600.648841
149.272088,-2220.617826,15840.407159,22216.769442
149.272398,6661.853478,9918.759623,9882.631924
149.272708,6883.915261,9622.677246,5975.544884
149.273017,-4219.173869,6587.832884,16088.005458
149.273327,-3849.070898,5403.503377,13713.109414
149.273637,10140.821405,3256.906145,-2068.457845
149.273947,4071.132681,7994.224174,-5592.497135
149.274257,518.144159,7105.977043,7354.516781
149.274567,-4663.297435,6365.771101,15858.176809
149.274877,3552.988522,7105.977043,9806.022374
149.275187,-2664.741391,4737.318029,8427.050478
149.275496,-5329.482782,8290.306550,6818.249932
149.275806,2812.782580,9548.656652,-2298.286494
149.276116,-1480.411884,8512.368333,-4979.620737
149.276426,-3182.885551,15100.201217,689.485948
149.276736,-518.144159,16580.613101,3140.991542
149.277046,-4071.132681,13989.892304,2757.943793
149.277356,-12583.501014,14804.118840,11568.042020
149.277666,-1332.370696,18505.148550,4979.620737
149.277975,4737.318029,13619.789333,-16241.224558
149.278285,-3849.070898,9770.718434,-6665.030833
149.278595,-296.082377,9696.697840,10342.289223
149.278905,5107.421000,3330.926739,1762.019645
149.279215,2886.803174,3108.864956,4903.011187
149.279525,-7105.977043,1628.453072,22369.988542
149.279835,-2590.720797,666.185348,12487.356617
149.280145,10436.903782,2738.761985,-11721.261119
149.280454,-74.020594,3552.988522,-4749.792088
149.280764,74.020594,7698.141797,10265.679673
149.281074,3478.967927,6365.771101,5898.935335
149.281383,-1036.288319,7328.038826,7354.516781
149.281693,-1332.370696,16062.468941,13483.280765
149.282002,-74.020594,10066.800811,-2987.772442
149.282312,2738.761985,14730.098246,-15704.957709
149.282621,370.102971,22428.240043,-4903.011187
149.282931,-1036.288319,17838.963202,2068.457845
149.283240,1406.391290,15322.262999,842.705048
149.283550,-6587.832884,13397.727550,9806.022374
149.283859,4441.235652,11325.150913,2374.896044
149.284169,5329.482782,7402.059420,-6511.811733
149.284478,-814.226536,9104.533087,995.924147
149.284788,1776.494261,13397.727550,9806.022374
149.285097,7254.018232,4885.359217,2298.286494
149.285407,3552.988522,3775.050304,-2911.162892
149.285716,-9696.697840,3034.844362,8197.221829
149.286026,-7994.224174,6291.750507,5822.325785
149.286335,1554.432478,7105.977043,-13406.671215
149.286645,2072.576638,14582.057057,-12410.747068
149.286954,-518.144159,14359.995275,3064.381992
149.287264,-296.082377,9474.636058,3983.696590
149.287573,-3108.864956,6957.935855,2757.943793
149.287883,-5329.482782,444.123565,6971.469032
149.288192,2590.720797,5699.585753,-3524.039291
149.288502,3182.885551,9844.739029,-10648.727422
149.288811,-7328.038826,11177.109724,-612.876398
149.289121,-0.000000,13175.665768,3064.381992
149.289430,3182.885551,4219.173869,-2757.943793
149.289740,962.267725,4515.256246,0.000000
149.290049,-5921.647536,5033.400406,6588.421283
149.290359,-592.164754,4367.215058,153.219100
149.290668,7402.059420,6809.894666,-7660.954980
149.290978,2960.823768,12213.398043,1762.019645
149.291287,6217.729913,12139.377449,11951.089769
149.291597,-1554.432478,11621.233289,10955.165621
149.291906,-3849.070898,12435.459826,2374.896044
149.292216,4071.132681,12509.480420,-7431.126331
149.292525,2072.576638,16506.592507,-14172.766713
149.292835,1036.288319,19689.478057,-9269.755526
149.293144,2072.576638,19615.457463,0.000000
149.293454,-0.000000,7031.956449,2145.067394
149.293763,-7328.038826,9178.553681,9116.536426
149.294073,-5329.482782,6735.874072,8963.317327
149.294382,5255.462188,-0.000000,-9882.631924
149.294692,-2294.638420,9030.512492,-14172.766713
149.295001,962.267725,14063.912898,1455.581446
149.295311,5033.400406,6365.771101,842.705048
149.295620,-0.000000,4959.379811,-3907.087040
149.295930,-10362.883188,-1702.473667,17160.539155
149.296239,-6661.853478,1480.411884,13866.328514
149.296549,1554.432478,7846.182985,-13789.718964
149.296858,-1406.391290,13027.624579,-16930.710506
149.297168,-444.123565,20651.745782,-7124.688131
149.297477,-2738.761985,9992.780217,-9959.241474
149.297787,-3108.864956,7254.018232,-3370.820191
149.298096,-5699.585753,11695.253884,9422.974625
149.298406,888.247130,3330.926739,0.000000
149.298715,4663.297435,6439.791695,-8427.050478
149.299025,-2072.576638,9696.697840,5822.325785
149.299334,2960.823768,7105.977043,8656.879127
149.299644,6365.771101,7179.997637,-8733.488677
149.299953,-3034.844362,4737.318029,-995.924147
149.300263,592.164754,6069.688724,8044.002729
149.300572,1184.329507,10732.986159,-9499.584175
149.300882,-4515.256246,9030.512492,-6511.811733
149.301191,8290.306550,16876.695478,3830.477490
149.301501,-3108.864956,11325.150913,-995.924147
149.301810,-3034.844362,10214.842000,-5209.449386
149.302120,-6143.709319,17616.901420,4979.620737
149.302429,1924.535449,13249.686362,-8580.269578
149.302739,10955.047942,15544.324782,-21910.331243
149.303048,296.082377,18431.127956,689.485948
149.303358,-4293.194464,13915.871710,18233.072852
149.303667,5329.482782,4145.153275,1455.581446
149.303977,-1850.514855,1998.556043,-1685.410096
149.304286,-1850.514855,2812.782580,6435.202183
149.304596,5699.585753,3627.009116,-11414.822920
149.304905,3108.864956,5699.585753,-13789.718964
149.305215,-5255.462188,11695.253884,13789.718964
149.305524,-2812.782580,12879.583391,11874.480219
149.305834,-888.247130,4811.338623,-10418.898773
149.306143,-1110.308913,8808.450710,-5515.887586
149.306453,-4959.379811,3627.009116,4213.525239
149.306762,2886.803174,17394.839637,-13789.718964
149.307072,3627.009116,14285.974681,-7124.688131
149.307381,2294.638420,13693.809927,8120.612279
149.307691,1036.288319,9104.533087,2911.162892
149.308000,-6291.750507,4663.297435,3217.601092
149.308310,-3552.988522,9400.615463,6741.640382
149.308619,3849.070898,5625.565159,-8810.098227
149.308929,6957.935855,11251.130318,-16854.100956
149.309238,3330.926739,8734.430116,-1378.971896
149.309548,-5551.544565,11325.150913,5975.544884
149.309857,-1480.411884,3034.844362,1149.143247
149.310167,3404.947333,6957.935855,4519.963438
149.310476,2294.638420,8734.430116,4136.915689
149.310786,-2072.576638,9104.533087,766.095498
149.311095,5995.668130,18949.272115,-3294.210641
149.311405,-2220.617826,6217.729913,-3524.039291
149.311714,3923.091493,14359.995275,-6281.983084
149.312024,-5847.626942,10955.047942,1991.848295
149.312333,-5329.482782,12065.356855,4443.353888
149.312643,370.102971,17764.942608,-8427.050478
149.312952,-4219.173869,12361.439231,-5745.716235
149.313262,4737.318029,17246.798449,-4519.963438
149.313571,-2960.823768,6587.832884,-10572.117872
149.313881,-3775.050304,5921.647536,-4673.182538
149.314190,148.041188,1628.453072,2068.457845
149.314500,2664.741391,-0.000000,-459.657299
149.314809,-148.041188,4885.359217,7660.954980
149.315119,-1998.556043,7550.100608,11874.480219
149.315428,8142.265362,4811.338623,-3753.867940
149.315738,-370.102971,8660.409521,-9959.241474
149.316047,-5773.606348,7994.224174,6358.592633
149.316357,-5181.441594,7328.038826,5132.839837
149.316666,2590.720797,13989.892304,-19382.216099
149.316976,-0.000000,17320.819043,-11184.994271
149.317285,-6661.853478,16210.510130,3524.039291
149.317595,4367.215058,16950.716072,-7660.954980
149.317904,962.267725,9400.615463,-9039.926876
149.318214,-666.185348,9030.512492,11491.432470
149.318523,-5773.606348,8364.327145,7431.126331
149.318833,7105.977043,4811.338623,-11338.213370
149.319142,12657.521608,9992.780217,-6741.640382
149.319452,-4145.153275,8882.471304,1149.143247
149.319761,-370.102971,8882.471304,-306.438199
149.320071,2442.679609,8882.471304,0.000000
149.320380,3997.112087,1554.432478,-1225.752797
149.320690,2072.576638,7476.080014,-1838.629195
149.320999,-8364.327145,5329.482782,10801.946522
149.321309,-2516.700203,8512.368333,7507.735880
149.321618,6069.688724,19023.292709,-15168.690860
149.321928,1998.556043,13175.665768,-19152.387450
149.322237,-3627.009116,12287.418637,-2681.334243
149.322547,-7846.182985,17172.777854,0.000000
149.322856,592.164754,14359.995275,-7048.078582
149.323166,6661.853478,11843.295072,-229.828649
149.323475,-4959.379811,7179.997637,7967.393179
149.323785,-10510.924376,1406.391290,8197.221829
149.324094,4663.297435,8586.388927,-2451.505594
149.324404,6365.771101,592.164754,-18922.558801
149.324713,2368.659014,4885.359217,-10725.336972
149.325023,1924.535449,10732.986159,7201.297681
149.325332,-1924.535449,4589.276840,9039.926876
149.325642,-814.226536,10584.944971,4060.306139
149.325951,-2220.617826,5181.441594,8503.660028
149.326261,1850.514855,6513.812290,-2451.505594
149.326570,8512.368333,15544.324782,-17007.320056
149.326880,-888.247130,11843.295072,-2068.457845
149.327189,-2590.720797,17838.963202,12410.747068
149.327499,1924.535449,15322.262999,612.876398
149.327808,-1998.556043,12953.603985,-10418.898773
149.328118,-1628.453072,16284.530724,-1302.362347
149.328427,-1332.370696,12657.521608,-7431.126331
149.328737,740.205942,10658.965565,-8044.002729
149.329046,3849.070898,14211.954086,6205.373534
149.329356,1924.535449,888.247130,2987.772442
149.329665,3627.009116,1036.288319,1532.190996
149.329975,-7254.018232,2812.782580,17620.196454
149.330284,-0.000000,6957.935855,4903.011187
149.330594,5033.400406,10658.965565,-15475.129060
149.330903,-1110.308913,10955.047942,-7507.735880
149.331213,-6809.894666,8290.306550,-766.095498
149.331522,-2738.761985,8660.409521,-6741.640382
149.331832,-888.247130,9252.574275,-5822.325785
149.332141,-0.000000,12139.377449,-612.876398
149.332451,2072.576638,7920.203579,-3370.820191
149.332760,-4293.194464,11917.315666,1685.410096
149.333070,-2220.617826,14804.118840,7507.735880
149.333379,4589.276840,6217.729913,-3830.477490
149.333689,4589.276840,4885.359217,-13406.671215
149.333998,-7031.956449,8660.409521,3600.648841
149.334308,-2220.617826,7772.162391,4979.620737
149.334617,1924.535449,9030.512492,-9882.631924
149.334927,1702.473667,12065.356855,-2374.896044
149.335236,-3182.885551,14804.118840,6358.592633
149.335546,-3552.988522,6957.935855,-2298.286494
149.335855,1110.308913,7994.224174,-7124.688131
149.336165,7772.162391,14211.954086,-4903.011187
149.336474,296.082377,7624.121203,-4366.744339
149.336784,222.061783,9474.636058,1225.752797
149.337093,-1480.411884,16654.633695,7048.078582
149.337403,2368.659014,7920.203579,-2298.286494
149.337712,4071.132681,9622.677246,-8044.002729
149.338022,-7105.977043,9696.697840,5439.278036
149.338331,-1184.329507,8068.244768,-383.047749
149.338641,8364.327145,10140.821405,-17313.758255
149.338950,-2738.761985,9918.759623,-8733.488677
149.339260,-4515.256246,11917.315666,9729.412825
149.339569,-2516.700203,8660.409521,-842.705048
149.339879,-1184.329507,4589.276840,-8427.050478
149.340188,3775.050304,5847.626942,-766.095498
149.340498,1480.411884,2072.576638,-306.438199
149.340807,2516.700203,5403.503377,-612.876398
149.341117,2220.617826,10955.047942,11031.775171
149.341426,-3034.844362,5181.441594,9116.536426
149.341736,962.267725,7698.141797,-5669.106685
149.342045,-3849.070898,11695.253884,-4366.744339
149.342355,-2960.823768,16062.468941,-10035.851024
149.342664,962.267725,18727.210333,-19688.654299
149.342974,888.247130,13545.768739,-8733.488677
149.343283,1998.556043,14063.912898,76.609550
149.343593,-4515.256246,4737.318029,3064.381992
149.343902,-5477.523971,5403.503377,10418.898773
149.344212,3849.070898,8068.244768,383.047749
149.344521,7402.059420,3404.947333,-14249.376263
149.344831,5477.523971,11029.068536,-8350.440928
149.345140,1850.514855,9178.553681,7507.735880
149.345450,2738.761985,6069.688724,2528.115143
149.345759,1406.391290,9178.553681,459.657299
149.346069,-5107.421000,8512.368333,5132.839837
149.346378,-0.000000,4219.173869,-7124.688131
149.346688,4737.318029,14730.098246,-12257.527968
149.346997,-2812.782580,14137.933492,-995.924147
149.347307,-1998.556043,11547.212695,3217.601092
149.347617,-4145.153275,15840.407159,-5515.887586
149.347926,-1924.535449,8142.265362,-4749.792088
149.348236,740.205942,13693.809927,-2834.553343
149.348545,-370.102971,11251.130318,-8044.002729
149.348855,-1628.453072,9474.636058,2068.457845
149.349164,5033.400406,10807.006753,8580.269578
149.349474,1480.411884,-1036.288319,-1455.581446
149.349783,-4293.194464,1924.535449,4366.744339
149.350093,-7402.059420,7105.977043,10648.727422
149.350402,-1850.514855,-0.000000,-7737.564530
149.350712,4811.338623,16136.489536,-17773.415554
149.351021,-814.226536,20133.601622,-7737.564530
149.351331,-2960.823768,6291.750507,-3294.210641
149.351640,-74.020594,11621.233289,-2145.067394
149.351950,-4811.338623,6217.729913,6128.763984
149.352259,666.185348,9400.615463,8273.831378
149.352569,3182.885551,13027.624579,-995.924147
149.352878,-2664.741391,12953.603985,-6128.763984
149.353188,8364.327145,15914.427753,-5669.106685
149.353497,1628.453072,7550.100608,-9959.241474
149.353807,-8882.471304,8882.471304,-1455.581446
149.354116,-1628.453072,15322.262999,3370.820191
149.354426,2072.576638,5403.503377,-10878.556072
149.354735,4885.359217,11103.089130,-14785.643111
149.355045,-518.144159,7328.038826,4826.401637
149.355354,-222.061783,3552.988522,8197.221829
149.355664,5403.503377,5847.626942,-766.095498
149.355973,3923.091493,666.185348,9039.926876
149.356283,-1776.494261,3182.885551,10265.679673
149.356592,-4737.318029,11251.130318,-6205.373534
149.356902,3627.009116,16506.592507,-11644.651570
149.357211,6957.935855,18431.127956,-11338.213370
149.357521,-5995.668130,17690.922014,-7124.688131
149.357830,-2516.700203,12583.501014,2834.553343
149.358140,4959.379811,8068.244768,-3064.381992
149.358449,-0.000000,3923.091493,-9193.145976
149.358759,-4367.215058,8290.306550,8044.002729
149.359068,-74.020594,8290.306550,4903.011187
149.359378,9326.594869,1628.453072,-11797.870669
149.359687,7402.059420,10362.883188,-5745.716235
149.359997,-8068.244768,3775.050304,12104.308868
149.360306,-5181.441594,3330.926739,9346.365076
149.360616,7402.059420,13471.748144,-8810.098227
149.360925,444.123565,6957.935855,-9499.584175
149.361235,2294.638420,9474.636058,-4213.525239
149.361544,-5773.606348,12435.459826,-2298.286494
149.361854,-3108.864956,9326.594869,-3907.087040
149.362163,5773.606348,13841.851115,-3753.867940
149.362473,-3330.926739,13767.830521,-1762.019645
149.362782,-2442.679609,12657.521608,-1149.143247
149.363092,4293.194464,16136.489536,-5209.449386
149.363401,3182.885551,9992.780217,-7967.393179
149.363711,-2368.659014,7698.141797,383.047749
149.364020,4145.153275,8290.306550,2757.943793
149.364330,3775.050304,-0.000000,-8197.221829
149.364639,-2368.659014,4737.318029,1532.190996
149.364949,-3627.009116,6143.709319,16011.395908
149.365258,4071.132681,7920.203579,-2221.676944
149.365568,5921.647536,11769.274478,-8886.707777
149.365877,-1036.288319,7550.100608,2528.115143
149.366187,-5477.523971,8438.347739,2757.943793
149.366496,-3923.091493,13027.624579,-1225.752797
149.366806,4219.173869,12139.377449,-7814.174080
149.367115,-222.061783,16432.571912,-9576.193725
149.367425,-2072.576638,13989.892304,-1225.752797
149.367734,-7031.956449,14137.933492,2068.457845
149.368044,3923.091493,10807.006753,-3907.087040
149.368353,3701.029710,5995.668130,-8656.879127
149.368663,-5551.544565,3997.112087,6205.373534
149.368972,-7179.997637,2220.617826,12487.356617
149.369282,6439.791695,7105.977043,-2834.553343
149.369591,3775.050304,4219.173869,-9422.974625
149.369901,-7476.080014,2368.659014,5745.716235
149.370210,1110.308913,9178.553681,6818.249932
149.370520,1776.494261,9178.553681,-7814.174080
149.370829,-370.102971,10140.821405,-8120.612279
149.371139,888.247130,15174.221811,-766.095498
149.371448,-2960.823768,6661.853478,2298.286494
149.371758,-1702.473667,14878.139434,-1225.752797
149.372067,1258.350101,18653.189738,-1915.238745
149.372377,-0.000000,6513.812290,-6741.640382
149.372686,444.123565,10436.903782,-919.314598
149.372996,-2664.741391,11177.109724,4136.915689
149.373305,5625.565159,9844.739029,-3447.429741
149.373615,-2886.803174,9696.697840,-4060.306139
149.373924,-7920.203579,5773.606348,5132.839837
149.374234,10658.965565,5403.503377,-1915.238745
149.374543,4885.359217,8660.409521,-12487.356617
149.374853,-3701.029710,4219.173869,1455.581446
149.375162,-4367.215058,7994.224174,15245.300410
149.375472,3552.988522,4367.215058,229.828649
149.375781,4145.153275,7698.141797,-12717.185267
149.376091,2146.597232,12435.459826,1608.800546
149.376400,-5403.503377,6069.688724,9039.926876
149.376710,1924.535449,12139.377449,153.219100
149.377019,2516.700203,17246.798449,76.609550
149.377329,1924.535449,11843.295072,-3064.381992
149.377638,-5255.462188,9622.677246,-8120.612279
149.377948,-5921.647536,14434.015869,-1302.362347
149.378257,6735.874072,11177.109724,-7814.174080
149.378567,5551.544565,10881.027347,-10189.070123
149.378876,-9474.636058,9992.780217,7660.954980
149.379186,-962.267725,4367.215058,14709.033562
149.379495,2738.761985,-1332.370696,-2221.676944
149.379805,4293.194464,5995.668130,-7967.393179
149.380114,4441.235652,10066.800811,3983.696590
149.380424,2146.597232,4219.173869,4979.620737
149.380733,3404.947333,12213.398043,-2068.457845
149.381043,1554.432478,13397.727550,5822.325785
149.381352,-1628.453072,4737.318029,5822.325785
149.381662,-1998.556043,12509.480420,-4213.525239
149.381971,-3330.926739,13693.809927,-3600.648841
149.382281,1036.288319,14359.995275,-4903.011187
149.382590,1628.453072,18949.272115,-14862.252661
149.382900,-1184.329507,9326.594869,-10035.851024
149.383209,740.205942,13767.830521,4213.525239
149.383519,-6661.853478,8512.368333,5056.230287
149.383828,-2368.659014,5773.606348,4366.744339
149.384138,10140.821405,8068.244768,2221.676944
149.384448,2368.659014,296.082377,-3447.429741
149.384757,1702.473667,6661.853478,3370.820191
149.385067,-1776.494261,5107.421000,6052.154434
149.385376,1110.308913,814.226536,-1149.143247
149.385686,2516.700203,10955.047942,-3064.381992
149.385996,-2146.597232,5255.462188,4290.134789
149.386305,-8882.471304,12879.583391,3370.820191
149.386615,2516.700203,15100.201217,-8886.707777
149.386925,-148.041188,9696.697840,-10801.946522
149.387234,296.082377,16284.530724,-2298.286494
149.387544,-4293.194464,15544.324782,689.485948
149.387853,-666.185348,12287.418637,229.828649
149.388163,6883.915261,16062.468941,-5132.839837
149.388473,1480.411884,8512.368333,-2145.067394
149.388782,-3849.070898,6957.935855,7431.126331
149.389092,814.226536,8586.388927,5822.325785
149.389401,5773.606348,1258.350101,-2757.943793
149.389711,592.164754,6069.688724,-689.485948
149.390021,-7624.121203,5181.441594,7124.688131
149.390330,-2368.659014,6809.894666,-536.266849
149.390640,8956.491898,12731.542202,-16624.272307
149.390949,-740.205942,11325.150913,-11184.994271
149.391259,-4441.235652,9992.780217,6588.421283
149.391569,-5551.544565,11103.089130,7890.783629
149.391878,962.267725,13767.830521,-3447.429741
149.392188,6513.812290,12361.439231,-2451.505594
149.392497,-1184.329507,12879.583391,229.828649
149.392807,-1998.556043,13101.645173,-4366.744339
149.393117,9474.636058,8882.471304,-5898.935335
149.393426,-1776.494261,6439.791695,459.657299
149.393736,-7402.059420,9474.636058,4903.011187
149.394045,-1554.432478,6957.935855,3907.087040
149.394355,2294.638420,3330.926739,-7507.735880
149.394665,4293.194464,7328.038826,-10342.289223
149.394974,-3256.906145,1184.329507,1378.971896
149.395284,-0.000000,2442.679609,6818.249932
149.395593,4367.215058,7624.121203,459.657299
149.395903,1406.391290,6809.894666,2987.772442
149.396213,-3997.112087,9400.615463,16317.834107
149.396522,-3478.967927,13397.727550,4443.353888
149.396832,3404.947333,16580.613101,-12563.966167
149.397141,5255.462188,19689.478057,-13559.890315
149.397451,-3108.864956,11547.212695,-6052.154434
149.397761,-8142.265362,12879.583391,-1532.190996
149.398070,3849.070898,14730.098246,-2221.676944
149.398380,1850.514855,4959.379811,-2834.553343
149.398690,-518.144159,7254.018232,3907.087040
149.398999,-2516.700203,6883.915261,10648.727422
149.399309,5699.585753,-296.082377,-1149.143247
149.399618,6587.832884,2294.638420,-4903.011187
149.399928,-3182.885551,7772.162391,4060.306139
149.400238,-2072.576638,7476.080014,7737.564530
149.400547,5921.647536,8660.409521,-919.314598
149.400857,592.164754,13989.892304,-8656.879127
149.401166,2738.761985,13693.809927,-1532.190996
149.401476,-2664.741391,8734.430116,1455.581446
149.401786,-5181.441594,12657.521608,-2221.676944
149.402095,3108.864956,13471.748144,76.609550
149.402405,-4219.173869,12361.439231,-2374.896044
149.402714,1036.288319,14730.098246,-10418.898773
149.403024,1184.329507,11695.253884,-5515.887586
149.403334,962.267725,9104.533087,-612.876398
149.403643,-888.247130,10214.842000,0.000000
149.403953,-1998.556043,5403.503377,7814.174080
149.404262,1406.391290,5329.482782,4979.620737
149.404572,-74.020594,2516.700203,-4290.134789
149.404882,-0.000000,2368.659014,1608.800546
149.405191,3108.864956,2220.617826,1685.410096
149.405501,-1924.535449,5773.606348,2681.334243
149.405810,1998.556043,8808.450710,3140.991542
149.406120,-4515.256246,9474.636058,7048.078582
149.406430,-7179.997637,10955.047942,2145.067394
149.406739,-370.102971,14359.995275,-8427.050478
149.407049,5551.544565,21614.013506,-14555.814462
149.407358,962.267725,15248.242405,-12563.966167
149.407668,-3330.926739,16432.571912,-2298.286494
149.407978,-3182.885551,10436.903782,7584.345430
149.408287,-2146.597232,9474.636058,3830.477490
149.408597,-2146.597232,10510.924376,1685.410096
149.408906,-0.000000,4737.318029,3677.258390
149.409216,8068.244768,4811.338623,-2911.162892
149.409526,2590.720797,3256.906145,-3983.696590
149.409835,-5181.441594,3330.926739,5132.839837
149.410145,-296.082377,6217.729913,6818.249932
149.410455,-2812.782580,4293.194464,76.609550
149.410764,592.164754,12953.603985,-6052.154434
149.411074,-0.000000,13323.706956,-6052.154434
149.411383,-3256.906145,9474.636058,-4596.572988
149.411693,1554.432478,12213.398043,-3983.696590
149.412003,1332.370696,10066.800811,-1455.581446
149.412312,-3182.885551,14211.954086,1915.238745
149.412622,-2368.659014,11547.212695,1149.143247
149.412931,3034.844362,8290.306550,-2374.896044
149.413241,2738.761985,11991.336260,-7124.688131
149.413551,-3701.029710,9252.574275,-1072.533697
149.413860,-3330.926739,9474.636058,2145.067394
149.414170,7031.956449,5921.647536,-6052.154434
149.414479,3701.029710,3256.906145,-7584.345430
149.414789,-1702.473667,4811.338623,9193.145976
149.415099,-1924.535449,5773.606348,8733.488677
149.415408,-518.144159,4737.318029,1991.848295
149.415718,1332.370696,14137.933492,-2374.896044
149.416027,-0.000000,11621.233289,-6741.640382
149.416337,1776.494261,10658.965565,-5056.230287
149.416647,-740.205942,14878.139434,-2145.067394
149.416956,5477.523971,14137.933492,-2604.724693
149.417266,2368.659014,13619.789333,-4673.182538
149.417575,-2516.700203,12879.583391,4596.572988
149.417885,-3552.988522,6883.915261,11261.603821
149.418195,2072.576638,9252.574275,-229.828649
149.418504,-370.102971,8364.327145,-9422.974625
149.418814,-2294.638420,7105.977043,-5209.449386
149.419123,4441.235652,11769.274478,-11184.994271
149.419433,1924.535449,3849.070898,-9806.022374
149.419743,-8438.347739,8068.244768,4060.306139
149.420052,-0.000000,10288.862594,11031.775171
149.420362,5329.482782,3849.070898,0.000000
149.420671,2960.823768,10288.862594,2757.943793
149.420981,-2368.659014,3849.070898,11261.603821
149.421291,-1554.432478,6587.832884,3677.258390
149.421600,2220.617826,13767.830521,-9422.974625
149.421910,-296.082377,14804.118840,-9652.803275
149.422220,-1776.494261,16580.613101,-5132.839837
149.422529,-8216.285956,16654.633695,-5056.230287
149.422839,814.226536,15248.242405,-7737.564530
149.423148,1480.411884,12213.398043,-7201.297681
149.423458,-5329.482782,7772.162391,-995.924147
149.423768,-4071.132681,6809.894666,7124.688131
149.424077,4071.132681,5625.565159,1225.752797
149.424387,8364.327145,222.061783,-6741.640382
149.424696,-0.000000,5773.606348,6741.640382
149.425006,-0.000000,4515.256246,17313.758255
149.425316,-4367.215058,3775.050304,5669.106685
149.425625,-592.164754,14730.098246,-5362.668486
149.425935,-888.247130,9622.677246,-9576.193725
149.426244,-1776.494261,11029.068536,-14555.814462
149.426554,-1258.350101,13175.665768,-12793.794817
149.426864,-1406.391290,15988.448347,-2374.896044
149.427173,3108.864956,18135.045579,-1302.362347
149.427483,-2072.576638,7920.203579,4060.306139
149.427792,-4959.379811,8586.388927,14402.595362
149.428102,-0.000000,6957.935855,7354.516781
149.428412,6069.688724,5255.462188,-7737.564530
149.428721,-444.123565,7698.141797,-7584.345430
149.429031,-888.247130,7994.224174,-689.485948
149.429340,740.205942,7031.956449,-4213.525239
149.429650,-2294.638420,11621.233289,-5669.106685
149.429960,-4515.256246,6587.832884,4596.572988
149.430269,-0.000000,7476.080014,-153.219100
149.430579,9622.677246,8290.306550,-5209.449386
149.430888,-3849.070898,5847.626942,5209.449386
149.431198,-3923.091493,9622.677246,11031.775171
149.431508,-5033.400406,9474.636058,-766.095498
149.431817,2294.638420,12139.377449,-12410.747068
149.432127,2590.720797,16580.613101,-10725.336972
149.432437,2738.761985,11621.233289,-10112.460574
149.432746,-2590.720797,13915.871710,-2451.505594
149.433056,888.247130,13841.851115,7507.735880
149.433365,-1110.308913,3330.926739,5209.449386
149.433675,-3701.029710,3627.009116,4213.525239
149.433985,-0.000000,962.267725,5669.106685
149.434294,-1258.350101,4367.215058,-6358.592633
149.434604,2220.617826,8660.409521,-12870.404366
149.434913,74.020594,7772.162391,-8886.707777
149.435223,1554.432478,15766.386565,-3064.381992
149.435533,-2294.638420,9548.656652,229.828649
149.435842,-1036.288319,10807.006753,3600.648841
149.436152,592.164754,9252.574275,2757.943793
149.436461,1406.391290,2960.823768,0.000000
149.436771,-1036.288319,11843.295072,-1991.848295
149.437081,1702.473667,14211.954086,-5286.058936
149.437390,2368.659014,8364.327145,-5898.935335
149.437700,-888.247130,9770.718434,0.000000
149.438009,-962.267725,12361.439231,0.000000
149.438319,-74.020594,9992.780217,-6894.859482
149.438629,-1406.391290,7920.203579,-5822.325785
149.438938,1554.432478,4737.318029,2221.676944
149.439248,4515.256246,4293.194464,-76.609550
149.439557,2812.782580,4293.194464,689.485948
149.439867,-2812.782580,8586.388927,11338.213370
149.440177,4145.153275,8660.409521,5975.544884
149.440486,-1924.535449,9696.697840,-9116.536426
149.440796,-1406.391290,14211.954086,-5439.278036
149.441105,1258.350101,14878.139434,-2528.115143
149.441415,-4441.235652,12435.459826,-6741.640382
149.441725,-4367.215058,15988.448347,-2451.505594
149.442034,-2738.761985,13841.851115,-3983.696590
149.442344,1406.391290,9548.656652,-12410.747068
149.442653,4219.173869,12139.377449,-7124.688131
149.442963,-5107.421000,6217.729913,9652.803275
149.443273,2664.741391,8512.368333,7201.297681
149.443582,2368.659014,5329.482782,1685.410096
149.443892,-962.267725,1850.514855,6818.249932
149.444202,-2516.700203,4441.235652,5592.497135
149.444511,1036.288319,4737.318029,-7584.345430
149.444821,1332.370696,9326.594869,-13483.280765
149.445130,2664.741391,11547.212695,-5286.058936
149.445440,-3108.864956,9252.574275,2681.334243
149.445750,-4367.215058,16580.613101,1762.019645
149.446059,2960.823768,10658.965565,919.314598
149.446369,-74.020594,7846.182985,2911.162892
149.446678,-5107.421000,11029.068536,536.266849
149.446988,2960.823768,12731.542202,-995.924147
149.447298,962.267725,12657.521608,-10955.165621
149.447607,-2220.617826,9992.780217,-5439.278036
149.447917,-3034.844362,12139.377449,4213.525239
149.448226,2368.659014,8586.388927,-2528.115143
149.448536,666.185348,5477.523971,-5898.935335
149.448846,1702.473667,7994.224174,995.924147
149.449155,4293.194464,7846.182985,-1455.581446
149.449465,1110.308913,-2294.638420,2528.115143
149.449774,-8956.491898,5255.462188,11568.042020
149.450084,962.267725,6661.853478,2987.772442
149.450394,7328.038826,6217.729913,-13789.718964
149.450703,-2960.823768,11251.130318,-5975.544884
149.451013,-6513.812290,15840.407159,7431.126331
149.451322,5403.503377,15026.180623,-5975.544884
149.451632,888.247130,16062.468941,-9882.631924
149.451942,-3701.029710,14137.933492,8503.660028
149.452251,-2368.659014,12139.377449,5669.106685
149.452561,1406.391290,11843.295072,-12640.575717
149.452870,888.247130,9178.553681,-8810.098227
149.453180,1036.288319,10732.986159,-3447.429741
149.453490,-2590.720797,3627.009116,-3907.087040
149.453799,-3182.885551,8734.430116,2068.457845
149.454109,5921.647536,6809.894666,1608.800546
149.454418,2664.741391,-2368.659014,-3677.258390
149.454728,-2442.679609,4737.318029,6281.983084
149.455038,1480.411884,1702.473667,10955.165621
149.455347,3404.947333,7105.977043,-7737.564530
149.455657,1036.288319,7402.059420,-7584.345430
149.455967,-296.082377,10066.800811,5515.887586
149.456276,-6513.812290,12435.459826,-1532.190996
149.456586,-3108.864956,16654.633695,-10112.460574
149.456895,-0.000000,17172.777854,-9346.365076
149.457205,1702.473667,15174.221811,-10342.289223
149.457515,518.144159,14582.057057,-5515.887586
149.457824,-7328.038826,12805.562797,2528.115143
149.458134,7402.059420,10066.800811,-4673.182538
149.458443,3330.926739,2664.741391,-4596.572988
149.458753,-6957.935855,3849.070898,12563.966167
149.459063,592.164754,5403.503377,14249.376263
149.459372,10732.986159,1998.556043,-10035.851024
149.459682,2960.823768,3997.112087,-9193.145976
149.459991,-7624.121203,4663.297435,9346.365076
149.460301,-5255.462188,6143.709319,4136.915689
149.460611,740.205942,10066.800811,-9039.926876
149.460920,-666.185348,12731.542202,-9269.755526
149.461230,962.267725,16284.530724,-1838.629195
149.461539,-740.205942,13397.727550,-4136.915689
149.461849,-740.205942,14730.098246,-2451.505594
149.462159,-2294.638420,12139.377449,4826.401637
149.462468,518.144159,11473.192101,2068.457845
149.462778,-444.123565,11399.171507,-2451.505594
149.463087,2368.659014,7772.162391,-5286.058936
149.463397,-5773.606348,1998.556043,-2068.457845
149.463707,-2960.823768,9104.533087,76.609550
149.464016,962.267725,8438.347739,-2911.162892
149.464326,1480.411884,5995.668130,-8963.317327
149.464635,-0.000000,5477.523971,-4673.182538
149.464945,814.226536,3034.844362,3370.820191
149.465255,370.102971,7476.080014,1762.019645
149.465564,-740.205942,3478.967927,5592.497135
149.465874,-2072.576638,10362.883188,5056.230287
149.466183,5255.462188,8882.471304,-4366.744339
149.466493,-1850.514855,9474.636058,-5515.887586
149.466803,2072.576638,17838.963202,-2298.286494
149.467112,-1480.411884,16654.633695,-3217.601092
149.467422,-2886.803174,17542.880825,-2451.505594
149.467732,-5033.400406,18061.024985,-2604.724693
149.468041,1184.329507,12805.562797,-11184.994271
149.468351,2812.782580,6735.874072,-9576.193725
149.468660,-4811.338623,3108.864956,3677.258390
149.468970,-518.144159,5773.606348,5822.325785
149.469280,6439.791695,5033.400406,1302.362347
149.469589,-3256.906145,4145.153275,7584.345430
149.469899,-0.000000,6291.750507,6052.154434
149.470208,7920.203579,5403.503377,-6281.983084
149.470518,2220.617826,7402.059420,-10112.460574
149.470828,-3627.009116,13101.645173,3217.601092
149.471137,-740.205942,11029.068536,0.000000
149.471447,1924.535449,5625.565159,-3294.210641
149.471756,-2590.720797,15840.407159,4213.525239
149.472066,740.205942,12361.439231,-1685.410096
149.472376,-5847.626942,11843.295072,-6665.030833
149.472685,-1554.432478,16506.592507,-4290.134789
149.472995,-0.000000,10288.862594,-6818.249932
149.473304,7105.977043,16580.613101,-11108.384721
149.473614,-370.102971,6439.791695,-2451.505594
149.473924,-8364.327145,7328.038826,7967.393179
149.474233,2812.782580,5625.565159,6894.859482
149.474543,3997.112087,4589.276840,-2068.457845
149.474852,4367.215058,4663.297435,-3064.381992
149.475162,3701.029710,3182.885551,2911.162892
149.475472,-2590.720797,2960.823768,4519.963438
149.475781,-5107.421000,9252.574275,2068.457845
149.476091,4219.173869,14359.995275,-6128.763984
149.476400,222.061783,8216.285956,-10035.851024
149.476710,1628.453072,15618.345376,-3753.867940
149.477020,444.123565,11843.295072,-842.705048
149.477329,-4737.318029,11547.212695,-306.438199
149.477639,-4589.276840,19541.436869,6665.030833
149.477949,296.082377,17172.777854,-919.314598
149.478258,6513.812290,13693.809927,-13483.280765
149.478568,3701.029710,5921.647536,-7584.345430
149.478877,-3775.050304,9918.759623,4749.792088
149.479187,4663.297435,4071.132681,9882.631924
149.479497,592.164754,2368.659014,5822.325785
149.479806,-9104.533087,6513.812290,8350.440928
149.480116,3627.009116,1480.411884,-2145.067394
149.480425,6587.832884,592.164754,-13789.718964
149.480735,-0.000000,8734.430116,-6052.154434
149.481045,-4145.153275,10288.862594,6971.469032
149.481354,-3404.947333,13767.830521,459.657299
149.481664,2072.576638,14582.057057,-4443.353888
149.481973,4737.318029,9030.512492,2374.896044
149.482283,-1258.350101,13619.789333,-1225.752797
149.482593,1998.556043,10732.986159,-7124.688131
149.482902,-6661.853478,9696.697840,-919.314598
149.483212,3182.885551,13471.748144,0.000000
149.483521,1628.453072,8734.430116,-9269.755526
149.483831,-2442.679609,10955.047942,-4596.572988
149.484141,1628.453072,11399.171507,4443.353888
149.484450,2220.617826,4959.379811,-4136.915689
149.484760,1258.350101,4811.338623,-3524.039291
149.485069,444.123565,5033.400406,5745.716235
149.485379,2294.638420,-2072.576638,2145.067394
149.485689,2146.597232,2812.782580,3370.820191
149.485998,-666.185348,8734.430116,6588.421283
149.486308,-3775.050304,15692.365970,1378.971896
149.486617,962.267725,16210.510130,-6052.154434
149.486927,4441.235652,20355.663405,-10725.336972
149.487237,-666.185348,18949.272115,-11184.994271
149.487546,-3701.029710,16210.510130,-4213.525239
149.487856,-7698.141797,16580.613101,1991.848295
149.488165,3478.967927,11399.171507,-2911.162892
149.488475,5329.482782,3627.009116,-4979.620737
149.488785,-888.247130,4737.318029,5132.839837
149.489094,1406.391290,-2516.700203,10035.851024
149.489404,962.267725,148.041188,2757.943793
149.489713,296.082377,3034.844362,6741.640382
149.490023,-0.000000,6587.832884,5362.668486
149.490333,370.102971,8956.491898,-5439.278036
149.490642,5477.523971,9992.780217,-6971.469032
149.490952,-0.000000,12583.501014,-5745.716235
149.491261,-4885.359217,10214.842000,1915.238745
149.491571,-0.000000,16654.633695,842.705048
149.491881,1184.329507,17172.777854,-3753.867940
149.492190,-962.267725,15766.386565,-995.924147
149.492500,-0.000000,13323.706956,306.438199
149.492809,1036.288319,12731.542202,-5669.106685
149.493119,6735.874072,9178.553681,-8427.050478
149.493429,-2368.659014,4441.235652,4826.401637
149.493738,-4737.318029,10807.006753,7890.783629
149.494048,4441.235652,4219.173869,-2221.676944
149.494358,4663.297435,2886.803174,-7201.297681
149.494667,-2294.638420,3478.967927,4443.353888
149.494977,-1406.391290,2516.700203,6205.373534
149.495286,1332.370696,8068.244768,-3447.429741
149.495596,5699.585753,6069.688724,-2528.115143
149.495906,-444.123565,9474.636058,3753.867940
149.496215,-5921.647536,11695.253884,0.000000
149.496525,3478.967927,16950.716072,-4213.525239
149.496834,-2442.679609,16580.613101,-5898.935335
149.497144,-0.000000,19097.313304,-7354.516781
149.497454,2442.679609,13545.768739,-8963.317327
149.497763,-9770.718434,12287.418637,-1225.752797
149.498073,-1554.432478,15026.180623,1225.752797
149.498382,3404.947333,7105.977043,-7890.783629
149.498692,2590.720797,6365.771101,-4903.011187
149.499002,3552.988522,1998.556043,7890.783629
149.499311,2220.617826,1110.308913,3140.991542
149.499621,-1332.370696,-1036.288319,4673.182538
149.499930,-518.144159,6957.935855,11184.994271
149.500240,4811.338623,9474.636058,-1532.190996
149.500550,6587.832884,7105.977043,-10801.946522
149.500859,-444.123565,12509.480420,-3983.696590
149.501169,-3478.967927,11029.068536,1149.143247
149.501478,-296.082377,15248.242405,-842.705048
149.501788,-2590.720797,21095.869347,1378.971896
149.502098,-2590.720797,15544.324782,-1225.752797
149.502407,-1184.329507,16876.695478,-7660.954980
149.502717,1776.494261,15100.201217,-10189.070123
149.503026,3034.844362,11251.130318,-10572.117872
149.503336,-3182.885551,8290.306550,459.657299
149.503646,-3775.050304,10658.965565,9193.145976
149.503955,-0.000000,4589.276840,8273.831378
149.504265,5699.585753,1480.411884,153.219100
149.504574,-296.082377,222.061783,2068.457845
149.504884,-3849.070898,-1924.535449,3600.648841
149.505194,4515.256246,4145.153275,-5209.449386
149.505503,1776.494261,3627.009116,-8197.221829
149.505813,-740.205942,13767.830521,2681.334243
149.506122,-2960.823768,13915.871710,7201.297681
149.506432,-0.000000,17764.942608,-4213.525239
149.506742,-1480.411884,16210.510130,-3753.867940
149.507051,-370.102971,13989.892304,-2528.115143
149.507361,3627.009116,18061.024985,-13100.233016
149.507670,-3775.050304,13619.789333,-4366.744339
149.507980,-0.000000,16284.530724,2987.772442
149.508290,2738.761985,15026.180623,-2911.162892
149.508599,6587.832884,6291.750507,-3447.429741
149.508909,-3552.988522,4515.256246,11184.994271
149.509218,962.267725,962.267725,4596.572988
149.509528,8512.368333,-444.123565,-5056.230287
149.509838,-2590.720797,1924.535449,2374.896044
149.510147,-0.000000,6661.853478,5515.887586
149.510457,814.226536,6587.832884,-6741.640382
149.510766,-1850.514855,13249.686362,-5975.544884
149.511076,2146.597232,12139.377449,459.657299
149.511386,-148.041188,13841.851115,-5975.544884
149.511695,-296.082377,11547.212695,-4366.744339
149.512005,-2516.700203,13989.892304,8580.269578
149.512315,666.185348,16210.510130,-2068.457845
149.512624,-0.000000,7402.059420,-6052.154434
149.512934,-1110.308913,12509.480420,1762.019645
149.513243,962.267725,6069.688724,-4290.134789
149.513553,4885.359217,2442.679609,-6894.859482
149.513863,-2368.659014,8956.491898,5515.887586
149.514172,-1628.453072,8142.265362,5669.106685
149.514482,3256.906145,1776.494261,-3677.258390
149.514791,-1258.350101,4071.132681,766.095498
149.515101,-1406.391290,5921.647536,2068.457845
149.515411,4885.359217,1332.370696,-6281.983084
149.515720,444.123565,8808.450710,-3600.648841
149.516030,1036.288319,13027.624579,4213.525239
149.516339,-4145.153275,19985.560434,-3217.601092
149.516649,-148.041188,17394.839637,-766.095498
149.516959,444.123565,15396.283594,-536.266849
149.517268,962.267725,16136.489536,-8656.879127
149.517578,444.123565,10066.800811,-11108.384721
149.517887,-5329.482782,10658.965565,-1762.019645
149.518197,1554.432478,9696.697840,-2374.896044
149.518507,5847.626942,3108.864956,-7124.688131
149.518816,-2072.576638,5181.441594,7660.954980
149.519126,-5551.544565,5033.400406,17083.929605
149.519435,666.185348,-2072.576638,4443.353888
149.519745,-592.164754,3923.091493,1455.581446
149.520055,4145.153275,7698.141797,-612.876398
149.520364,-3256.906145,9474.636058,-9652.803275
149.520674,2960.823768,12361.439231,-8044.002729
149.520983,-2368.659014,16358.551318,-3830.477490
149.521293,-2368.659014,17764.942608,-3064.381992
149.521603,-296.082377,17172.777854,1915.238745
149.521912,-7254.018232,15470.304188,1762.019645
149.522222,7402.059420,12583.501014,-6511.811733
149.522531,5477.523971,5921.647536,-7431.126331
149.522841,-5329.482782,8068.244768,2681.334243
149.523151,-74.020594,3256.906145,4290.134789
149.523460,6365.771101,6143.709319,-3064.381992
149.523770,-1406.391290,8216.285956,4596.572988
149.524079,2812.782580,9178.553681,5669.106685
149.524389,-888.247130,7772.162391,-5975.544884
149.524699,1702.473667,8068.244768,-4290.134789
149.525008,962.267725,10214.842000,-689.485948
149.525318,-0.000000,10881.027347,-5132.839837
149.525627,-592.164754,11103.089130,-1608.800546
149.525937,-2886.803174,12509.480420,4136.915689
149.526247,4811.338623,14804.118840,-11031.775171
149.526556,-0.000000,7624.121203,-7048.078582
149.526866,-4589.276840,9326.594869,9806.022374
149.527175,-1776.494261,11399.171507,6741.640382
149.527485,-0.000000,8956.491898,-6128.763984
149.527795,-4737.318029,12287.418637,-459.657299
149.528104,740.205942,10362.883188,-3140.991542
149.528414,7031.956449,4885.359217,-18233.072852
149.528723,-4737.318029,4589.276840,-3370.820191
149.529033,-2664.741391,7846.182985,13713.109414
149.529343,888.247130,7031.956449,2374.896044
149.529652,4071.132681,5625.565159,2528.115143
149.529962,-1480.411884,7846.182985,12793.794817
149.530272,1480.411884,5255.462188,-1149.143247
149.530581,1850.514855,3701.029710,-5592.497135
149.530891,-5403.503377,12879.583391,2221.676944
149.531200,-592.164754,16284.530724,-2221.676944
149.531510,6365.771101,18209.066173,-15168.690860
149.531820,-5625.565159,19393.395680,-6435.202183
149.532129,-2146.597232,15026.180623,3370.820191
149.532439,1628.453072,9104.533087,-2987.772442
149.532748,-4293.194464,6661.853478,-2681.334243
149.533058,1628.453072,6809.894666,3677.258390
149.533368,-296.082377,2886.803174,-995.924147
149.533677,2886.803174,1998.556043,0.000000
149.533987,4811.338623,9548.656652,4596.572988
149.534296,-3849.070898,12065.356855,-1991.848295
149.534606,4145.153275,8142.265362,-1225.752797
149.534916,-1332.370696,10955.047942,2528.115143
149.535225,-592.164754,5847.626942,-4596.572988
149.535535,888.247130,6439.791695,-6205.373534
149.535844,-4589.276840,10658.965565,-2068.457845
149.536154,-4219.173869,11695.253884,0.000000
149.536464,2812.782580,13767.830521,-7584.345430
149.536773,-1702.473667,14211.954086,-6435.202183
149.537083,518.144159,14359.995275,-2604.724693
149.537392,2442.679609,13989.892304,-3600.648841
149.537702,-2072.576638,8438.347739,1149.143247
149.538012,3182.885551,5921.647536,3524.039291
149.538321,2368.659014,5477.523971,-5745.716235
149.538631,1850.514855,-1110.308913,0.000000
149.538940,2294.638420,4737.318029,9882.631924
149.539250,-3627.009116,5477.523971,3064.381992
149.539560,-888.247130,11325.150913,-306.438199
149.539869,-1036.288319,15840.407159,-2451.505594
149.540179,-0.000000,10140.821405,-9576.193725
149.540488,962.267725,10066.800811,-9422.974625
149.540798,-4663.297435,14952.160028,-8044.002729
149.541108,-3034.844362,11991.336260,-2221.676944
149.541417,8734.430116,15988.448347,306.438199
149.541727,-8438.347739,11325.150913,6281.983084
149.542036,3552.988522,7254.018232,12334.137518
149.542346,888.247130,7994.224174,-2221.676944
149.542656,1036.288319,7031.956449,-6205.373534
149.542965,-1258.350101,4145.153275,0.000000
149.543275,-222.061783,2812.782580,-4596.572988
149.543584,-3478.967927,5847.626942,-3677.258390
149.543894,1776.494261,11547.212695,153.219100
149.544204,-5329.482782,6809.894666,-612.876398
149.544513,2516.700203,10732.986159,-1991.848295
149.544823,74.020594,7550.100608,-2451.505594
149.545132,-518.144159,6957.935855,-6205.373534
149.545442,1850.514855,8808.450710,229.828649
149.545752,-5107.421000,12583.501014,4826.401637
149.546061,2664.741391,17838.963202,-459.657299
149.546371,3923.091493,18949.272115,-9422.974625
149.546680,-4367.215058,9400.615463,-5286.058936
149.546990,4737.318029,6439.791695,2221.676944
149.547300,1184.329507,6809.894666,-6588.421283
149.547609,-1924.535449,9548.656652,4596.572988
149.547919,-1184.329507,7254.018232,13713.109414
149.548229,-1406.391290,5847.626942,1378.971896
149.548538,2442.679609,10658.965565,-6741.640382
149.548848,-4737.318029,11769.274478,-2987.772442
149.549157,-5847.626942,6069.688724,-8580.269578
149.549467,6291.750507,9178.553681,-9499.584175
149.549777,-3182.885551,11991.336260,536.266849
149.550086,-888.247130,12213.398043,5209.449386
149.550396,-2072.576638,8216.285956,5362.668486
149.550705,-0.000000,8142.265362,4290.134789
149.551015,6513.812290,8364.327145,536.266849
149.551325,-666.185348,4737.318029,-4826.401637
149.551634,-5921.647536,7179.997637,1072.533697
149.551944,-2812.782580,9326.594869,5132.839837
149.552253,1258.350101,8438.347739,-8044.002729
149.552563,-5625.565159,9474.636058,-7277.907231
149.552873,-5329.482782,13619.789333,0.000000
149.553182,6069.688724,7105.977043,-11261.603821
149.553492,666.185348,6513.812290,-5286.058936
149.553801,-6809.894666,13101.645173,10342.289223
149.554111,1850.514855,10436.903782,3140.991542
149.554421,7105.977043,8734.430116,-5362.668486
149.554730,-592.164754,9326.594869,1455.581446
149.555040,222.061783,2516.700203,4290.134789
149.555349,148.041188,7254.018232,-6052.154434
149.555659,-2886.803174,5107.421000,-4290.134789
149.555969,-1480.411884,14730.098246,2987.772442
149.556278,370.102971,13471.748144,-6665.030833
149.556588,1924.535449,9104.533087,-13023.623466
149.556897,-2664.741391,12435.459826,-1149.143247
149.557207,-2590.720797,7624.121203,1838.629195
149.557517,1998.556043,7846.182985,-2298.286494
149.557826,-2664.741391,15766.386565,-1762.019645
149.558136,4663.297435,11399.171507,-4979.620737
149.558445,6587.832884,7920.203579,-4366.744339
149.558755,-3775.050304,4663.297435,4519.963438
149.559065,-1036.288319,8660.409521,6205.373534
149.559374,1332.370696,6439.791695,-2911.162892
149.559684,-4145.153275,2072.576638,2604.724693
149.559993,2368.659014,10288.862594,4979.620737
149.560303,-1554.432478,9844.739029,-3677.258390
149.560613,-2960.823768,12435.459826,-7124.688131
149.560922,962.267725,12139.377449,-2604.724693
149.561232,518.144159,10214.842000,-7277.907231
149.561541,-2220.617826,9844.739029,-7124.688131
149.561851,-8216.285956,13619.789333,5209.449386
149.562161,7031.956449,11177.109724,-5362.668486
149.562470,8216.285956,10288.862594,-7660.954980
149.562780,-4811.338623,10732.986159,10572.117872
149.563089,-2368.659014,7105.977043,8580.269578
149.563399,7328.038826,8068.244768,-5056.230287
149.563709,-4737.318029,7254.018232,0.000000
149.564018,-5847.626942,7402.059420,5975.544884
149.564328,6143.709319,9622.677246,-13713.109414
149.564637,3552.988522,6735.874072,-16930.710506
149.564947,-8512.368333,13841.851115,5209.449386
149.565257,-3478.967927,5625.565159,8580.269578
149.565566,6587.832884,6735.874072,-7507.735880
149.565876,-888.247130,12731.542202,-1302.362347
149.566186,-962.267725,7105.977043,6665.030833
149.566495,3034.844362,11769.274478,-2221.676944
149.566805,-3256.906145,14285.974681,-6358.592633
149.567114,3256.906145,17320.819043,-4366.744339
149.567424,222.061783,10732.986159,-9346.365076
149.567734,-444.123565,11769.274478,-1762.019645
149.568043,-1406.391290,11917.315666,5745.716235
149.568353,-148.041188,10807.006753,-4443.353888
149.568662,1998.556043,4071.132681,-7967.393179
149.568972,1036.288319,2220.617826,4826.401637
149.569282,-148.041188,7698.141797,5439.278036
149.569591,-592.164754,2146.597232,383.047749
149.569901,7772.162391,10881.027347,919.314598
149.570210,-4441.235652,1480.411884,4749.792088
149.570520,-3552.988522,8586.388927,4213.525239
149.570830,1110.308913,14730.098246,-2451.505594
149.571139,-1776.494261,12361.439231,-9959.241474
149.571449,592.164754,15544.324782,-4596.572988
149.571758,-6513.812290,15396.283594,1378.971896
149.572068,5255.462188,16654.633695,-9729.412825
149.572378,2590.720797,12879.583391,-9576.193725
149.572687,-2072.576638,9770.718434,6511.811733
149.572997,-4441.235652,5847.626942,7584.345430
149.573306,3034.844362,6587.832884,-612.876398
149.573616,-0.000000,1850.514855,1685.410096
149.573926,-3849.070898,1628.453072,4060.306139
149.574235,-444.123565,4885.359217,-842.705048
149.574545,3034.844362,5403.503377,-5822.325785
149.574854,-296.082377,11621.233289,-10342.289223
149.575164,148.041188,7698.141797,-2221.676944
149.575474,888.247130,8512.368333,3677.258390
149.575783,-9104.533087,9474.636058,8963.317327
149.576093,6365.771101,12361.439231,2068.457845
149.576402,2960.823768,11177.109724,-12640.575717
149.576712,-6069.688724,4293.194464,-3677.258390
149.577022,-296.082377,11621.233289,3600.648841
149.577331,296.082377,15766.386565,-11644.651570
149.577641,74.020594,15248.242405,-5439.278036
149.577950,-1480.411884,14211.954086,8963.317327
149.578260,4219.173869,9030.512492,1838.629195
149.578570,-444.123565,9252.574275,-2374.896044
149.578879,-3701.029710,7846.182985,5745.716235
149.579189,-740.205942,-296.082377,-1072.533697
149.579498,2738.761985,4737.318029,-8733.488677
149.579808,-3701.029710,11473.192101,1072.533697
149.580118,-1554.432478,9400.615463,-2221.676944
149.580427,5773.606348,13989.892304,-8427.050478
149.580737,1036.288319,9474.636058,3677.258390
149.581046,-2368.659014,5329.482782,7507.735880
149.581356,2294.638420,7846.182985,-1302.362347
149.581666,-2072.576638,7772.162391,2528.115143
149.581975,-296.082377,10807.006753,7584.345430
149.582285,962.267725,12139.377449,-9193.145976
149.582594,740.205942,12583.501014,-13253.452115
149.582904,-9178.553681,19615.457463,919.314598
149.583214,2886.803174,12657.521608,-5669.106685
149.583523,1776.494261,8216.285956,-13942.938064
149.583833,-7254.018232,11695.253884,3907.087040
149.584143,-518.144159,8290.306550,6588.421283
149.584452,5995.668130,5033.400406,-9346.365076
149.584762,8586.388927,2738.761985,689.485948
149.585071,-0.000000,7105.977043,11414.822920
149.585381,2220.617826,5699.585753,-1072.533697
149.585691,5551.544565,4737.318029,1455.581446
149.586000,-518.144159,10881.027347,9652.803275
149.586310,-3552.988522,9622.677246,-4060.306139
149.586620,-1480.411884,7772.162391,-9806.022374
149.586929,-5107.421000,12509.480420,-5592.497135
149.587239,-0.000000,10807.006753,-12027.699319
149.587549,222.061783,12435.459826,-10495.508323
149.587858,-6439.791695,22058.137072,1302.362347
149.588168,2812.782580,14878.139434,-1838.629195
149.588477,6735.874072,7328.038826,612.876398
149.588787,-962.267725,7328.038826,12870.404366
149.589097,-962.267725,1702.473667,10418.898773
149.589406,4293.194464,1554.432478,-3370.820191
149.589716,-444.123565,-1332.370696,2374.896044
149.590026,-4441.235652,4959.379811,7507.735880
149.590335,740.205942,12953.603985,-4979.620737
149.590645,-370.102971,9770.718434,-11338.213370
149.590955,-740.205942,16506.592507,-4903.011187
149.591264,-1554.432478,9622.677246,-1378.971896
149.591574,-4737.318029,9770.718434,-4290.134789
149.591884,-0.000000,11251.130318,229.828649
149.592193,4885.359217,7031.956449,-1838.629195
149.592503,3404.947333,8882.471304,-153.219100
149.592812,-2368.659014,12583.501014,9806.022374
149.593122,1776.494261,13027.624579,2834.553343
149.593432,666.185348,9178.553681,-7967.393179
149.593741,-444.123565,9474.636058,-1378.971896
149.594051,-5551.544565,7550.100608,0.000000
149.594361,5329.482782,12435.459826,-12104.308868
149.594670,2886.803174,3627.009116,-11261.603821
149.594980,-4737.318029,9178.553681,6741.640382
149.595290,444.123565,4515.256246,9346.365076
149.595599,3552.988522,5255.462188,-3907.087040
149.595909,814.226536,9030.512492,2681.334243
149.596218,888.247130,3034.844362,8580.269578
149.596528,888.247130,10658.965565,-3064.381992
149.596838,-3701.029710,16580.613101,-6052.154434
149.597147,5329.482782,19097.313304,-7124.688131
149.597457,1776.494261,13545.768739,-10878.556072
149.597767,-7254.018232,11399.171507,1149.143247
149.598076,-3478.967927,14508.036463,5439.278036
149.598386,74.020594,12805.562797,-9346.365076
149.598696,5033.400406,5551.544565,-8350.440928
149.599005,-1776.494261,2146.597232,11108.384721
149.599315,-2220.617826,5329.482782,5975.544884
149.599625,-1998.556043,3701.029710,-4060.306139
149.599934,1850.514855,9622.677246,919.314598
149.600244,666.185348,5255.462188,-1302.362347
149.600553,1110.308913,7179.997637,-9806.022374
149.600863,-740.205942,13693.809927,-153.219100
149.601173,2146.597232,9178.553681,2145.067394
149.601482,2220.617826,8586.388927,536.266849
149.601792,-3627.009116,9918.759623,7890.783629
149.602102,-1850.514855,9696.697840,1762.019645
149.602411,296.082377,13323.706956,-12563.966167
149.602721,592.164754,7550.100608,-7890.783629
149.603031,-0.000000,9992.780217,612.876398
149.603340,-1406.391290,13323.706956,-4136.915689
149.603650,-4441.235652,11473.192101,-919.314598
149.603959,-4219.173869,13915.871710,6588.421283
149.604269,5773.606348,8438.347739,-4979.620737
149.604579,3627.009116,7402.059420,-9806.022374
149.604888,-2072.576638,11103.089130,0.000000
149.605198,-2442.679609,1776.494261,1532.190996
149.605508,8956.491898,5995.668130,-229.828649
149.605817,222.061783,6809.894666,8197.221829
149.606127,1110.308913,12657.521608,10112.460574
149.606437,518.144159,11991.336260,1532.190996
149.606746,-518.144159,6365.771101,0.000000
149.607056,2368.659014,9696.697840,-9269.755526
149.607366,2072.576638,12509.480420,-21527.283494
149.607675,-7179.997637,15248.242405,-6358.592633
149.607985,-5403.503377,19171.333898,7354.516781
149.608294,4293.194464,17764.942608,-1762.019645
149.608604,7105.977043,11917.315666,-4979.620737
149.608914,-4441.235652,7105.977043,9882.631924
149.609223,-2442.679609,-2294.638420,9882.631924
149.609533,5255.462188,-1332.370696,-6971.469032
149.609843,296.082377,4071.132681,-4443.353888
149.610152,-6513.812290,9918.759623,5439.278036
149.610462,5625.565159,12657.521608,-2298.286494
149.610772,-2368.659014,11473.192101,-4136.915689
149.611081,2590.720797,12805.562797,-383.047749
149.611391,-2812.782580,7402.059420,-6128.763984
149.611700,-1036.288319,2368.659014,-4366.744339
149.612010,-5107.421000,6735.874072,6665.030833
149.612320,-222.061783,6143.709319,2451.505594
149.612629,2886.803174,13027.624579,-4443.353888
149.612939,-1924.535449,17246.798449,4903.011187
149.613249,3627.009116,14063.912898,4136.915689
149.613558,666.185348,11399.171507,-8120.612279
149.613868,-1036.288319,11251.130318,-5745.716235
149.614178,-518.144159,11029.068536,-2757.943793
149.614487,4293.194464,6957.935855,-7277.907231
149.614797,-3923.091493,7698.141797,5592.497135
149.615107,-2368.659014,11843.295072,8810.098227
149.615416,6143.709319,8808.450710,-1072.533697
149.615726,1850.514855,-0.000000,-612.876398
149.616035,1480.411884,6513.812290,6205.373534
149.616345,-2072.576638,9474.636058,-1532.190996
149.616655,-0.000000,10288.862594,-6052.154434
149.616964,-370.102971,16580.613101,-3294.210641
149.617274,2960.823768,9844.739029,-7277.907231
149.617584,3256.906145,9104.533087,-3447.429741
149.617893,-8068.244768,15988.448347,3830.477490
149.618203,4367.215058,7994.224174,-1762.019645
149.618513,7402.059420,4737.318029,-7354.516781
149.618822,-4663.297435,6661.853478,4443.353888
149.619132,-10214.842000,8882.471304,11644.651570
149.619441,888.247130,6883.915261,-1608.800546
149.619751,1628.453072,5403.503377,-9116.536426
149.620061,2368.659014,11399.171507,-4060.306139
149.620370,-296.082377,10362.883188,-10725.336972
149.620680,-1924.535449,6957.935855,-5898.935335
149.620990,962.267725,11769.274478,8656.879127
149.621299,2072.576638,6661.853478,6281.983084
149.621609,1850.514855,8438.347739,2451.505594
149.621919,-1110.308913,6513.812290,7660.954980
149.622228,-0.000000,5403.503377,2451.505594
149.622538,1628.453072,7550.100608,-10342.289223
149.622848,-4811.338623,13915.871710,-9039.926876
149.623157,1554.432478,17764.942608,-10725.336972
149.623467,-814.226536,14952.160028,-10112.460574
149.623776,-1776.494261,12435.459826,5975.544884
149.624086,-3330.926739,15100.201217,7201.297681
149.624396,8068.244768,9844.739029,-6128.763984
149.624705,962.267725,-0.000000,1302.362347
149.625015,-2220.617826,-592.164754,13253.452115
149.625325,-3404.947333,3330.926739,3677.258390
149.625634,1998.556043,7698.141797,-7277.907231
149.625944,2664.741391,15840.407159,-1072.533697
149.626254,-1110.308913,14285.974681,-3983.696590
149.626563,-888.247130,10288.862594,-6205.373534
149.626873,-2738.761985,15470.304188,459.657299
149.627182,2886.803174,8068.244768,-6971.469032
149.627492,-592.164754,6883.915261,-5209.449386
149.627802,-3108.864956,7994.224174,8656.879127
149.628111,-296.082377,11843.295072,3294.210641
149.628421,7550.100608,10732.986159,-6205.373534
149.628731,-1184.329507,8290.306550,-1762.019645
149.629040,-4145.153275,3108.864956,7124.688131
149.629350,3478.967927,11325.150913,-5975.544884
149.629660,-888.247130,10658.965565,-7967.393179
149.629969,-0.000000,7105.977043,4826.401637
149.630279,4367.215058,6291.750507,3677.258390
149.630589,-740.205942,11473.192101,-4366.744339
149.630898,-5773.606348,10362.883188,5209.449386
149.631208,666.185348,10140.821405,-383.047749
149.631517,4737.318029,7550.100608,-13713.109414
149.631827,1406.391290,10584.944971,-8656.879127
149.632137,-6957.935855,14063.912898,766.095498
149.632446,3552.988522,13027.624579,-1302.362347
149.632756,-1332.370696,6513.812290,3524.039291
149.633066,3701.029710,8956.491898,5362.668486
149.633375,296.082377,8808.450710,-2298.286494
149.633685,-4071.132681,7031.956449,-536.266849
149.633995,-2072.576638,10510.924376,-2068.457845
149.634304,2442.679609,9548.656652,-12104.308868
149.634614,1184.329507,12435.459826,-10342.289223
149.634923,-5403.503377,13323.706956,3217.601092
149.635233,-370.102971,5329.482782,3600.648841
149.635543,8290.306550,5551.544565,-3217.601092
149.635852,296.082377,2294.638420,3447.429741
149.636162,-1628.453072,5033.400406,10495.508323
149.636472,-2960.823768,7476.080014,2834.553343
149.636781,5033.400406,9992.780217,-4903.011187
149.637091,6883.915261,14285.974681,-8197.221829
149.637401,-7105.977043,17987.004391,-7048.078582
149.637710,-2590.720797,13693.809927,1915.238745
149.638020,-370.102971,13027.624579,-3753.867940
149.638329,3627.009116,4515.256246,-7814.174080
149.638639,-3923.091493,6143.709319,0.000000
149.638949,-8216.285956,5921.647536,7431.126331
149.639258,2812.782580,7105.977043,995.924147
149.639568,6735.874072,5403.503377,-5592.497135
149.639878,-2516.700203,9400.615463,229.828649
149.640187,-1258.350101,14804.118840,3217.601092
149.640497,1776.494261,9474.636058,-3294.210641
149.640807,962.267725,8142.265362,-3140.991542
149.641116,2738.761985,11399.171507,-1072.533697
149.641426,-666.185348,6809.894666,-5209.449386
149.641736,-3182.885551,4219.173869,1608.800546
149.642045,1184.329507,9030.512492,6128.763984
149.642355,1554.432478,8512.368333,-2451.505594
149.642664,-2072.576638,14285.974681,-3600.648841
149.642974,-370.102971,14582.057057,-153.219100
149.643284,1776.494261,9104.533087,-8427.050478
149.643593,-1184.329507,9400.615463,-5592.497135
149.643903,-6883.915261,12435.459826,4290.134789
149.644213,6957.935855,8586.388927,-4673.182538
149.644522,4293.194464,5995.668130,-7737.564530
149.644832,-5995.668130,6661.853478,7660.954980
149.645142,-2442.679609,7624.121203,7967.393179
149.645451,7476.080014,10807.006753,-9959.241474
149.645761,2146.597232,6291.750507,-4213.525239
149.646070,-3849.070898,8660.409521,10035.851024
149.646380,-1036.288319,13323.706956,-1838.629195
149.646690,1628.453072,9548.656652,-9269.755526
149.646999,-888.247130,12213.398043,1072.533697
149.647309,2590.720797,7920.203579,-5056.230287
149.647619,-3627.009116,9030.512492,-5362.668486
149.647928,-7328.038826,12139.377449,6511.811733
149.648238,6513.812290,10362.883188,-3524.039291
149.648548,7105.977043,10732.986159,-10878.556072
149.648857,-9104.533087,13619.789333,11108.384721
149.649167,-1554.432478,11103.089130,10265.679673
149.649477,8512.368333,6957.935855,-14938.862211
149.649786,3923.091493,4219.173869,-2374.896044
149.650096,-8142.265362,7624.121203,13866.328514
149.650405,888.247130,12139.377449,-7814.174080
149.650715,-1036.288319,10140.821405,-12717.185267
149.651025,2220.617826,11029.068536,4749.792088
149.651334,-592.164754,8364.327145,-5975.544884
149.651644,-740.205942,9474.636058,-9346.365076
149.651954,-7031.956449,13989.892304,5975.544884
149.652263,4293.194464,5255.462188,766.095498
149.652573,10140.821405,9474.636058,-11721.261119
149.652883,-5255.462188,8808.450710,5669.106685
149.653192,-3849.070898,12139.377449,9193.145976
149.653502,3478.967927,7624.121203,-9806.022374
149.653811,4885.359217,3478.967927,-4366.744339
149.654121,-2812.782580,11695.253884,9576.193725
149.654431,-3701.029710,10140.821405,-5286.058936
149.654740,-962.267725,10362.883188,-9576.193725
149.655050,-0.000000,13989.892304,995.924147
149.655360,-74.020594,9252.574275,-9193.145976
149.655669,-2368.659014,11843.295072,-9499.584175
149.655979,-2072.576638,16876.695478,3140.991542
149.656289,1554.432478,5181.441594,4136.915689
149.656598,7550.100608,11843.295072,-2604.724693
149.656908,-4811.338623,8956.491898,6205.373534
149.657218,1998.556043,8290.306550,4596.572988
149.657527,6217.729913,5847.626942,-3370.820191
149.657837,-370.102971,4737.318029,-536.266849
149.658146,-2664.741391,9992.780217,4290.134789
149.658456,-888.247130,11177.109724,-6818.249932
149.658766,-1554.432478,5847.626942,-7814.174080
149.659075,-1258.350101,13027.624579,1072.533697
149.659385,-1184.329507,12879.583391,-5592.497135
149.659695,-2738.761985,8882.471304,-6741.640382
149.660004,-3478.967927,13767.830521,1838.629195
149.660314,6957.935855,7624.121203,-2451.505594
149.660624,5181.441594,10881.027347,-6281.983084
149.660933,-5847.626942,12213.398043,5362.668486
149.661243,1184.329507,5181.441594,5592.497135
149.661552,2738.761985,7476.080014,-1762.019645
149.661862,-2442.679609,9104.533087,-2374.896044
149.662172,-1850.514855,7920.203579,-1455.581446
149.662481,-1406.391290,9104.533087,-10418.898773
149.662791,-5625.565159,5181.441594,-3140.991542
149.663101,1036.288319,8364.327145,-1608.800546
149.663410,666.185348,9548.656652,-12410.747068
149.663720,-3627.009116,6217.729913,-2145.067394
149.664030,-1628.453072,11399.171507,13789.718964
149.664339,5995.668130,7846.182985,153.219100
149.664649,10955.047942,8734.430116,-6511.811733
149.664959,-6365.771101,7328.038826,9806.022374
149.665268,-6217.729913,7105.977043,11338.213370
149.665578,444.123565,9104.533087,-5898.935335
149.665887,740.205942,18431.127956,-9269.755526
149.666197,1258.350101,18431.127956,-13789.718964
149.666507,-1184.329507,14359.995275,-15934.786358
149.666816,-7105.977043,8142.265362,-919.314598
149.667126,-1702.473667,9326.594869,3140.991542
149.667436,6143.709319,9030.512492,-5515.887586
149.667745,2664.741391,6587.832884,1838.629195
149.668055,-6809.894666,370.102971,18922.558801
149.668365,5033.400406,4737.318029,8350.440928
149.668674,5551.544565,4219.173869,-7737.564530
149.668984,-2072.576638,9918.759623,-2451.505594
149.669293,-222.061783,9104.533087,-3907.087040
149.669603,-1776.494261,9104.533087,-9193.145976
149.669913,-4737.318029,16876.695478,-536.266849
149.670222,518.144159,13101.645173,-2757.943793
149.670532,4589.276840,11843.295072,-6894.859482
149.670842,-1554.432478,5033.400406,4136.915689
149.671151,-8290.306550,5625.565159,14096.157163
149.671461,-1036.288319,14211.954086,-2221.676944
149.671771,5847.626942,8660.409521,-12027.699319
149.672080,-0.000000,10658.965565,1532.190996
149.672390,-3552.988522,13101.645173,-1532.190996
149.672700,444.123565,10288.862594,-8044.002729
149.673009,2664.741391,12953.603985,-842.705048
149.673319,2738.761985,2886.803174,6128.763984
149.673628,-3552.988522,5255.462188,3370.820191
149.673938,-1406.391290,11843.295072,4060.306139
149.674248,4811.338623,2738.761985,-3370.820191
149.674557,4367.215058,5403.503377,-5822.325785
149.674867,-8438.347739,7994.224174,-1762.019645
149.675177,-1998.556043,13397.727550,-919.314598
149.675486,888.247130,16654.633695,-4903.011187
149.675796,4219.173869,11621.233289,-1532.190996
149.676106,666.185348,9992.780217,2757.943793
149.676415,1998.556043,13989.892304,76.609550
149.676725,-4811.338623,7920.203579,1838.629195
149.677034,-4959.379811,10510.924376,612.876398
149.677344,5329.482782,9696.697840,-8197.221829
149.677654,-3552.988522,11547.212695,-7814.174080
149.677963,-9326.594869,15322.262999,-229.828649
149.678273,3923.091493,9770.718434,-4826.401637
149.678583,9326.594869,8364.327145,-11797.870669
149.678892,888.247130,5255.462188,995.924147
149.679202,-1480.411884,2442.679609,10801.946522
149.679512,1850.514855,-592.164754,7048.078582
149.679821,7179.997637,-518.144159,9269.755526
149.680131,-1628.453072,7698.141797,8197.221829
149.680441,-4737.318029,11843.295072,-4596.572988
149.680750,-3552.988522,11029.068536,-8197.221829
149.681060,592.164754,12731.542202,-8580.269578
149.681369,-666.185348,15100.201217,-14172.766713
149.681679,-3701.029710,17320.819043,-11491.432470
149.681989,-6217.729913,19837.519246,1302.362347
149.682298,6513.812290,9104.533087,2145.067394
149.682608,5847.626942,6587.832884,1762.019645
149.682918,-5255.462188,5995.668130,11951.089769
149.683227,-1258.350101,5699.585753,5132.839837
149.683539,4293.194464,8216.285956,-5975.544884
149.683848,370.102971,5255.462188,-3600.648841
149.684158,-5107.421000,8586.388927,919.314598
149.684467,666.185348,11917.315666,-8733.488677
149.684777,6217.729913,6365.771101,-10801.946522
149.685086,-1332.370696,4663.297435,3370.820191
149.685396,-4811.338623,4367.215058,10418.898773
149.685706,-0.000000,8438.347739,3753.867940
149.686015,2220.617826,14285.974681,1455.581446
149.686325,3627.009116,11917.315666,2911.162892
149.686634,-222.061783,11621.233289,-2374.896044
149.686944,-888.247130,15174.221811,-9269.755526
149.687253,-74.020594,11621.233289,-9269.755526
149.687563,-814.226536,11325.150913,766.095498
149.687873,-5477.523971,9770.718434,6894.859482
149.688182,3478.967927,14137.933492,-1762.019645
149.688492,4737.318029,13101.645173,-6358.592633
149.688801,-4071.132681,888.247130,2834.553343
149.689111,-1776.494261,2516.700203,4519.963438
149.689420,5033.400406,8586.388927,-6741.640382
149.689730,3552.988522,9326.594869,-7431.126331
149.690039,-4737.318029,7402.059420,9806.022374
149.690349,1554.432478,6587.832884,10035.851024
149.690659,4219.173869,8142.265362,-3830.477490
149.690968,-1776.494261,11103.089130,-1762.019645
149.691278,-222.061783,5107.421000,2528.115143
149.691587,-5551.544565,8882.471304,-689.485948
149.691897,296.082377,21465.972318,-3524.039291
149.692206,518.144159,16432.571912,-13406.671215
149.692516,296.082377,20429.683999,-13330.061665
149.692826,-4293.194464,10140.821405,2451.505594
149.693135,-2738.761985,7550.100608,2298.286494
149.693445,4293.194464,9474.636058,-3064.381992
149.693754,3552.988522,2516.700203,4213.525239
149.694064,-6365.771101,962.267725,11491.432470
149.694373,1554.432478,2516.700203,4290.134789
149.694683,8438.347739,5255.462188,-7124.688131
149.694992,-4515.256246,10955.047942,-3600.648841
149.695302,-0.000000,9844.739029,-1838.629195
149.695612,222.061783,10881.027347,-7201.297681
149.695921,1702.473667,14285.974681,-3064.381992
149.696231,-222.061783,9474.636058,4519.963438
149.696540,-4145.153275,8364.327145,1838.629195
149.696850,-2072.576638,8364.327145,-842.705048
149.697159,1776.494261,9918.759623,-3677.258390
149.697469,-3701.029710,13915.871710,-8810.098227
149.697779,3034.844362,13693.809927,-4749.792088
149.698088,-2664.741391,14508.036463,-3524.039291
149.698398,-1480.411884,15174.221811,-5745.716235
149.698707,3182.885551,10807.006753,-6665.030833
149.699017,2738.761985,4293.194464,5439.278036
149.699326,4885.359217,-0.000000,5515.887586
149.699636,1628.453072,-1776.494261,4903.011187
149.699945,-3552.988522,4811.338623,5286.058936
149.700255,3775.050304,6291.750507,-459.657299
149.700565,2590.720797,10288.862594,-7967.393179
149.700874,1184.329507,8068.244768,-4366.744339
149.701184,-2516.700203,8660.409521,2145.067394
149.701493,-2664.741391,15396.283594,1149.143247
149.701803,-2072.576638,11325.150913,-1532.190996
149.702112,-1036.288319,11695.253884,-6435.202183
149.702422,-2146.597232,18653.189738,-8044.002729
149.702732,-2812.782580,12139.377449,-4213.525239
149.703041,-4367.215058,17172.777854,-229.828649
149.703351,6661.853478,7476.080014,-4213.525239
149.703660,2072.576638,7698.141797,-3064.381992
149.703970,-8068.244768,9326.594869,12180.918418
149.704279,-666.185348,6217.729913,10725.336972
149.704589,7624.121203,4737.318029,-8044.002729
149.704898,-3627.009116,4441.235652,-7584.345430
149.705208,-1924.535449,5625.565159,-1378.971896
149.705518,-0.000000,7772.162391,-5669.106685
149.705827,3627.009116,9400.615463,-1072.533697
149.706137,1258.350101,10955.047942,2681.334243
149.706446,2072.576638,12139.377449,-1915.238745
149.706756,2220.617826,7476.080014,3524.039291
149.707065,-7698.141797,4737.318029,8120.612279
149.707375,2738.761985,5181.441594,-1991.848295
149.707685,7550.100608,10288.862594,-5515.887586
149.707994,-6661.853478,15470.304188,2757.943793
149.708304,-2220.617826,13545.768739,2834.553343
149.708613,222.061783,13693.809927,-9729.412825
149.708923,-296.082377,15766.386565,-10265.679673
149.709232,-296.082377,9252.574275,-2068.457845
149.709542,-518.144159,5181.441594,-3370.820191
149.709851,1702.473667,6957.935855,612.876398
149.710161,296.082377,8512.368333,6205.373534
149.710471,2664.741391,11695.253884,3140.991542
149.710780,1406.391290,6957.935855,1378.971896
149.711090,4737.318029,11177.109724,3753.867940
149.711399,-370.102971,10214.842000,-2451.505594
149.711709,2886.803174,8438.347739,-5898.935335
149.712018,-3997.112087,13101.645173,-3524.039291
149.712328,4737.318029,10955.047942,-6281.983084
149.712638,1702.473667,8882.471304,-5822.325785
149.712947,-7402.059420,13841.851115,5822.325785
149.713257,592.164754,7254.018232,4596.572988
149.713566,3404.947333,6587.832884,-7507.735880
149.713876,-0.000000,4811.338623,-459.657299
149.714185,-4441.235652,12435.459826,6281.983084
149.714495,-0.000000,14211.954086,-4136.915689
149.714804,2072.576638,11843.295072,-8120.612279
149.715114,-814.226536,10732.986159,-612.876398
149.715424,1628.453072,10807.006753,-766.095498
149.715733,-1110.308913,8142.265362,-995.924147
149.716043,-0.000000,11547.212695,4519.963438
149.716352,4737.318029,5921.647536,-2834.553343
149.716662,5625.565159,5551.544565,-2987.772442
149.716971,-7772.162391,8216.285956,9576.193725
149.717281,-2886.803174,8882.471304,4519.963438
149.717591,888.247130,10807.006753,-7660.954980
149.717900,-1850.514855,12583.501014,-5439.278036
149.718210,-1036.288319,15914.427753,-3370.820191
149.718519,-148.041188,13767.830521,-11951.089769
149.718829,3849.070898,10955.047942,-5745.716235
149.719138,1480.411884,10807.006753,3294.210641
149.719448,-74.020594,7254.018232,3294.210641
149.719757,1554.432478,5551.544565,4519.963438
149.720067,-740.205942,5551.544565,7354.516781
149.720377,-2886.803174,4071.132681,4213.525239
149.720686,1998.556043,10362.883188,-6205.373534
149.720996,-666.185348,14285.974681,-7660.954980
149.721305,518.144159,12065.356855,-9806.022374
149.721615,-518.144159,8956.491898,-4749.792088
149.721924,-3775.050304,15174.221811,612.876398
149.722234,6439.791695,9770.718434,-3753.867940
149.722544,3108.864956,7698.141797,-4290.134789
149.722853,-1184.329507,2146.597232,8273.831378
149.723163,-3701.029710,2738.761985,10189.070123
149.723472,2368.659014,10732.986159,-1532.190996
149.723782,3552.988522,7476.080014,-4290.134789
149.724091,-2294.638420,10955.047942,2604.724693
149.724401,-1776.494261,14952.160028,689.485948
149.724710,7772.162391,13471.748144,-4136.915689
149.725020,-2590.720797,10955.047942,-6435.202183
149.725330,-4071.132681,7846.182985,-4519.963438
149.725639,-222.061783,9252.574275,-459.657299
149.725949,-2368.659014,8882.471304,4443.353888
149.726258,2368.659014,13027.624579,2221.676944
149.726568,-222.061783,11325.150913,-1455.581446
149.726877,370.102971,7254.018232,1838.629195
149.727187,2516.700203,9474.636058,-919.314598
149.727497,-3182.885551,9474.636058,-5515.887586
149.727806,2072.576638,11103.089130,0.000000
149.728116,-4293.194464,10658.965565,-383.047749
149.728425,1332.370696,12953.603985,-4903.011187
149.728735,3701.029710,5181.441594,-6128.763984
149.729044,1332.370696,5255.462188,-689.485948
149.729354,-2220.617826,7031.956449,6205.373534
149.729663,1184.329507,7476.080014,4673.182538
149.729973,-2960.823768,7550.100608,-689.485948
149.730283,666.185348,6143.709319,-4826.401637
149.730592,2220.617826,7772.162391,-4749.792088
149.730902,-1480.411884,11843.295072,-2757.943793
149.731211,-3330.926739,13915.871710,-2604.724693
149.731521,-962.267725,15840.407159,-3830.477490
149.731830,444.123565,15100.201217,-6128.763984
149.732140,-4293.194464,15100.201217,-7584.345430
149.732449,-2886.803174,16802.674883,-8044.002729
149.732759,5329.482782,7920.203579,-12563.966167
149.733069,-1554.432478,6661.853478,-8733.488677
149.733378,-2738.761985,5107.421000,1302.362347
149.733688,-2590.720797,6513.812290,1762.019645
149.733997,2886.803174,10436.903782,-7431.126331
149.734307,3404.947333,8512.368333,-11568.042020
149.734616,2960.823768,5995.668130,-13176.842566
149.734926,1036.288319,4293.194464,-7507.735880
149.735236,-3108.864956,6291.750507,-3447.429741
149.735545,1776.494261,6439.791695,-4366.744339
149.735855,2368.659014,7031.956449,-6741.640382
149.736164,1184.329507,13101.645173,-6205.373534
149.736474,-1332.370696,10955.047942,-8963.317327
149.736783,888.247130,12953.603985,-17160.539155
149.737093,222.061783,10584.944971,-17926.634653
149.737402,-2886.803174,7698.141797,-10495.508323
149.737712,518.144159,11029.068536,-9422.974625
149.738022,-0.000000,6957.935855,-6435.202183
149.738331,-1406.391290,11991.336260,-919.314598
149.738641,1184.329507,7179.997637,-5439.278036
149.738950,1924.535449,5181.441594,-15015.471761
149.739260,-2664.741391,4737.318029,-14709.033562
149.739569,-2072.576638,6957.935855,-12793.794817
149.739879,1702.473667,8364.327145,-15398.519510
149.740189,2368.659014,9918.759623,-8580.269578
149.740498,-1110.308913,14359.995275,-1838.629195
149.740808,-2294.638420,7846.182985,-4596.572988
149.741117,1332.370696,8364.327145,-11108.384721
149.741427,1702.473667,7550.100608,-15858.176809
149.741736,-5255.462188,9474.636058,-12563.966167
149.742046,3182.885551,12361.439231,-10342.289223
149.742355,-1332.370696,15544.324782,-10955.165621
149.742665,1702.473667,15470.304188,-11797.870669
149.742975,-5699.585753,12583.501014,-8044.002729
149.743284,-666.185348,12731.542202,-10342.289223
149.743594,-2368.659014,3330.926739,-14709.033562
149.743903,2812.782580,4959.379811,-17466.977354
149.744213,-4737.318029,5847.626942,-12870.404366
149.744522,518.144159,9178.553681,-7354.516781
149.744832,1628.453072,13027.624579,-10801.946522
149.745142,5477.523971,9844.739029,-11568.042020
149.745451,-296.082377,5551.544565,-3140.991542
149.745761,-2590.720797,5625.565159,-1532.190996
149.746070,1036.288319,9548.656652,-12870.404366
149.746380,4367.215058,6217.729913,-21297.454844
149.746689,1332.370696,11769.274478,-15704.957709
149.746999,-4441.235652,13471.748144,-6741.640382
149.747308,-1258.350101,15322.262999,-7431.126331
149.747618,4071.132681,11843.295072,-15781.567259
149.747928,5477.523971,11399.171507,-11951.089769
149.748237,-3627.009116,7624.121203,-2528.115143
149.748547,-4293.194464,7698.141797,-1149.143247
149.748856,3552.988522,12213.398043,-12640.575717
149.749166,5921.647536,11991.336260,-20071.702048
149.749475,-2886.803174,9326.594869,-12793.794817
149.749785,-3552.988522,11251.130318,-6052.154434
149.750095,-666.185348,11473.192101,-8963.317327
149.750404,2664.741391,18209.066173,-11874.480219
149.750714,4441.235652,7254.018232,-11491.432470
149.751023,-1702.473667,6217.729913,-4366.744339
149.751333,1406.391290,1924.535449,-995.924147
149.751642,-3256.906145,4663.297435,-3677.258390
149.751952,1110.308913,8290.306550,-5898.935335
149.752261,-666.185348,9696.697840,-10878.556072
149.752571,-2442.679609,13101.645173,-15934.786358
149.752881,-3182.885551,17246.798449,-16088.005458
149.753190,-1110.308913,16210.510130,-14096.157163
149.753500,-444.123565,14730.098246,-12793.794817
149.753809,-2146.597232,11399.171507,-10189.070123
149.754119,518.144159,6439.791695,-8427.050478
149.754428,2442.679609,6439.791695,-7124.688131
149.754738,5255.462188,2738.761985,-4903.011187
149.755048,1554.432478,3478.967927,-2221.676944
149.755357,-3552.988522,8438.347739,-2068.457845
149.755667,-1110.308913,11103.089130,-8580.269578
149.755976,-888.247130,11029.068536,-17773.415554
149.756286,1776.494261,14434.015869,-20761.187996
149.756595,-1036.288319,11029.068536,-18309.682402
149.756905,-592.164754,9548.656652,-13253.452115
149.757214,-740.205942,8956.491898,-10112.460574
149.757524,888.247130,9474.636058,-4673.182538
149.757834,444.123565,11843.295072,-919.314598
149.758143,1258.350101,8808.450710,-6281.983084
149.758453,4515.256246,8734.430116,-13789.718964
149.758762,3775.050304,7698.141797,-13942.938064
149.759072,-4145.153275,8290.306550,-10495.508323
149.759381,-3256.906145,10510.924376,-8120.612279
149.759691,592.164754,13989.892304,-10878.556072
149.760001,666.185348,12435.459826,-13023.623466
149.760310,-4515.256246,10584.944971,-13176.842566
149.760620,-1850.514855,9918.759623,-14862.252661
149.760929,2220.617826,8882.471304,-18079.853753
149.761239,-296.082377,8364.327145,-15092.081311
149.761548,-1110.308913,7476.080014,-6205.373534
149.761858,2664.741391,6957.935855,-3370.820191
149.762167,3478.967927,6883.915261,-6052.154434
149.762477,-518.144159,5551.544565,-5056.230287
149.762787,-2516.700203,5699.585753,-6358.592633
149.763096,-1406.391290,7624.121203,-11338.213370
149.763406,1702.473667,12139.377449,-18462.901502
149.763715,1036.288319,14211.954086,-20607.968896
149.764025,-2146.597232,14804.118840,-13100.233016
149.764334,-1406.391290,13545.768739,-5209.449386
149.764644,-888.247130,8290.306550,-6435.202183
149.764954,148.041188,5329.482782,-10725.336972
149.765263,444.123565,4219.173869,-7048.078582
149.765573,-3478.967927,6883.915261,-6052.154434
149.765882,296.082377,10436.903782,-10572.117872
149.766192,2664.741391,15618.345376,-14938.862211
149.766501,2072.576638,17838.963202,-15934.786358
149.766811,1110.308913,15100.201217,-13330.061665
149.767120,-296.082377,11473.192101,-11184.994271
149.767430,3478.967927,5699.585753,-10801.946522
149.767740,1184.329507,-0.000000,-7967.393179
149.768049,-1110.308913,-2368.659014,-2374.896044
149.768359,-2072.576638,740.205942,-306.438199
149.768668,-0.000000,5329.482782,-7890.783629
149.768978,2072.576638,15026.180623,-14325.985813
149.769287,-962.267725,16210.510130,-14479.204912
149.769597,-444.123565,17838.963202,-14555.814462
149.769907,-518.144159,16506.592507,-15934.786358
149.770216,1776.494261,14063.912898,-16317.834107
149.770526,-1406.391290,5995.668130,-10725.336972
149.770835,-3256.906145,7105.977043,-2298.286494
149.771145,-370.102971,6957.935855,-3064.381992
149.771454,1184.329507,8438.347739,-10189.070123
149.771764,1924.535449,9844.739029,-15321.909960
149.772073,370.102971,10510.924376,-14402.595362
149.772383,-1184.329507,10881.027347,-14555.814462
149.772693,148.041188,11843.295072,-12104.308868
149.773002,1702.473667,8586.388927,-10955.165621
149.773312,3478.967927,6291.750507,-7967.393179
149.773621,-1924.535449,2146.597232,-2451.505594
149.773931,1480.411884,1406.391290,-3447.429741
149.774240,2812.782580,5847.626942,-8963.317327
149.774550,1036.288319,10732.986159,-8886.707777
149.774860,-1258.350101,14285.974681,-7201.297681
149.775169,-222.061783,16210.510130,-12180.918418
149.775479,1110.308913,14359.995275,-16394.443657
149.775788,-2442.679609,13249.686362,-13406.671215
149.776098,-1480.411884,9992.780217,-11951.089769
149.776407,-0.000000,9252.574275,-10035.851024
149.776717,518.144159,8660.409521,-8273.831378
149.777026,-222.061783,9178.553681,-5515.887586
149.777336,962.267725,8808.450710,-5898.935335
149.777646,-0.000000,6735.874072,-7277.907231
149.777955,1110.308913,7105.977043,-8197.221829
149.778265,222.061783,7698.141797,-7890.783629
149.778574,1776.494261,8216.285956,-7048.078582
149.778884,-814.226536,6365.771101,-6128.763984
149.779193,-370.102971,8216.285956,-5669.106685
149.779503,1776.494261,8734.430116,-6894.859482
149.779813,814.226536,8882.471304,-7201.297681
149.780122,-1924.535449,10955.047942,-3677.258390
149.780432,-2368.659014,10510.924376,-1149.143247
149.780741,-1998.556043,11473.192101,-8273.831378
149.781051,-3256.906145,11769.274478,-9806.022374
149.781360,-4737.318029,11473.192101,-10265.679673
149.781670,-3404.947333,9918.759623,-13406.671215
149.781979,-4589.276840,11843.295072,-14479.204912
149.782289,-1998.556043,13397.727550,-12257.527968
149.782599,-444.123565,14063.912898,-12104.308868
149.782908,222.061783,14582.057057,-10418.898773
149.783218,1998.556043,14211.954086,-10189.070123
149.783527,-666.185348,11991.336260,-8886.707777
149.783837,-666.185348,11103.089130,-13713.109414
149.784146,-148.041188,8882.471304,-16930.710506
149.784456,-0.000000,7624.121203,-18539.511052
149.784766,1184.329507,8660.409521,-17926.634653
149.785075,2368.659014,7994.224174,-13330.061665
149.785385,4441.235652,7698.141797,-7431.126331
149.785694,3256.906145,5625.565159,-3753.867940
149.786004,10955.047942,4071.132681,-689.485948
149.786313,-6735.874072,3849.070898,-1915.238745
149.786623,-370.102971,7179.997637,-11338.213370
149.786932,-5033.400406,8216.285956,-24055.398637
149.787242,-2220.617826,13323.706956,-26966.561530
149.787552,-2516.700203,16136.489536,-23519.131789
149.787861,-3404.947333,17394.839637,-19612.044749
149.788171,7179.997637,16062.468941,-19612.044749
149.788480,-0.000000,10881.027347,-9882.631924
149.788790,1850.514855,9400.615463,-2604.724693
149.789099,10362.883188,-2738.761985,-5592.497135
149.789409,-4959.379811,4959.379811,-2451.505594
149.789718,14878.139434,22354.219448,5515.887586
149.790028,-5995.668130,2442.679609,-17007.320056
149.790338,2516.700203,1258.350101,-40143.404095
149.790647,-20429.683999,6661.853478,-10725.336972
149.790957,1110.308913,32198.958477,-4979.620737
149.791266,-4367.215058,19023.292709,-18309.682402
149.791576,-1406.391290,10510.924376,-24668.275036
149.791885,-8290.306550,6735.874072,-11338.213370
149.792195,-8734.430116,-3256.906145,-10265.679673
149.792505,-2812.782580,11029.068536,-10189.070123
149.792814,2368.659014,15026.180623,-5745.716235
149.793124,11991.336260,19393.395680,-17466.977354
149.793433,-1554.432478,5255.462188,-12410.747068
149.793743,-5773.606348,11029.068536,3753.867940
149.794052,-4959.379811,5329.482782,-4673.182538
149.794362,2664.741391,6957.935855,-27272.999729
149.794671,3552.988522,7105.977043,-19382.216099
149.794981,-6883.915261,6069.688724,-10955.165621
149.795291,-1554.432478,8142.265362,-9806.022374
149.795600,4515.256246,12731.542202,-10189.070123
149.795910,7994.224174,9770.718434,-9806.022374
149.796219,-518.144159,3034.844362,1072.533697
149.796529,-2886.803174,5477.523971,6741.640382
149.796838,-1110.308913,5477.523971,-3217.601092
149.797148,5625.565159,13323.706956,-21297.454844
149.797457,-0.000000,12065.356855,-19075.777900
149.797767,-2516.700203,16654.633695,-11874.480219
149.798077,-888.247130,15766.386565,-11951.089769
149.798386,3404.947333,19689.478057,-14325.985813
149.798696,-3330.926739,13767.830521,-5209.449386
149.799005,-3627.009116,10658.965565,-2068.457845
149.799315,148.041188,8438.347739,-10418.898773
149.799624,962.267725,7254.018232,-15934.786358
149.799934,2294.638420,7031.956449,-13176.842566
149.800243,3034.844362,7624.121203,-6894.859482
149.800553,-740.205942,13989.892304,-1762.019645
149.800863,-2886.803174,10362.883188,612.876398
149.801172,370.102971,11695.253884,-4826.401637
149.801482,-74.020594,9992.780217,-9346.365076
149.801791,-962.267725,7846.182985,-14479.204912
149.802101,-4885.359217,4737.318029,-12180.918418
149.802410,-5181.441594,8808.450710,-14632.424012
149.802720,-4145.153275,10658.965565,-10495.508323
149.803029,-3478.967927,13915.871710,-6818.249932
149.803339,1332.370696,17024.736666,-10648.727422
149.803649,3775.050304,10881.027347,-9806.022374
149.803958,-0.000000,8586.388927,-2604.724693
149.804268,-444.123565,5847.626942,-1225.752797
149.804577,-296.082377,6809.894666,-6128.763984
149.804887,370.102971,13397.727550,-9039.926876
149.805196,3182.885551,15100.201217,-15628.348159
149.805506,740.205942,11843.295072,-19918.482948
149.805816,-3849.070898,14434.015869,-11108.384721
149.806125,-148.041188,8142.265362,-12717.185267
149.806435,-2590.720797,7031.956449,-16394.443657
149.806744,6587.832884,7254.018232,-11414.822920
149.807054,-666.185348,2812.782580,-6358.592633
149.807363,-4219.173869,6291.750507,-2145.067394
149.807673,2516.700203,8438.347739,-7890.783629
149.807982,666.185348,7328.038826,-17007.320056
149.808292,2812.782580,14285.974681,-21603.893044
149.808602,370.102971,15100.201217,-17160.539155
149.808911,-6069.688724,16136.489536,-11108.384721
149.809221,1776.494261,11177.109724,-15704.957709
149.809530,3701.029710,8216.285956,-18156.463303
149.809840,4515.256246,4737.318029,-12410.747068
149.810149,-2368.659014,1554.432478,-3294.210641
149.810459,-3330.926739,8586.388927,153.219100
149.810768,6513.812290,9918.759623,-12180.918418
149.811078,6439.791695,10214.842000,-18922.558801
149.811388,-3775.050304,8142.265362,-12027.699319
149.811697,-5995.668130,13249.686362,-6588.421283
149.812007,-4663.297435,12065.356855,-14172.766713
149.812316,9104.533087,9474.636058,-22293.378992
149.812626,-1998.556043,9252.574275,-17160.539155
149.812935,-3552.988522,3701.029710,-3983.696590
149.813245,-2368.659014,5181.441594,2374.896044
149.813554,814.226536,9178.553681,-11338.213370
149.813864,2368.659014,9844.739029,-12563.966167
149.814174,-6809.894666,11251.130318,-7124.688131
149.814483,-1332.370696,17838.963202,-10572.117872
149.814793,-1554.432478,13027.624579,-21986.940793
149.815102,7994.224174,11547.212695,-24055.398637
149.815412,-3108.864956,6957.935855,-12640.575717
149.815721,-3775.050304,9326.594869,306.438199
149.816031,-222.061783,7550.100608,-2145.067394
149.816340,9548.656652,9030.512492,-10878.556072
149.816650,2812.782580,5107.421000,-13253.452115
149.816960,-0.000000,370.102971,-4443.353888
149.817269,-740.205942,6883.915261,-4443.353888
149.817579,-0.000000,10658.965565,-16471.053207
149.817888,-0.000000,11843.295072,-10572.117872
149.818198,-1184.329507,10807.006753,-7660.954980
149.818507,1850.514855,7254.018232,-10418.898773
149.818817,888.247130,8438.347739,-12563.966167
149.819127,-74.020594,6513.812290,-8044.002729
149.819436,1702.473667,6217.729913,-2298.286494
149.819746,2220.617826,6587.832884,2145.067394
149.820055,-4071.132681,8290.306550,2451.505594
149.820365,3775.050304,9474.636058,-4366.744339
149.820674,1776.494261,11621.233289,-13483.280765
149.820984,962.267725,12657.521608,-10801.946522
149.821293,-6291.750507,13323.706956,-8044.002729
149.821603,5625.565159,11177.109724,-12180.918418
149.821913,6735.874072,9622.677246,-8044.002729
149.822222,-3256.906145,5329.482782,8656.879127
149.822532,-6143.709319,6365.771101,13942.938064
149.822841,-518.144159,9326.594869,2374.896044
149.823151,4071.132681,10140.821405,-4979.620737
149.823460,814.226536,6883.915261,-10189.070123
149.823770,-2664.741391,13101.645173,-7048.078582
149.824079,-814.226536,15618.345376,-6128.763984
149.824389,-2738.761985,11769.274478,-2145.067394
149.824699,-0.000000,12953.603985,1532.190996
149.825008,1110.308913,11251.130318,2911.162892
149.825318,-4737.318029,9548.656652,5286.058936
149.825627,-1628.453072,9992.780217,306.438199
149.825937,4293.194464,9104.533087,-10878.556072
149.826246,2072.576638,11547.212695,-10648.727422
149.826556,-1776.494261,8808.450710,2068.457845
149.826865,-814.226536,15248.242405,3677.258390
149.827175,3627.009116,13323.706956,-995.924147
149.827485,-888.247130,9178.553681,-536.266849
149.827794,-1702.473667,8438.347739,-536.266849
149.828104,1628.453072,888.247130,-9576.193725
149.828413,4737.318029,6957.935855,-7201.297681
149.828723,666.185348,8438.347739,-842.705048
149.829032,-1628.453072,14285.974681,919.314598
149.829342,-3256.906145,10881.027347,4979.620737
149.829651,4515.256246,11695.253884,0.000000
149.829961,-2368.659014,7698.141797,-7048.078582
149.830271,-1554.432478,9178.553681,-5822.325785
149.830580,-888.247130,5033.400406,-5132.839837
149.830890,3997.112087,6735.874072,-10265.679673
149.831199,3552.988522,13545.768739,-3677.258390
149.831509,-1924.535449,16580.613101,6894.859482
149.831818,1406.391290,11547.212695,2451.505594
149.832128,2960.823768,11473.192101,-5286.058936
149.832438,1628.453072,8586.388927,-5209.449386
149.832747,592.164754,3997.112087,-4519.963438
149.833057,1702.473667,8734.430116,-6435.202183
149.833366,-2960.823768,10436.903782,-1302.362347
149.833676,1480.411884,13767.830521,2145.067394
149.833985,-2294.638420,11251.130318,0.000000
149.834295,-2146.597232,10732.986159,-459.657299
149.834604,148.041188,8734.430116,536.266849
149.834914,1480.411884,10214.842000,-7660.954980
149.835224,-2812.782580,9474.636058,-7660.954980
149.835533,-1258.350101,11251.130318,-995.924147
149.835843,-1258.350101,9474.636058,-2757.943793
149.836152,518.144159,9918.759623,-2681.334243
149.836462,-0.000000,11103.089130,2068.457845
149.836771,2442.679609,4885.359217,-1685.410096
149.837081,1184.329507,7698.141797,-3830.477490
149.837390,-74.020594,6439.791695,4290.134789
149.837700,296.082377,12435.459826,229.828649
149.838010,-2072.576638,7772.162391,-8044.002729
149.838319,3849.070898,10584.944971,-5439.278036
149.838629,-74.020594,2886.803174,-3753.867940
149.838938,1258.350101,6513.812290,-6818.249932
149.839248,-4145.153275,11991.336260,4136.915689
149.839557,2368.659014,7328.038826,6205.373534
149.839867,592.164754,6661.853478,-229.828649
149.840176,-1702.473667,8734.430116,-2451.505594
149.840486,814.226536,14434.015869,-6435.202183
149.840796,3552.988522,7328.038826,-10801.946522
149.841105,444.123565,9474.636058,-3753.867940
149.841415,-1554.432478,10436.903782,6741.640382
149.841724,2442.679609,12361.439231,766.095498
149.842034,-1998.556043,11843.295072,1915.238745
149.842343,-3182.885551,12435.459826,5898.935335
149.842653,3034.844362,7698.141797,-7354.516781
149.842963,5921.647536,11473.192101,-19918.482948
149.843272,1184.329507,8882.471304,-8120.612279
149.843582,740.205942,11029.068536,5362.668486
149.843891,-2294.638420,7772.162391,7431.126331
149.844201,4367.215058,11103.089130,12104.308868
149.844510,2886.803174,10732.986159,7277.907231
149.844820,5107.421000,2146.597232,-4673.182538
149.845129,-6883.915261,-1702.473667,459.657299
149.845439,-4219.173869,6587.832884,5898.935335
149.845749,2886.803174,14285.974681,-7967.393179
149.846058,6143.709319,14656.077652,-10725.336972
149.846368,-4811.338623,14211.954086,11951.089769
149.846677,-4737.318029,13619.789333,12334.137518
149.846987,-5403.503377,11917.315666,-995.924147
149.847296,-222.061783,12361.439231,-6894.859482
149.847606,1702.473667,3849.070898,-10418.898773
149.847915,-1258.350101,8142.265362,-5132.839837
149.848225,-3108.864956,13027.624579,3983.696590
149.848535,-666.185348,15248.242405,3830.477490
149.848844,8808.450710,12805.562797,-1532.190996
149.849154,3552.988522,1924.535449,612.876398
149.849463,-7105.977043,4071.132681,13023.623466
149.849773,-1184.329507,370.102971,6435.202183
149.850082,3923.091493,3404.947333,-10418.898773
149.850392,-814.226536,8142.265362,-8120.612279
149.850701,1480.411884,7920.203579,-6588.421283
149.851011,-2664.741391,13989.892304,-3447.429741
149.851321,-0.000000,12435.459826,3677.258390
149.851630,4811.338623,10881.027347,6281.983084
149.851940,-1628.453072,8512.368333,3524.039291
149.852249,-3997.112087,6217.729913,4443.353888
149.852559,-2516.700203,8364.327145,-2528.115143
149.852868,6883.915261,7550.100608,-15321.909960
149.853178,4071.132681,10881.027347,-11338.213370
149.853487,-5995.668130,18949.272115,5286.058936
149.853797,-3256.906145,14359.995275,6511.811733
149.854107,6587.832884,15470.304188,-2911.162892
149.854416,2738.761985,12213.398043,-5056.230287
149.854726,-3849.070898,8586.388927,-7660.954980
149.855035,-2886.803174,4737.318029,-4213.525239
149.855345,962.267725,4515.256246,-2374.896044
149.855654,5551.544565,8438.347739,-5515.887586
149.855964,1850.514855,14508.036463,919.314598
149.856274,-2738.761985,12953.603985,9652.803275
149.856583,-0.000000,7550.100608,1532.190996
149.856893,6069.688724,5033.400406,-6281.983084
149.857202,-2516.700203,6439.791695,-1991.848295
149.857512,-7624.121203,6217.729913,306.438199
149.857821,-4515.256246,11103.089130,-3830.477490
149.858131,8734.430116,12435.459826,-7354.516781
149.858440,-2368.659014,13249.686362,-1915.238745
149.858750,-6735.874072,13323.706956,3753.867940
149.859060,-7031.956449,9770.718434,-306.438199
149.859369,2664.741391,8808.450710,-6205.373534
149.859679,3182.885551,7698.141797,-10189.070123
149.859988,-4293.194464,12583.501014,-3600.648841
149.860298,-1258.350101,10881.027347,1302.362347
149.860607,9178.553681,4885.359217,-4826.401637
149.860917,4663.297435,6957.935855,842.705048
149.861226,-4737.318029,5551.544565,13176.842566
149.861536,-3923.091493,2886.803174,12793.794817
149.861846,-518.144159,6439.791695,76.609550
149.862155,1480.411884,8290.306550,-8886.707777
149.862465,-222.061783,10807.006753,-10878.556072
149.862774,-3108.864956,11177.109724,-8963.317327
149.863084,-1702.473667,12879.583391,-4366.744339
149.863393,2072.576638,12287.418637,-153.219100
149.863703,2812.782580,11029.068536,1532.190996
149.864012,-3849.070898,12805.562797,10035.851024
149.864322,-1480.411884,6809.894666,11261.603821
149.864632,3997.112087,7994.224174,-3907.087040
149.864941,1924.535449,8290.306550,-10342.289223
149.865251,370.102971,14063.912898,-1915.238745
149.865560,-2442.679609,12731.542202,-5286.058936
149.865870,3627.009116,14804.118840,-6971.469032
149.866179,1258.350101,18209.066173,3907.087040
149.866489,-2072.576638,9918.759623,2374.896044
149.866798,-740.205942,3849.070898,-2374.896044
149.867108,2072.576638,2960.823768,2451.505594
149.867418,-74.020594,4885.359217,-919.314598
149.867727,-1110.308913,9252.574275,-1302.362347
149.868037,3701.029710,12065.356855,-2451.505594
149.868346,1554.432478,9918.759623,-3370.820191
149.868656,1850.514855,11695.253884,-2681.334243
149.868965,-1776.494261,14063.912898,3064.381992
149.869275,1036.288319,8438.347739,2681.334243
149.869585,1850.514855,3034.844362,-1608.800546
149.869894,-666.185348,6661.853478,689.485948
149.870204,1184.329507,5625.565159,4060.306139
149.870513,-3849.070898,12139.377449,0.000000
149.870823,-2146.597232,13323.706956,-3140.991542
149.871132,1184.329507,16876.695478,-3600.648841
149.871442,4589.276840,13027.624579,-11414.822920
149.871751,-666.185348,9178.553681,-9959.241474
149.872061,-3182.885551,11029.068536,4596.572988
149.872371,-3330.926739,4071.132681,10495.508323
149.872680,4441.235652,5995.668130,1915.238745
149.872990,5107.421000,5773.606348,-2528.115143
149.873299,3775.050304,6957.935855,2298.286494
149.873609,-5551.544565,2368.659014,6894.859482
149.873918,-2664.741391,12435.459826,612.876398
149.874228,7179.997637,12879.583391,-11491.432470
149.874537,2442.679609,7328.038826,-10801.946522
149.874847,-6439.791695,5699.585753,6818.249932
149.875157,-1998.556043,9844.739029,5822.325785
149.875466,4293.194464,7698.141797,-4596.572988
149.875776,4885.359217,12435.459826,-1149.143247
149.876085,-296.082377,12287.418637,9729.412825
149.876395,-4441.235652,13767.830521,7507.735880
149.876704,1628.453072,14359.995275,-1762.019645
149.877014,2960.823768,17542.880825,-7737.564530
149.877323,-518.144159,17690.922014,-9882.631924
149.877633,-6809.894666,9918.759623,-4366.744339
149.877943,-3034.844362,14508.036463,-2451.505594
149.878252,5329.482782,2960.823768,-8427.050478
149.878562,1554.432478,7328.038826,536.266849
149.878871,-1998.556043,6217.729913,15475.129060
149.879181,-2220.617826,-1776.494261,6358.592633
149.879490,-148.041188,1850.514855,-2834.553343
149.879800,2886.803174,8586.388927,-1991.848295
149.880110,3849.070898,7846.182985,-3370.820191
149.880419,-1480.411884,12287.418637,-10112.460574
149.880729,-5773.606348,11621.233289,0.000000
149.881038,-592.164754,13841.851115,689.485948
149.881348,7105.977043,10066.800811,-10189.070123
149.881657,1332.370696,8290.306550,-8197.221829
149.881967,-5033.400406,15914.427753,7431.126331
149.882276,-6661.853478,10288.862594,9346.365076
149.882586,3256.906145,8364.327145,-1072.533697
149.882896,4885.359217,10881.027347,-5898.935335
149.883205,2590.720797,12583.501014,-7967.393179
149.883515,-10881.027347,6513.812290,-2604.724693
149.883824,-1998.556043,9474.636058,0.000000
149.884134,8216.285956,8216.285956,-10265.679673
149.884443,1702.473667,4811.338623,-9729.412825
149.884753,-4219.173869,6809.894666,11644.651570
149.885062,740.205942,7105.977043,12180.918418
149.885372,5847.626942,2368.659014,-1838.629195
149.885681,2664.741391,7254.018232,153.219100
149.885991,-3849.070898,9844.739029,4596.572988
149.886300,-592.164754,11399.171507,-7814.174080
149.886610,7328.038826,10955.047942,-7890.783629
149.886919,1258.350101,17172.777854,-1378.971896
149.887229,-6809.894666,15248.242405,0.000000
149.887538,-4589.276840,12657.521608,0.000000
149.887848,296.082377,10288.862594,-2374.896044
149.888157,1776.494261,7254.018232,-8120.612279
149.888466,-1628.453072,14211.954086,-6588.421283
149.888776,3182.885551,9770.718434,-2068.457845
149.889085,3404.947333,6809.894666,0.000000
149.889395,-3627.009116,4367.215058,7431.126331
149.889704,-3923.091493,7328.038826,10725.336972
149.890014,3256.906145,3552.988522,-383.047749
149.890323,4589.276840,7476.080014,-4443.353888
149.890633,-1110.308913,6143.709319,-3064.381992
149.890942,296.082377,11473.192101,-3294.210641
149.891252,1850.514855,10881.027347,-5056.230287
149.891561,1332.370696,13619.789333,5362.668486
149.891871,-11843.295072,18135.045579,11568.042020
149.892180,-2072.576638,15766.386565,-612.876398
149.892490,4219.173869,12361.439231,-16547.662757
149.892799,3330.926739,8364.327145,-17237.148705
149.893109,-888.247130,5255.462188,-7124.688131
149.893418,-6069.688724,8438.347739,7124.688131
149.893728,-148.041188,15396.283594,9193.145976
149.894037,6735.874072,7624.121203,4826.401637
149.894347,740.205942,2960.823768,2757.943793
149.894656,-2886.803174,2738.761985,612.876398
149.894965,1258.350101,7994.224174,-4979.620737
149.895275,4219.173869,5107.421000,-9652.803275
149.895584,-1406.391290,8438.347739,-1532.190996
149.895894,-4219.173869,16358.551318,6128.763984
149.896203,1924.535449,12213.398043,1072.533697
149.896513,666.185348,9178.553681,-1532.190996
149.896822,-1998.556043,11325.150913,4673.182538
149.897132,-3404.947333,9474.636058,306.438199
149.897441,-74.020594,11843.295072,-8044.002729
149.897751,1480.411884,13323.706956,-7354.516781
149.898060,1776.494261,16654.633695,-5362.668486
149.898370,962.267725,12583.501014,-3983.696590
149.898679,1702.473667,4885.359217,1608.800546
149.898989,-3182.885551,6735.874072,8350.440928
149.899298,-74.020594,-0.000000,7354.516781
149.899608,666.185348,1184.329507,1149.143247
149.899917,2146.597232,8882.471304,-5975.544884
149.900227,2072.576638,8290.306550,-5745.716235
149.900536,-4441.235652,9696.697840,0.000000
149.900845,1184.329507,11177.109724,-689.485948
149.901155,5847.626942,14211.954086,-6281.983084
149.901464,-4737.318029,16210.510130,-612.876398
149.901774,-7698.141797,13323.706956,6665.030833
149.902083,444.123565,11991.336260,-5745.716235
149.902393,-0.000000,8882.471304,-16547.662757
149.902702,-444.123565,10436.903782,-7431.126331
149.903012,-1110.308913,10955.047942,-919.314598
149.903321,-1776.494261,4959.379811,-1149.143247
149.903631,1480.411884,7105.977043,7967.393179
149.903940,-1628.453072,11029.068536,5132.839837
149.904250,740.205942,5255.462188,-6894.859482
149.904559,1406.391290,-518.144159,-8350.440928
149.904869,4737.318029,5255.462188,-5056.230287
149.905178,-4145.153275,4441.235652,-7354.516781
149.905488,-740.205942,8364.327145,1532.190996
149.905797,3849.070898,14063.912898,4826.401637
149.906107,-148.041188,11695.253884,306.438199
149.906416,-7624.121203,17542.880825,3753.867940
149.906726,-2960.823768,10955.047942,689.485948
149.907035,4071.132681,13915.871710,-14402.595362
149.907344,-1480.411884,13397.727550,-12793.794817
149.907654,-5181.441594,13915.871710,-2528.115143
149.907963,-592.164754,16432.571912,-4749.792088
149.908273,7550.100608,7179.997637,-7660.954980
149.908582,-0.000000,5921.647536,5822.325785
149.908892,-1480.411884,5847.626942,8273.831378
149.909201,4219.173869,-666.185348,1991.848295
149.909511,-1110.308913,1406.391290,2528.115143
149.909820,6365.771101,7550.100608,-842.705048
149.910130,1924.535449,8956.491898,-10801.946522
149.910439,-2442.679609,14804.118840,-2221.676944
149.910749,-2738.761985,13619.789333,4060.306139
149.911058,4219.173869,16358.551318,-6435.202183
149.911368,-518.144159,14730.098246,-5975.544884
149.911677,-3478.967927,12139.377449,1991.848295
149.911987,-5847.626942,13841.851115,229.828649
149.912296,1110.308913,10807.006753,-8503.660028
149.912606,7698.141797,6513.812290,-10418.898773
149.912915,-3182.885551,10510.924376,-3370.820191
149.913224,-1998.556043,9178.553681,6435.202183
149.913534,2146.597232,4293.194464,7890.783629
149.913843,3701.029710,6587.832884,-306.438199
149.914153,3849.070898,6809.894666,-1149.143247
149.914462,-3701.029710,3404.947333,842.705048
149.914772,-666.185348,3701.029710,-1378.971896
149.915081,6365.771101,8586.388927,-3294.210641
149.915391,-4219.173869,12879.583391,1072.533697
149.915700,-4737.318029,16210.510130,2298.286494
149.916010,-1554.432478,17024.736666,-4290.134789
149.916319,-0.000000,15396.283594,-6511.811733
149.916629,-4219.173869,10362.883188,-5056.230287
149.916938,592.164754,13027.624579,-5439.278036
149.917248,2738.761985,10362.883188,-3983.696590
149.917557,-666.185348,2072.576638,7431.126331
149.917867,-4737.318029,11399.171507,8733.488677
149.918176,4145.153275,10288.862594,0.000000
149.918486,4737.318029,6957.935855,-6435.202183
149.918795,3034.844362,1850.514855,0.000000
149.919104,-1406.391290,5699.585753,1149.143247
149.919414,-5403.503377,8364.327145,689.485948
149.919723,3552.988522,11917.315666,2068.457845
149.920033,5255.462188,8882.471304,-383.047749
149.920342,-7105.977043,10510.924376,2834.553343
149.920652,-5699.585753,14656.077652,-1455.581446
149.920961,814.226536,17912.983796,-12027.699319
149.921271,4515.256246,15840.407159,-14249.376263
149.921580,-888.247130,12361.439231,-3140.991542
149.921890,-6143.709319,14285.974681,5362.668486
149.922199,666.185348,11547.212695,1225.752797
149.922509,4885.359217,2220.617826,-306.438199
149.922818,740.205942,1406.391290,2528.115143
149.923128,-2664.741391,814.226536,-1455.581446
149.923437,-0.000000,1628.453072,-306.438199
149.923747,2220.617826,5995.668130,0.000000
149.924056,1850.514855,10214.842000,-1302.362347
149.924366,-0.000000,13545.768739,-3677.258390
149.924675,-888.247130,10436.903782,-612.876398
149.924985,222.061783,12435.459826,-2681.334243
149.925294,-2886.803174,12805.562797,-5439.278036
149.925603,-2960.823768,11769.274478,-4443.353888
149.925913,1406.391290,17542.880825,-4673.182538
149.926222,2294.638420,10214.842000,-4136.915689
149.926532,-2886.803174,8660.409521,3294.210641
149.926841,-1110.308913,11917.315666,5898.935335
149.927151,518.144159,12065.356855,-766.095498
149.927460,-1480.411884,5329.482782,-6511.811733
149.927770,-1184.329507,3108.864956,-3830.477490
149.928079,2664.741391,7624.121203,-8733.488677
149.928389,4145.153275,5181.441594,-8503.660028
149.928698,-1258.350101,3256.906145,3677.258390
149.929008,2960.823768,6735.874072,10265.679673
149.929317,-2886.803174,8364.327145,8503.660028
149.929627,-1036.288319,11325.150913,4596.572988
149.929936,5551.544565,13619.789333,-7124.688131
149.930246,3849.070898,10140.821405,-13559.890315
149.930555,-10362.883188,15174.221811,-2298.286494
149.930865,-2072.576638,18875.251521,-2911.162892
149.931174,11029.068536,12879.583391,-15628.348159
149.931483,-666.185348,9178.553681,-1762.019645
149.931793,-9918.759623,15322.262999,16011.395908
149.932102,1110.308913,9178.553681,995.924147
149.932412,7698.141797,2294.638420,-11874.480219
149.932721,1480.411884,2368.659014,-842.705048
149.933031,-0.000000,4219.173869,1991.848295
149.933340,-0.000000,6809.894666,919.314598
149.933650,3108.864956,11251.130318,8427.050478
149.933959,1702.473667,12583.501014,4366.744339
149.934269,-222.061783,10584.944971,-3983.696590
149.934578,-4441.235652,11177.109724,-6281.983084
149.934888,5033.400406,11917.315666,-10265.679673
149.935197,1258.350101,9548.656652,-12563.966167
149.935507,-3627.009116,11251.130318,1762.019645
149.935816,-7179.997637,13101.645173,9882.631924
149.936126,2886.803174,11843.295072,-766.095498
149.936435,5995.668130,11843.295072,-6205.373534
149.936745,-518.144159,6365.771101,3830.477490
149.937054,444.123565,6143.709319,2757.943793
149.937364,-740.205942,3330.926739,-3064.381992
149.937673,666.185348,8142.265362,306.438199
149.937982,-1480.411884,11473.192101,3600.648841
149.938292,3256.906145,12435.459826,-4136.915689
149.938601,1332.370696,11251.130318,-5592.497135
149.938911,592.164754,11029.068536,-2451.505594
149.939220,-2738.761985,7994.224174,1838.629195
149.939530,-2220.617826,10807.006753,2528.115143
149.939839,1036.288319,11103.089130,-1608.800546
149.940149,444.123565,10807.006753,-4979.620737
149.940458,-592.164754,12731.542202,-2298.286494
149.940768,-148.041188,12139.377449,-1762.019645
149.941077,3997.112087,11251.130318,-5286.058936
149.941387,-2220.617826,10140.821405,-2528.115143
149.941696,-5181.441594,5329.482782,5745.716235
149.942006,148.041188,13471.748144,-229.828649
149.942315,3627.009116,8142.265362,-8580.269578
149.942625,2886.803174,5773.606348,-6511.811733
149.942934,-1702.473667,8882.471304,2068.457845
149.943244,-3330.926739,9992.780217,4673.182538
149.943553,444.123565,7179.997637,1149.143247
149.943862,4737.318029,12953.603985,-2298.286494
149.944172,1924.535449,7624.121203,-4903.011187
149.944481,-8142.265362,10881.027347,3983.696590
149.944791,-148.041188,9400.615463,612.876398
149.945100,6513.812290,11177.109724,-14402.595362
149.945410,1036.288319,10658.965565,-11721.261119
149.945719,-6809.894666,9918.759623,5439.278036
149.946029,-1702.473667,10732.986159,3524.039291
149.946338,3256.906145,11769.274478,-5515.887586
149.946648,3552.988522,9548.656652,76.609550
149.946957,740.205942,9918.759623,1072.533697
149.947267,-2072.576638,5107.421000,1838.629195
149.947576,592.164754,6291.750507,-1455.581446
149.947886,-1554.432478,11991.336260,-7277.907231
149.948195,4663.297435,14137.933492,-9806.022374
149.948505,1480.411884,7698.141797,-4290.134789
149.948814,-2886.803174,5477.523971,1532.190996
149.949124,666.185348,3997.112087,536.266849
149.949433,-148.041188,6735.874072,1991.848295
149.949742,-0.000000,4071.132681,6128.763984
149.950052,1406.391290,6809.894666,0.000000
149.950361,-5107.421000,12287.418637,-3447.429741
149.950671,-296.082377,14952.160028,-2757.943793
149.950980,4885.359217,18875.251521,-7967.393179
149.951290,-0.000000,15692.365970,-8044.002729
149.951599,-2442.679609,13693.809927,-229.828649
149.951909,-4663.297435,11843.295072,459.657299
149.952218,-1406.391290,7179.997637,-4749.792088
149.952528,4663.297435,7624.121203,-2911.162892
149.952837,2738.761985,6439.791695,1149.143247
149.953147,-2812.782580,1628.453072,4519.963438
149.953456,-2220.617826,4589.276840,7890.783629
149.953766,3182.885551,7994.224174,0.000000
149.954075,8142.265362,5477.523971,-6741.640382
149.954385,-3552.988522,13471.748144,-2221.676944
149.954694,-3256.906145,14434.015869,306.438199
149.955004,5847.626942,12435.459826,-5822.325785
149.955313,2368.659014,11103.089130,-3524.039291
149.955623,-6069.688724,10584.944971,7124.688131
149.955932,-8438.347739,17838.963202,7660.954980
149.956241,-0.000000,10881.027347,-6052.154434
149.956551,5995.668130,14211.954086,-13100.233016
149.956860,2146.597232,11621.233289,-8044.002729
149.957170,-6809.894666,5551.544565,4290.134789
149.957479,-3330.926739,6217.729913,10342.289223
149.957789,2368.659014,5329.482782,842.705048
149.958098,3849.070898,1480.411884,-3524.039291
149.958408,-1628.453072,8216.285956,3370.820191
149.958717,1776.494261,7105.977043,383.047749
149.959027,7031.956449,7105.977043,-8503.660028
149.959336,-74.020594,7402.059420,-766.095498
149.959646,-1776.494261,13323.706956,8733.488677
149.959955,-0.000000,15396.283594,2221.676944
149.960265,-4071.132681,12213.398043,-2681.334243
149.960574,2590.720797,13027.624579,-3907.087040
149.960884,962.267725,13397.727550,-7201.297681
149.961193,-4293.194464,9474.636058,-5056.230287
149.961503,-0.000000,15470.304188,1991.848295
149.961812,-148.041188,10807.006753,-2145.067394
149.962121,1036.288319,4071.132681,-766.095498
149.962431,-2886.803174,9548.656652,5362.668486
149.962740,296.082377,5403.503377,-1225.752797
149.963050,1776.494261,-1702.473667,-8197.221829
149.963359,444.123565,5255.462188,-612.876398
149.963669,962.267725,5773.606348,3600.648841
149.963978,2368.659014,10140.821405,2681.334243
149.964288,-0.000000,13175.665768,2834.553343
149.964597,-1554.432478,13619.789333,229.828649
149.964907,1406.391290,17246.798449,-6818.249932
149.965216,-1184.329507,10288.862594,-6894.859482
149.965526,-2960.823768,9178.553681,-4903.011187
149.965835,222.061783,12139.377449,-6818.249932
149.966145,-3182.885551,9030.512492,-2757.943793
149.966454,-592.164754,9696.697840,6281.983084
149.966764,1184.329507,6291.750507,2604.724693
149.967073,-2886.803174,-222.061783,-5286.058936
149.967383,-0.000000,9104.533087,459.657299
149.967692,2294.638420,6439.791695,0.000000
149.968002,4441.235652,6587.832884,-3983.696590
149.968311,1998.556043,12583.501014,-842.705048
149.968620,1332.370696,10955.047942,-536.266849
149.968930,2368.659014,11695.253884,1072.533697
149.969239,-2442.679609,9622.677246,2757.943793
149.969549,-3404.947333,12065.356855,-612.876398
149.969858,3627.009116,9770.718434,-4979.620737
149.970168,-2886.803174,6217.729913,-3064.381992
149.970477,-8290.306550,8882.471304,2451.505594
149.970787,1480.411884,16284.530724,-3753.867940
149.971096,4145.153275,11917.315666,-12870.404366
149.971406,-444.123565,8660.409521,-1991.848295
149.971715,-5033.400406,9622.677246,12563.966167
149.972025,-222.061783,5033.400406,2681.334243
149.972334,-222.061783,10658.965565,1149.143247
149.972644,2220.617826,7402.059420,2681.334243
149.972953,4071.132681,7476.080014,-4060.306139
149.973263,-1776.494261,9178.553681,-919.314598
149.973572,-4145.153275,9918.759623,2834.553343
149.973882,1332.370696,12361.439231,-4749.792088
149.974191,3034.844362,6957.935855,-5669.106685
149.974500,-4515.256246,7624.121203,5669.106685
149.974810,-2072.576638,10584.944971,1838.629195
149.975119,2368.659014,9770.718434,-7354.516781
149.975429,-444.123565,10140.821405,-1072.533697
149.975738,1110.308913,11325.150913,3294.210641
149.976048,4515.256246,13471.748144,-4213.525239
149.976357,1184.329507,12139.377449,383.047749
149.976667,-3849.070898,11769.274478,9806.022374
149.976976,3108.864956,14582.057057,1149.143247
149.977286,-1406.391290,12805.562797,-8503.660028
149.977595,-444.123565,6365.771101,-8733.488677
149.977905,1998.556043,11991.336260,-4903.011187
149.978214,-74.020594,4589.276840,-536.266849
149.978524,-1554.432478,5033.400406,5209.449386
149.978833,222.061783,6439.791695,9346.365076
149.979143,-1184.329507,4663.297435,3830.477490
149.979452,-1850.514855,3034.844362,3370.820191
149.979762,-592.164754,7846.182985,-1455.581446
149.980071,2590.720797,9992.780217,-12487.356617
149.980380,-1406.391290,11547.212695,-8580.269578
149.980690,-1850.514855,11917.315666,1532.190996
149.980999,4737.318029,16654.633695,-2987.772442
149.981309,-2664.741391,14582.057057,1685.410096
149.981618,814.226536,12805.562797,9269.755526
149.981928,5403.503377,11103.089130,229.828649
149.982237,370.102971,3478.967927,-4596.572988
149.982547,-5625.565159,2886.803174,2374.896044
149.982856,-7328.038826,10510.924376,-612.876398
149.983166,7846.182985,10362.883188,-13789.718964
149.983475,6291.750507,9918.759623,-13713.109414
149.983785,-1258.350101,8438.347739,2374.896044
149.984094,-5255.462188,2960.823768,9882.631924
149.984404,-2294.638420,7031.956449,6511.811733
149.984713,7698.141797,5847.626942,5286.058936
149.985023,2516.700203,3849.070898,2374.896044
149.985332,-5773.606348,10881.027347,2604.724693
149.985642,-3182.885551,18801.230927,-4136.915689
149.985951,8216.285956,17690.922014,-19612.044749
149.986261,888.247130,15618.345376,-12104.308868
149.986570,-9770.718434,11695.253884,6205.373534
149.986880,-5033.400406,13841.851115,3907.087040
149.987189,2812.782580,8734.430116,-8656.879127
149.987499,7846.182985,2368.659014,-7737.564530
149.987808,-148.041188,1480.411884,3524.039291
149.988118,-2812.782580,-1258.350101,6358.592633
149.988427,-1184.329507,5403.503377,5286.058936
149.988737,2812.782580,12879.583391,7890.783629
149.989046,4589.276840,10066.800811,1915.238745
149.989356,-2812.782580,12139.377449,-3524.039291
149.989665,-1924.535449,12657.521608,-5362.668486
149.989975,5033.400406,9474.636058,-14479.204912
149.990284,-148.041188,7105.977043,-9576.193725
149.990594,-6513.812290,13619.789333,9652.803275
149.990903,-1332.370696,14285.974681,3370.820191
149.991213,3627.009116,11695.253884,-6894.859482
149.991522,814.226536,9770.718434,536.266849
149.991832,-4885.359217,10807.006753,1838.629195
149.992141,444.123565,2516.700203,-8656.879127
149.992451,1850.514855,6735.874072,-8656.879127
149.992760,1406.391290,9400.615463,383.047749
149.993070,4515.256246,2294.638420,5745.716235
149.993379,-1702.473667,9030.512492,8963.317327
149.993689,888.247130,12731.542202,7660.954980
149.993998,370.102971,5329.482782,-1455.581446
149.994308,-1850.514855,8142.265362,-8656.879127
149.994617,-2812.782580,6957.935855,-9576.193725
149.994927,-3256.906145,9474.636058,-11261.603821
149.995236,-0.000000,14730.098246,-7967.393179
