#time,accel_x,accel_y,accel_z
132.206968,-518.144159,9326.594869,-1532.190996
132.207277,-148.041188,9770.718434,-919.314598
132.207587,518.144159,9918.759623,-689.485948
132.207897,-0.000000,9474.636058,-1225.752797
132.208206,1184.329507,10066.800811,2298.286494
132.208516,-518.144159,8660.409521,-1838.629195
132.208825,-74.020594,9400.615463,-1762.019645
132.209135,222.061783,9696.697840,-1455.581446
132.209445,296.082377,9400.615463,-995.924147
132.209754,370.102971,9178.553681,-1149.143247
132.210064,296.082377,9252.574275,-919.314598
132.210373,-0.000000,9400.615463,-1072.533697
132.210683,-148.041188,9326.594869,-2068.457845
132.210993,1258.350101,8290.306550,-3983.696590
132.211302,444.123565,9844.739029,-1532.190996
132.211612,-0.000000,10066.800811,-306.438199
132.211921,222.061783,9326.594869,-153.219100
132.212231,-0.000000,9474.636058,-689.485948
132.212541,-74.020594,9178.553681,-995.924147
132.212850,-0.000000,7920.203579,-2757.943793
132.213160,296.082377,9918.759623,-2681.334243
132.213469,-0.000000,11029.068536,-383.047749
132.213779,2220.617826,9104.533087,3753.867940
132.214089,222.061783,9178.553681,-536.266849
132.214398,592.164754,8734.430116,-1608.800546
132.214708,222.061783,7698.141797,-2528.115143
132.215017,-296.082377,8956.491898,-1608.800546
132.215327,370.102971,9770.718434,-3064.381992
132.215637,962.267725,8734.430116,612.876398
132.215946,1776.494261,8438.347739,1072.533697
132.216256,3701.029710,5921.647536,459.657299
132.216565,2590.720797,6217.729913,4213.525239
132.216875,2664.741391,9178.553681,10725.336972
132.217185,-2294.638420,5773.606348,10955.165621
132.217494,6217.729913,9400.615463,7814.174080
132.217804,5403.503377,7031.956449,2757.943793
132.218113,2294.638420,5995.668130,8044.002729
132.218423,-2664.741391,9622.677246,15015.471761
132.218733,370.102971,11843.295072,10112.460574
132.219042,2146.597232,10140.821405,3294.210641
132.219352,-0.000000,12435.459826,7124.688131
132.219661,-592.164754,13101.645173,8350.440928
132.219971,-15914.427753,8216.285956,11797.870669
132.220281,24648.857869,21539.992912,-5056.230287
132.220590,-12953.603985,6587.832884,5362.668486
132.220900,-8660.409521,14137.933492,24515.055936
132.221209,-8512.368333,9400.615463,22063.550342
132.221519,2812.782580,9030.512492,-2757.943793
132.221829,9918.759623,17394.839637,-6205.373534
132.222138,-16210.510130,5403.503377,13023.623466
132.222448,-740.205942,10658.965565,11721.261119
132.222757,-222.061783,2294.638420,2145.067394
132.223067,-4071.132681,9474.636058,6741.640382
132.223377,666.185348,4885.359217,17466.977354
132.223686,-222.061783,1850.514855,9882.631924
132.223996,-1184.329507,5329.482782,11874.480219
132.224305,-2146.597232,4589.276840,17773.415554
132.224615,3552.988522,8734.430116,5132.839837
132.224925,-4367.215058,3849.070898,3830.477490
132.225234,-1258.350101,16432.571912,9422.974625
132.225544,222.061783,10288.862594,-1991.848295
132.225853,6513.812290,15396.283594,-1378.971896
132.226163,370.102971,12213.398043,19612.044749
132.226473,-1036.288319,5699.585753,24515.055936
132.226782,4293.194464,7254.018232,19688.654299
132.227092,-370.102971,3478.967927,11414.822920
132.227401,2146.597232,10807.006753,7660.954980
132.227711,5181.441594,12213.398043,-2528.115143
132.228021,5329.482782,16802.674883,-5362.668486
132.228330,-1702.473667,16950.716072,10572.117872
132.228640,-7698.141797,15988.448347,17007.320056
132.228949,-2368.659014,12361.439231,10342.289223
132.229259,2516.700203,9770.718434,-306.438199
132.229569,2220.617826,9178.553681,-1608.800546
132.229878,-222.061783,7328.038826,5056.230287
132.230188,-0.000000,11177.109724,15398.519510
132.230497,-1628.453072,9030.512492,14632.424012
132.230807,3923.091493,7179.997637,5898.935335
132.231117,4589.276840,4663.297435,1302.362347
132.231426,-5255.462188,1258.350101,4290.134789
132.231736,-6291.750507,7105.977043,8273.831378
132.232045,2368.659014,8660.409521,-1455.581446
132.232355,8956.491898,7402.059420,-7660.954980
132.232665,2368.659014,7179.997637,7890.783629
132.232974,-7402.059420,6365.771101,23442.522239
132.233284,-3478.967927,8364.327145,17466.977354
132.233593,4737.318029,10584.944971,229.828649
132.233903,2812.782580,10436.903782,-4903.011187
132.234213,-4663.297435,11251.130318,1991.848295
132.234522,-5329.482782,13989.892304,842.705048
132.234832,5033.400406,14656.077652,-6128.763984
132.235141,7179.997637,13027.624579,995.924147
132.235451,-3552.988522,9178.553681,21297.454844
132.235761,-2368.659014,6661.853478,27272.999729
132.236070,6513.812290,3478.967927,9193.145976
132.236380,2368.659014,4219.173869,2834.553343
132.236689,-4145.153275,7328.038826,8580.269578
132.236999,3997.112087,15544.324782,2604.724693
132.237309,18579.169144,8512.368333,-8503.660028
132.237618,1998.556043,7328.038826,14019.547613
132.237928,-7031.956449,9252.574275,25051.322785
132.238237,-7179.997637,222.061783,26277.075581
132.238547,12435.459826,13619.789333,2834.553343
132.238857,6735.874072,9844.739029,-11108.384721
132.239166,-4959.379811,11473.192101,3600.648841
132.239476,2516.700203,18431.127956,13866.328514
132.239785,-2368.659014,10955.047942,5592.497135
132.240095,3923.091493,16580.613101,9422.974625
132.240405,-5033.400406,10658.965565,21833.721693
132.240714,-7328.038826,5995.668130,9193.145976
132.241024,4737.318029,12287.418637,1915.238745
132.241333,5255.462188,16580.613101,1225.752797
132.241643,2220.617826,10214.842000,-2451.505594
132.241953,-2294.638420,10510.924376,11568.042020
132.242262,-814.226536,18061.024985,15398.519510
132.242572,1110.308913,7105.977043,1991.848295
132.242881,6587.832884,12065.356855,5822.325785
132.243191,-7920.203579,7698.141797,26353.685131
132.243501,-1184.329507,3552.988522,18769.339701
132.243810,6439.791695,5403.503377,5975.544884
132.244120,148.041188,2516.700203,6052.154434
132.244429,1332.370696,4515.256246,12027.699319
132.244739,1850.514855,6883.915261,9959.241474
132.245049,-4589.276840,8512.368333,12947.013916
132.245358,-0.000000,10584.944971,14709.033562
132.245668,3108.864956,9844.739029,4060.306139
132.245977,-1702.473667,4737.318029,2298.286494
132.246287,-8882.471304,7772.162391,12487.356617
132.246597,-4663.297435,9548.656652,13176.842566
132.246906,1258.350101,14359.995275,2221.676944
132.247216,4737.318029,15988.448347,1378.971896
132.247525,-74.020594,15544.324782,10572.117872
132.247835,-6809.894666,11843.295072,12947.013916
132.248145,-2146.597232,11399.171507,3753.867940
132.248454,-3182.885551,14211.954086,536.266849
132.248764,4515.256246,12657.521608,-6128.763984
132.249073,-1480.411884,9696.697840,-5439.278036
132.249383,-6883.915261,9696.697840,4136.915689
132.249693,296.082377,9770.718434,4673.182538
132.250002,1110.308913,3182.885551,3064.381992
132.250312,8364.327145,6439.791695,4443.353888
132.250621,-7105.977043,1258.350101,12027.699319
132.250931,-3330.926739,6513.812290,8810.098227
132.251241,6957.935855,7179.997637,-8273.831378
132.251550,7550.100608,3627.009116,-12257.527968
132.251860,592.164754,11917.315666,5745.716235
132.252169,-4811.338623,7476.080014,15475.129060
132.252479,1554.432478,11251.130318,4903.011187
132.252789,6365.771101,7105.977043,-4903.011187
132.253098,-296.082377,4367.215058,-383.047749
132.253408,-6069.688724,8290.306550,2987.772442
132.253717,-370.102971,9252.574275,-6281.983084
132.254027,7328.038826,20651.745782,-13713.109414
132.254337,2812.782580,12953.603985,-2987.772442
132.254646,-74.020594,11695.253884,6435.202183
132.254956,1406.391290,8882.471304,6205.373534
132.255265,2368.659014,9030.512492,5362.668486
132.255575,9326.594869,5255.462188,689.485948
132.255885,-3701.029710,5551.544565,4673.182538
132.256194,1850.514855,7328.038826,-229.828649
132.256504,7105.977043,6069.688724,-12793.794817
132.256813,7772.162391,11917.315666,-14019.547613
132.257123,-3997.112087,8364.327145,7354.516781
132.257433,-5477.523971,8142.265362,16088.005458
132.257742,4515.256246,9474.636058,4826.401637
132.258052,6661.853478,5551.544565,-4366.744339
132.258361,-6217.729913,3330.926739,2528.115143
132.258671,-10955.047942,8882.471304,7890.783629
132.258981,1924.535449,18135.045579,-11414.822920
132.259290,6883.915261,19245.354492,-21680.502593
132.259600,-9178.553681,16358.551318,1838.629195
132.259909,-11917.315666,16580.613101,17850.025103
132.260219,962.267725,13767.830521,-1149.143247
132.260529,5033.400406,9918.759623,-13559.890315
132.260838,-9918.759623,5995.668130,10112.460574
132.261148,-9400.615463,4071.132681,11108.384721
132.261457,8216.285956,4589.276840,-14785.643111
132.261767,9400.615463,9696.697840,-14862.252661
132.262077,-4293.194464,9178.553681,9806.022374
132.262386,-9992.780217,8216.285956,15245.300410
132.262696,2590.720797,-444.123565,5286.058936
132.263005,6513.812290,-592.164754,-229.828649
132.263315,-3701.029710,1406.391290,5669.106685
132.263624,-5847.626942,4071.132681,6971.469032
132.263934,3775.050304,6439.791695,-2145.067394
132.264243,9030.512492,12583.501014,-14785.643111
132.264553,-2220.617826,12657.521608,-3830.477490
132.264862,-4589.276840,14878.139434,14555.814462
132.265172,-3552.988522,9918.759623,9116.536426
132.265481,4663.297435,13545.768739,-3753.867940
132.265791,-2368.659014,10362.883188,3064.381992
132.266100,-7328.038826,12953.603985,7584.345430
132.266410,2442.679609,16432.571912,-9806.022374
132.266719,11769.274478,22502.260637,-20378.140247
132.267029,-1406.391290,16062.468941,-5822.325785
132.267338,-6809.894666,16432.571912,13942.938064
132.267648,1924.535449,9696.697840,7660.954980
132.267958,7550.100608,10362.883188,-4060.306139
132.268267,-1258.350101,-1406.391290,6588.421283
132.268577,-9326.594869,2590.720797,10648.727422
132.268886,5699.585753,3627.009116,-8580.269578
132.269196,8364.327145,9030.512492,-19688.654299
132.269505,1036.288319,10732.986159,-6665.030833
132.269815,-7031.956449,10658.965565,7814.174080
132.270124,1258.350101,4219.173869,6358.592633
132.270434,2516.700203,5181.441594,3830.477490
132.270743,-3923.091493,814.226536,5209.449386
132.271053,-7402.059420,1110.308913,3677.258390
132.271362,-1184.329507,6291.750507,-3294.210641
132.271672,6143.709319,13767.830521,-16011.395908
132.271981,2590.720797,12287.418637,-15015.471761
132.272291,-8068.244768,16728.654289,-2068.457845
132.272600,-666.185348,12139.377449,6358.592633
132.272910,962.267725,7920.203579,-1302.362347
132.273219,2072.576638,8142.265362,2987.772442
132.273529,-8364.327145,9548.656652,9193.145976
132.273838,2146.597232,10362.883188,-3370.820191
132.274148,9030.512492,9622.677246,-17160.539155
132.274458,3997.112087,11991.336260,-6588.421283
132.274767,-1628.453072,13767.830521,5286.058936
132.275077,1184.329507,8216.285956,5286.058936
132.275386,4959.379811,10214.842000,3140.991542
132.275696,-444.123565,3775.050304,6435.202183
132.276005,-6735.874072,4293.194464,8197.221829
132.276315,2516.700203,6883.915261,-4903.011187
132.276624,5181.441594,9696.697840,-19382.216099
132.276934,-1110.308913,12657.521608,-12027.699319
132.277243,-6809.894666,14359.995275,3600.648841
132.277553,3034.844362,16136.489536,2681.334243
132.277862,-0.000000,11769.274478,-2451.505594
132.278172,-4515.256246,5403.503377,4826.401637
132.278481,-13175.665768,4885.359217,12104.308868
132.278791,1628.453072,5477.523971,-6205.373534
132.279100,6957.935855,9770.718434,-20071.702048
132.279410,2146.597232,14285.974681,-15245.300410
132.279719,-5773.606348,10658.965565,3907.087040
132.280029,1702.473667,11473.192101,6205.373534
132.280338,2146.597232,6587.832884,2911.162892
132.280648,-888.247130,-518.144159,7048.078582
132.280957,-8512.368333,-148.041188,10878.556072
132.281267,296.082377,1184.329507,-1532.190996
132.281577,7550.100608,10807.006753,-14862.252661
132.281886,7550.100608,15914.427753,-16011.395908
132.282196,-5921.647536,13545.768739,-383.047749
132.282505,-888.247130,12435.459826,13559.890315
132.282815,3478.967927,10658.965565,3064.381992
132.283124,962.267725,8068.244768,-766.095498
132.283434,-7105.977043,6809.894666,14555.814462
132.283743,-2960.823768,5995.668130,7431.126331
132.284053,6143.709319,12509.480420,-18769.339701
132.284362,5033.400406,14434.015869,-18079.853753
132.284672,-7179.997637,15174.221811,153.219100
132.284981,-3997.112087,16136.489536,4903.011187
132.285291,-1110.308913,13767.830521,-459.657299
132.285600,2294.638420,9252.574275,536.266849
132.285910,-11843.295072,4367.215058,12027.699319
132.286219,-4885.359217,3997.112087,6128.763984
132.286529,5847.626942,6587.832884,-14938.862211
132.286838,7179.997637,10955.047942,-16777.491406
132.287148,-7031.956449,14137.933492,3983.696590
132.287457,-740.205942,12731.542202,7277.907231
132.287767,5921.647536,9474.636058,-2604.724693
132.288077,-814.226536,7105.977043,4749.792088
132.288386,-13323.706956,2738.761985,12717.185267
132.288696,-4515.256246,3701.029710,2757.943793
132.289005,8068.244768,6661.853478,-13636.499864
132.289315,8142.265362,14582.057057,-16088.005458
132.289624,-4293.194464,11251.130318,229.828649
132.289934,-2590.720797,14952.160028,9652.803275
132.290243,2664.741391,10732.986159,3064.381992
132.290553,5477.523971,5921.647536,-6358.592633
132.290862,-9548.656652,6883.915261,7354.516781
132.291172,-6735.874072,10436.903782,10418.898773
132.291481,7105.977043,10584.944971,-11491.432470
132.291791,14508.036463,13545.768739,-23212.693589
132.292100,-3775.050304,13101.645173,-2528.115143
132.292410,-4441.235652,14211.954086,10725.336972
132.292719,6661.853478,10732.986159,-2068.457845
132.293029,6069.688724,9474.636058,-7737.564530
132.293338,-4737.318029,6883.915261,11338.213370
132.293648,-6735.874072,5033.400406,11951.089769
132.293957,5995.668130,4293.194464,-12027.699319
132.294267,10584.944971,11177.109724,-19612.044749
132.294577,-4737.318029,9548.656652,-1685.410096
132.294886,-4071.132681,12509.480420,7507.735880
132.295196,3478.967927,11917.315666,-2145.067394
132.295505,5699.585753,10140.821405,-6741.640382
132.295815,-9844.739029,4441.235652,10725.336972
132.296124,-12509.480420,4515.256246,10342.289223
132.296434,4885.359217,4219.173869,-10035.851024
132.296743,9178.553681,11325.150913,-22982.864940
132.297053,-7846.182985,11917.315666,-6358.592633
132.297362,-7328.038826,13915.871710,7048.078582
132.297672,4219.173869,14434.015869,-1838.629195
132.297981,3256.906145,8808.450710,-6741.640382
132.298291,-6883.915261,3997.112087,7890.783629
132.298600,-10658.965565,4441.235652,11797.870669
132.298910,5033.400406,2442.679609,-8656.879127
132.299219,7179.997637,9696.697840,-18462.901502
132.299529,-1998.556043,10510.924376,-2604.724693
132.299838,-2886.803174,14508.036463,6358.592633
132.300148,4515.256246,11029.068536,-2298.286494
132.300457,3923.091493,9178.553681,-4903.011187
132.300767,-4293.194464,6439.791695,8733.488677
132.301076,-7846.182985,5699.585753,9346.365076
132.301386,4293.194464,10510.924376,-9422.974625
132.301696,6883.915261,13989.892304,-18462.901502
132.302005,-296.082377,11029.068536,-4673.182538
132.302315,-4367.215058,9622.677246,4290.134789
132.302624,3404.947333,12139.377449,995.924147
132.302934,4441.235652,11325.150913,-3524.039291
132.303243,-4293.194464,9474.636058,4443.353888
132.303553,-6883.915261,9696.697840,5362.668486
132.303862,2146.597232,5699.585753,-8120.612279
132.304172,6143.709319,11547.212695,-17237.148705
132.304481,962.267725,8364.327145,-9499.584175
132.304791,-4811.338623,6735.874072,5592.497135
132.305100,370.102971,10658.965565,7737.564530
132.305410,3701.029710,9400.615463,-2451.505594
132.305719,-962.267725,7254.018232,0.000000
132.306029,-7476.080014,5773.606348,4213.525239
132.306338,-296.082377,2960.823768,-5592.497135
132.306648,7698.141797,10510.924376,-12180.918418
132.306957,2664.741391,11325.150913,-7124.688131
132.307267,-2738.761985,12287.418637,4213.525239
132.307576,-962.267725,9400.615463,6052.154434
132.307886,5403.503377,11843.295072,-2221.676944
132.308196,-1332.370696,8068.244768,-229.828649
132.308505,-9104.533087,11399.171507,6741.640382
132.308815,2886.803174,10881.027347,-5286.058936
132.309124,9030.512492,10288.862594,-18079.853753
132.309434,2960.823768,13027.624579,-2604.724693
132.309743,-8364.327145,12361.439231,8580.269578
132.310053,4959.379811,11547.212695,1225.752797
132.310362,4663.297435,10140.821405,-3447.429741
132.310672,-888.247130,10436.903782,3524.039291
132.310981,-6957.935855,4811.338623,1225.752797
132.311291,3256.906145,5181.441594,-7967.393179
132.311600,5773.606348,7920.203579,-12334.137518
132.311910,2664.741391,9770.718434,-4519.963438
132.312219,-4885.359217,10510.924376,6128.763984
132.312529,-222.061783,11769.274478,4673.182538
132.312838,7105.977043,7920.203579,-1991.848295
132.313148,740.205942,9326.594869,-1378.971896
132.313457,-7624.121203,6365.771101,4826.401637
132.313767,-814.226536,7254.018232,-3064.381992
132.314076,4219.173869,7624.121203,-13942.938064
132.314386,5699.585753,12879.583391,-13942.938064
132.314695,-9030.512492,10362.883188,5669.106685
132.315005,-2368.659014,15914.427753,10801.946522
132.315315,6291.750507,6735.874072,-2451.505594
132.315624,1702.473667,4811.338623,-3907.087040
132.315934,-14434.015869,5699.585753,12180.918418
132.316243,-1924.535449,8734.430116,1225.752797
132.316553,11547.212695,10140.821405,-21680.502593
132.316862,5773.606348,13175.665768,-14632.424012
132.317172,-8734.430116,12213.398043,9422.974625
132.317481,-3404.947333,9844.739029,7890.783629
132.317791,8364.327145,6957.935855,-4213.525239
132.318100,-3701.029710,9400.615463,2451.505594
132.318410,-12509.480420,3256.906145,10265.679673
132.318719,2516.700203,8438.347739,-1685.410096
132.319029,9252.574275,10732.986159,-20301.530697
132.319338,5255.462188,13027.624579,-14402.595362
132.319648,-8438.347739,8364.327145,11644.651570
132.319957,-2368.659014,8216.285956,11108.384721
132.320267,6217.729913,5477.523971,-4673.182538
132.320576,-222.061783,7846.182985,-2911.162892
132.320886,-13249.686362,7402.059420,11261.603821
132.321195,3775.050304,12287.418637,-3753.867940
132.321505,4885.359217,11843.295072,-22216.769442
132.321815,3478.967927,11029.068536,-10725.336972
132.322124,-8512.368333,11695.253884,6665.030833
132.322434,-3404.947333,9992.780217,5592.497135
132.322743,5699.585753,9844.739029,-919.314598
132.323053,2516.700203,10066.800811,-995.924147
132.323362,-9474.636058,8438.347739,6818.249932
132.323672,1628.453072,5773.606348,2451.505594
132.323981,5699.585753,3997.112087,-15398.519510
132.324291,6069.688724,10732.986159,-13406.671215
132.324600,-6365.771101,9474.636058,7201.297681
132.324910,-3330.926739,9770.718434,10801.946522
132.325219,7920.203579,10288.862594,-2451.505594
132.325529,2072.576638,8882.471304,-5515.887586
132.325838,-12065.356855,4589.276840,11644.651570
132.326148,-5403.503377,6883.915261,4136.915689
132.326457,14285.974681,11103.089130,-22216.769442
132.326767,5847.626942,12435.459826,-20837.797546
132.327076,-10140.821405,10436.903782,10878.556072
132.327386,-1628.453072,13989.892304,12180.918418
132.327695,7846.182985,8290.306550,-3753.867940
132.328005,2812.782580,9326.594869,-1838.629195
132.328315,-10881.027347,9474.636058,10878.556072
132.328624,-814.226536,6217.729913,-1838.629195
132.328934,8808.450710,8068.244768,-18692.730151
132.329243,4811.338623,13915.871710,-14709.033562
132.329553,-4959.379811,13841.851115,3830.477490
132.329862,-1406.391290,11325.150913,9346.365076
132.330172,2590.720797,10214.842000,1915.238745
132.330481,3404.947333,7105.977043,-842.705048
132.330791,-3182.885551,1480.411884,6052.154434
132.331100,-7179.997637,4589.276840,229.828649
132.331410,4145.153275,10658.965565,-11261.603821
132.331719,11103.089130,12139.377449,-17313.758255
132.332029,-1776.494261,10732.986159,-3753.867940
132.332338,-9474.636058,12953.603985,14709.033562
132.332648,-0.000000,6513.812290,6971.469032
132.332957,6735.874072,7105.977043,-8503.660028
132.333267,-2368.659014,8808.450710,2757.943793
132.333576,-6883.915261,9178.553681,6128.763984
132.333886,9252.574275,7402.059420,-13483.280765
132.334195,3256.906145,11695.253884,-13713.109414
132.334505,-3108.864956,13175.665768,3447.429741
132.334814,-4219.173869,11547.212695,4903.011187
132.335124,2294.638420,15470.304188,-2757.943793
132.335434,740.205942,12139.377449,-3370.820191
132.335743,-1406.391290,4367.215058,1225.752797
132.336053,-2368.659014,7105.977043,-153.219100
132.336362,1110.308913,4811.338623,-4596.572988
132.336672,2368.659014,9326.594869,-3447.429741
132.336981,-1406.391290,10288.862594,-229.828649
132.337291,-2442.679609,13693.809927,4903.011187
132.337600,1924.535449,13027.624579,1149.143247
132.337910,4959.379811,8956.491898,-8350.440928
132.338219,-4441.235652,4515.256246,-2911.162892
132.338529,-9178.553681,4293.194464,7354.516781
132.338838,4145.153275,8364.327145,-3907.087040
132.339148,6661.853478,12657.521608,-15245.300410
132.339457,-2664.741391,11177.109724,-1532.190996
132.339767,-6217.729913,13323.706956,10725.336972
132.340076,7920.203579,13175.665768,-4519.963438
132.340386,3701.029710,6439.791695,-7584.345430
132.340695,-5773.606348,6883.915261,9269.755526
132.341005,-7179.997637,7698.141797,7048.078582
132.341314,4811.338623,6439.791695,-12257.527968
132.341624,3330.926739,11251.130318,-12563.966167
132.341934,-2220.617826,13175.665768,-459.657299
132.342243,-4071.132681,11769.274478,1915.238745
132.342553,3034.844362,7920.203579,-2145.067394
132.342862,1702.473667,8216.285956,-4596.572988
132.343172,296.082377,6291.750507,689.485948
132.343481,-7550.100608,5403.503377,8044.002729
132.343791,740.205942,9696.697840,-2145.067394
132.344100,11621.233289,10807.006753,-14709.033562
132.344410,1258.350101,9030.512492,-7507.735880
132.344719,-8512.368333,9400.615463,11031.775171
132.345029,592.164754,10584.944971,5592.497135
132.345338,7994.224174,7994.224174,-11414.822920
132.345648,2886.803174,11399.171507,-5439.278036
132.345957,-9918.759623,10732.986159,9346.365076
132.346267,1110.308913,8438.347739,1149.143247
132.346576,5551.544565,9622.677246,-11108.384721
132.346886,2960.823768,13249.686362,-6588.421283
132.347195,-8808.450710,11103.089130,6818.249932
132.347505,1628.453072,15840.407159,2604.724693
132.347814,8512.368333,10066.800811,-12104.308868
132.348124,5921.647536,5329.482782,-4673.182538
132.348433,-9770.718434,6143.709319,12487.356617
132.348743,-4737.318029,5329.482782,8580.269578
132.349053,7698.141797,5329.482782,-9652.803275
132.349362,4811.338623,9178.553681,-13100.233016
132.349672,-11325.150913,10436.903782,6511.811733
132.349981,2294.638420,15544.324782,6358.592633
132.350291,8660.409521,8142.265362,-14862.252661
132.350600,6883.915261,7179.997637,-11721.261119
132.350910,-12287.418637,6069.688724,15245.300410
132.351219,-8734.430116,8586.388927,9039.926876
132.351529,11029.068536,8216.285956,-11874.480219
132.351838,4441.235652,14434.015869,-11184.994271
132.352148,-7254.018232,11843.295072,4290.134789
132.352457,-1184.329507,9326.594869,2681.334243
132.352767,7179.997637,8216.285956,-9576.193725
132.353076,4885.359217,7031.956449,-6358.592633
132.353386,-8364.327145,9474.636058,9193.145976
132.353695,-7031.956449,10066.800811,7737.564530
132.354005,6217.729913,9252.574275,-7967.393179
132.354314,6661.853478,11473.192101,-13636.499864
132.354624,-9474.636058,7698.141797,3830.477490
132.354933,-1776.494261,12583.501014,7048.078582
132.355243,9178.553681,8068.244768,-13253.452115
132.355553,7402.059420,10362.883188,-12870.404366
132.355862,-9548.656652,9770.718434,14938.862211
132.356172,-7105.977043,10510.924376,13713.109414
132.356481,7328.038826,4959.379811,-11797.870669
132.356791,3923.091493,10214.842000,-13713.109414
132.357100,-9030.512492,10066.800811,4596.572988
132.357410,-1184.329507,11843.295072,1302.362347
132.357719,8956.491898,9622.677246,-12717.185267
132.358029,8216.285956,9474.636058,-5975.544884
132.358338,-8956.491898,6809.894666,13942.938064
132.358648,-6217.729913,2590.720797,12563.966167
132.358957,1702.473667,6957.935855,-3140.991542
132.359267,6883.915261,11177.109724,-11031.775171
132.359576,-4293.194464,13693.809927,-1378.971896
132.359886,-3034.844362,14211.954086,2987.772442
132.360195,8290.306550,15248.242405,-10112.460574
132.360505,5551.544565,10732.986159,-12027.699319
132.360814,-8586.388927,8808.450710,13559.890315
132.361124,-9178.553681,6957.935855,16394.443657
132.361433,6439.791695,8068.244768,-5745.716235
132.361743,10658.965565,9326.594869,-16241.224558
132.362053,-7105.977043,9992.780217,2528.115143
132.362362,-3923.091493,8364.327145,9806.022374
132.362672,8068.244768,8586.388927,-7277.907231
132.362981,5699.585753,10436.903782,-7507.735880
132.363291,-5181.441594,7994.224174,9039.926876
132.363600,-7179.997637,9696.697840,7431.126331
132.363910,1184.329507,8660.409521,-4213.525239
132.364219,7402.059420,10955.047942,-9193.145976
132.364529,-2294.638420,7698.141797,-995.924147
132.364838,-3330.926739,7179.997637,4673.182538
132.365148,3478.967927,11621.233289,1302.362347
132.365457,5255.462188,13619.789333,-5209.449386
132.365767,-3108.864956,11399.171507,1762.019645
132.366076,-5847.626942,10436.903782,7814.174080
132.366386,3701.029710,8586.388927,-5056.230287
132.366696,5329.482782,8882.471304,-14862.252661
132.367005,-2664.741391,8364.327145,-1608.800546
132.367315,-4959.379811,9104.533087,8886.707777
132.367624,5625.565159,10955.047942,-1072.533697
132.367934,8438.347739,9326.594869,-10648.727422
132.368243,-2886.803174,4737.318029,4903.011187
132.368553,-7105.977043,4515.256246,10189.070123
132.368862,-0.000000,4663.297435,-1838.629195
132.369172,4885.359217,10140.821405,-11874.480219
132.369481,3552.988522,9178.553681,-8886.707777
132.369791,-4219.173869,12361.439231,2681.334243
132.370101,4293.194464,13323.706956,2987.772442
132.370410,5033.400406,11695.253884,-5669.106685
132.370720,-1258.350101,10140.821405,-306.438199
132.371029,-5847.626942,6883.915261,9039.926876
132.371339,1036.288319,8512.368333,-1302.362347
132.371648,5107.421000,11621.233289,-10955.165621
132.371958,-1850.514855,12361.439231,-2145.067394
132.372267,-1702.473667,12287.418637,3294.210641
132.372577,2590.720797,9770.718434,-5669.106685
132.372886,2960.823768,6883.915261,-9116.536426
132.373196,-6143.709319,11991.336260,2757.943793
132.373506,-5477.523971,5477.523971,8503.660028
132.373815,-1184.329507,10510.924376,-3447.429741
132.374125,7994.224174,8808.450710,-10648.727422
132.374434,-2812.782580,6365.771101,-2987.772442
132.374744,-3701.029710,9178.553681,8350.440928
132.375053,-2146.597232,7994.224174,2145.067394
132.375363,6661.853478,6883.915261,-8810.098227
132.375672,888.247130,11325.150913,-3830.477490
132.375982,-8438.347739,8290.306550,6435.202183
132.376292,-4589.276840,10732.986159,1915.238745
132.376601,7402.059420,8438.347739,-8120.612279
132.376911,740.205942,12213.398043,-8350.440928
132.377220,-5699.585753,7105.977043,10801.946522
132.377530,-296.082377,10658.965565,7814.174080
132.377839,7402.059420,10881.027347,-8273.831378
132.378149,1184.329507,7698.141797,-2528.115143
132.378458,-7105.977043,10807.006753,12027.699319
132.378768,-4515.256246,11177.109724,-612.876398
132.379077,6587.832884,9622.677246,-15781.567259
132.379387,518.144159,15248.242405,-6588.421283
132.379697,-7328.038826,9326.594869,7354.516781
132.380006,1628.453072,9252.574275,4213.525239
132.380316,7846.182985,5107.421000,-6665.030833
132.380625,2738.761985,6513.812290,-1072.533697
132.380935,-6661.853478,5551.544565,12410.747068
132.381244,-7846.182985,8660.409521,7048.078582
132.381554,8438.347739,7402.059420,-13253.452115
132.381863,8216.285956,10881.027347,-17466.977354
132.382173,-4737.318029,7624.121203,-689.485948
132.382482,-7254.018232,10288.862594,10725.336972
132.382792,7772.162391,9178.553681,689.485948
132.383102,3627.009116,11621.233289,-3983.696590
132.383411,-9918.759623,5403.503377,14402.595362
132.383721,-4071.132681,7179.997637,14709.033562
132.384030,9178.553681,10510.924376,-15245.300410
132.384340,8142.265362,14137.933492,-19841.873398
132.384649,-6883.915261,10881.027347,3447.429741
132.384959,-4145.153275,13619.789333,7507.735880
132.385268,6217.729913,11103.089130,-6818.249932
132.385578,1998.556043,14285.974681,-3294.210641
132.385887,-9918.759623,8290.306550,14402.595362
132.386197,-1702.473667,7624.121203,5822.325785
132.386507,7179.997637,9400.615463,-18003.244203
132.386816,7624.121203,7550.100608,-12257.527968
132.387126,-5551.544565,8290.306550,4443.353888
132.387435,-2664.741391,8586.388927,6128.763984
132.387745,4071.132681,5033.400406,-995.924147
132.388054,4441.235652,7698.141797,-6128.763984
132.388364,-6735.874072,7772.162391,6894.859482
132.388673,-6809.894666,8660.409521,3370.820191
132.388983,5625.565159,9030.512492,-10035.851024
132.389293,4737.318029,12065.356855,-15321.909960
132.389602,-4071.132681,10807.006753,-1225.752797
132.389912,-962.267725,11621.233289,7814.174080
132.390221,2812.782580,13619.789333,-459.657299
132.390531,296.082377,9104.533087,-536.266849
132.390840,-8660.409521,8512.368333,11261.603821
132.391150,-2664.741391,9030.512492,2374.896044
132.391459,5847.626942,10955.047942,-13023.623466
132.391769,6069.688724,13471.748144,-12717.185267
132.392078,-2886.803174,8734.430116,-3370.820191
132.392388,-1036.288319,9844.739029,4290.134789
132.392698,1332.370696,6143.709319,3524.039291
132.393007,1258.350101,8808.450710,2221.676944
132.393317,-3256.906145,4071.132681,8120.612279
132.393626,-5477.523971,6957.935855,7584.345430
132.393936,4811.338623,10362.883188,-8963.317327
132.394245,5255.462188,10436.903782,-18922.558801
132.394555,-1924.535449,9030.512492,-7354.516781
132.394864,-1998.556043,10658.965565,4596.572988
132.395174,74.020594,9474.636058,766.095498
132.395483,2294.638420,9474.636058,689.485948
132.395793,-3108.864956,10214.842000,9346.365076
132.396103,-5255.462188,6291.750507,9729.412825
132.396412,2738.761985,10881.027347,-6511.811733
132.396722,1702.473667,15026.180623,-18079.853753
132.397031,1924.535449,11695.253884,-10112.460574
132.397341,-1258.350101,12435.459826,-2451.505594
132.397650,1850.514855,14804.118840,-2911.162892
132.397960,888.247130,11029.068536,2451.505594
132.398269,-6809.894666,5403.503377,13942.938064
132.398579,-4959.379811,5847.626942,11644.651570
132.398889,4515.256246,6069.688724,-4060.306139
132.399198,8216.285956,6291.750507,-15551.738609
132.399508,-518.144159,5107.421000,-8427.050478
132.399817,-3404.947333,7772.162391,612.876398
132.400127,592.164754,10807.006753,-1608.800546
132.400436,1332.370696,5551.544565,-1991.848295
132.400746,-4737.318029,9696.697840,10418.898773
132.401055,-8512.368333,6883.915261,10572.117872
132.401365,3034.844362,9252.574275,-5362.668486
132.401674,7550.100608,10955.047942,-15781.567259
132.401984,3256.906145,9696.697840,-8810.098227
132.402294,-3404.947333,9770.718434,-1762.019645
132.402603,-888.247130,9622.677246,2068.457845
132.402913,3775.050304,10066.800811,3907.087040
132.403222,-2812.782580,12435.459826,10725.336972
132.403532,-6143.709319,11029.068536,9499.584175
132.403841,-1332.370696,9030.512492,-4596.572988
132.404151,5995.668130,11177.109724,-17696.806004
132.404460,4367.215058,10658.965565,-17007.320056
132.404770,-2590.720797,9326.594869,-3983.696590
132.405079,-0.000000,14359.995275,2987.772442
132.405389,2738.761985,9696.697840,3907.087040
132.405699,-74.020594,7254.018232,8656.879127
132.406008,-6291.750507,4441.235652,13559.890315
132.406318,-1332.370696,5477.523971,2145.067394
132.406627,8216.285956,5921.647536,-13713.109414
132.406937,2812.782580,7846.182985,-17313.758255
132.407246,-1036.288319,12953.603985,-6128.763984
132.407556,-2146.597232,12287.418637,1685.410096
132.407865,2960.823768,11029.068536,1838.629195
132.408175,-3034.844362,10066.800811,5822.325785
132.408485,-6957.935855,8068.244768,14555.814462
132.408794,-2664.741391,7698.141797,4673.182538
132.409104,2664.741391,9992.780217,-12180.918418
132.409413,4737.318029,10288.862594,-16624.272307
132.409723,-2442.679609,10288.862594,-6665.030833
132.410032,-1480.411884,15544.324782,-1915.238745
132.410342,222.061783,10955.047942,-1915.238745
132.410651,-518.144159,13471.748144,3753.867940
132.410961,-6809.894666,4737.318029,14325.985813
132.411270,-3923.091493,7624.121203,7048.078582
132.411580,8438.347739,5255.462188,-10648.727422
132.411890,4293.194464,8142.265362,-15015.471761
132.412199,-1480.411884,8956.491898,-2451.505594
132.412509,-4293.194464,12879.583391,-1915.238745
132.412818,3775.050304,6587.832884,-6281.983084
132.413128,2072.576638,12731.542202,1149.143247
132.413437,-8808.450710,8586.388927,12410.747068
132.413747,-1628.453072,7772.162391,5822.325785
132.414056,6883.915261,6587.832884,-8427.050478
132.414366,5329.482782,11695.253884,-12257.527968
132.414675,-6069.688724,9992.780217,-3830.477490
132.414985,1702.473667,14656.077652,-229.828649
132.415295,1776.494261,9178.553681,-5898.935335
132.415604,2886.803174,13471.748144,-2681.334243
132.415914,-10510.924376,11473.192101,12257.527968
132.416223,-3034.844362,9400.615463,6971.469032
132.416533,5625.565159,8660.409521,-9193.145976
132.416842,2664.741391,10510.924376,-13789.718964
132.417152,-6661.853478,4441.235652,-2145.067394
132.417461,-74.020594,9400.615463,76.609550
132.417771,8068.244768,8734.430116,-8197.221829
132.418080,3256.906145,7624.121203,3294.210641
132.418390,-10955.047942,8660.409521,20607.968896
132.418700,-2368.659014,6809.894666,10801.946522
132.419009,7254.018232,4737.318029,-11414.822920
132.419319,4885.359217,11621.233289,-16164.615008
132.419628,-9844.739029,9918.759623,-5745.716235
132.419938,-222.061783,11177.109724,-5515.887586
132.420247,5033.400406,9252.574275,-7431.126331
132.420557,3552.988522,12657.521608,536.266849
132.420866,-9548.656652,7402.059420,17390.367805
132.421176,-2294.638420,6439.791695,11644.651570
132.421486,6365.771101,10214.842000,-7431.126331
132.421795,3923.091493,9696.697840,-12410.747068
132.422105,-5033.400406,8808.450710,-3447.429741
132.422414,-3997.112087,13249.686362,-4213.525239
132.422724,7550.100608,11917.315666,-11338.213370
132.423033,3627.009116,12953.603985,-4979.620737
132.423343,-9474.636058,9474.636058,14172.766713
132.423652,-2812.782580,4811.338623,12793.794817
132.423962,3701.029710,6587.832884,-6128.763984
132.424271,7031.956449,9696.697840,-12257.527968
132.424581,-4219.173869,6809.894666,-2528.115143
132.424891,-3182.885551,8512.368333,-995.924147
132.425200,7254.018232,11843.295072,-9652.803275
132.425510,2072.576638,12139.377449,-4290.134789
132.425819,-7772.162391,11991.336260,10495.508323
132.426129,-6143.709319,6587.832884,11721.261119
132.426438,5033.400406,9474.636058,-6358.592633
132.426748,4663.297435,9104.533087,-13942.938064
132.427057,-5551.544565,10436.903782,-2298.286494
132.427367,-740.205942,8956.491898,229.828649
132.427676,5921.647536,7698.141797,-8350.440928
132.427986,-0.000000,11473.192101,-2681.334243
132.428296,-9400.615463,9326.594869,13330.061665
132.428605,-3330.926739,8290.306550,10035.851024
132.428915,4589.276840,7476.080014,-4903.011187
132.429224,3182.885551,11103.089130,-11338.213370
132.429534,-4515.256246,7920.203579,-5056.230287
132.429843,-1702.473667,9178.553681,-3753.867940
132.430153,4145.153275,10732.986159,-8427.050478
132.430462,3330.926739,11251.130318,-4749.792088
132.430772,-7105.977043,9844.739029,11568.042020
132.431082,-6069.688724,8512.368333,10495.508323
132.431391,3552.988522,5181.441594,-2221.676944
132.431701,5995.668130,6809.894666,-10878.556072
132.432010,-4589.276840,9770.718434,-5362.668486
132.432320,-3627.009116,9178.553681,4903.011187
132.432629,2664.741391,11843.295072,-5669.106685
132.432939,3849.070898,12879.583391,-6128.763984
132.433248,-2738.761985,9252.574275,5209.449386
132.433558,-5995.668130,11991.336260,9422.974625
132.433867,2664.741391,11029.068536,-2145.067394
132.434177,5107.421000,7994.224174,-12104.308868
132.434487,-4737.318029,10510.924376,-3983.696590
132.434796,-3330.926739,7846.182985,2681.334243
132.435106,2072.576638,10214.842000,-7201.297681
132.435415,7402.059420,12731.542202,-9422.974625
132.435725,-6217.729913,12731.542202,3753.867940
132.436034,-5847.626942,10362.883188,10955.165621
132.436344,4589.276840,8364.327145,-3600.648841
132.436653,5107.421000,7994.224174,-14785.643111
132.436963,-1258.350101,7846.182985,-3217.601092
132.437272,-5329.482782,7031.956449,6588.421283
132.437582,1110.308913,7772.162391,-1072.533697
132.437892,7328.038826,8956.491898,-11031.775171
132.438201,-1924.535449,9178.553681,1455.581446
132.438511,-6217.729913,8586.388927,8656.879127
132.438820,1406.391290,9918.759623,-612.876398
132.439130,7031.956449,9474.636058,-10801.946522
132.439439,-2220.617826,13989.892304,-7890.783629
132.439749,-4293.194464,10658.965565,2451.505594
132.440058,1036.288319,11029.068536,-459.657299
132.440368,9400.615463,8216.285956,-5822.325785
132.440678,-3108.864956,11251.130318,1915.238745
132.440987,-5403.503377,8586.388927,12717.185267
132.441297,-1702.473667,11251.130318,1378.971896
132.441606,8068.244768,8290.306550,-16011.395908
132.441916,-2516.700203,10214.842000,-10955.165621
132.442225,-5255.462188,9622.677246,-1455.581446
132.442535,-0.000000,10510.924376,76.609550
132.442844,7328.038826,8364.327145,-5209.449386
132.443154,-888.247130,8586.388927,3217.601092
132.443463,-7254.018232,4071.132681,13483.280765
132.443773,-1554.432478,5477.523971,-995.924147
132.444083,7254.018232,5773.606348,-11338.213370
132.444392,2664.741391,11547.212695,-10342.289223
132.444702,-6735.874072,6143.709319,2068.457845
132.445011,-1628.453072,13767.830521,2681.334243
132.445321,7920.203579,7698.141797,-4519.963438
132.445630,296.082377,12805.562797,-2911.162892
132.445940,-10066.800811,7402.059420,11951.089769
132.446249,-2590.720797,9030.512492,5286.058936
132.446559,6217.729913,10436.903782,-12563.966167
132.446868,2516.700203,11399.171507,-12180.918418
132.447178,-4071.132681,10510.924376,-1225.752797
132.447488,-740.205942,11991.336260,1838.629195
132.447797,3034.844362,9844.739029,-2451.505594
132.448107,740.205942,13471.748144,1685.410096
132.448416,-6513.812290,8438.347739,9269.755526
132.448726,-2812.782580,8364.327145,4903.011187
132.449035,7105.977043,6957.935855,-9959.241474
132.449345,7772.162391,6883.915261,-17620.196454
132.449654,-3849.070898,6809.894666,-1225.752797
132.449964,-2812.782580,9474.636058,4213.525239
132.450273,4589.276840,7550.100608,-842.705048
132.450583,888.247130,12879.583391,-3217.601092
132.450893,-4959.379811,10362.883188,4596.572988
132.451202,-2590.720797,9770.718434,4749.792088
132.451512,5477.523971,9770.718434,-12717.185267
132.451821,1628.453072,11029.068536,-13406.671215
132.452131,-3034.844362,12065.356855,-1915.238745
132.452440,-1776.494261,12731.542202,1072.533697
132.452750,4737.318029,9622.677246,-3064.381992
132.453059,2960.823768,11547.212695,1072.533697
132.453369,-7105.977043,8216.285956,9193.145976
132.453679,-1776.494261,6217.729913,2451.505594
132.453988,4589.276840,6735.874072,-9806.022374
132.454298,5033.400406,5995.668130,-14019.547613
132.454607,-592.164754,9326.594869,-5592.497135
132.454917,-3997.112087,9400.615463,1225.752797
132.455226,2368.659014,10510.924376,1149.143247
132.455536,3627.009116,10955.047942,1072.533697
132.455845,-4959.379811,9548.656652,7431.126331
132.456155,-5773.606348,8808.450710,7431.126331
132.456464,5181.441594,10214.842000,-8427.050478
132.456774,6587.832884,9326.594869,-17773.415554
132.457084,-3552.988522,13101.645173,-5286.058936
132.457393,-3182.885551,10510.924376,2834.553343
132.457703,3034.844362,8512.368333,-2068.457845
132.458012,5847.626942,8956.491898,2145.067394
132.458322,-5255.462188,10214.842000,10801.946522
132.458631,-5699.585753,6291.750507,10955.165621
132.458941,5255.462188,7179.997637,-3830.477490
132.459250,3849.070898,6735.874072,-13636.499864
132.459560,1406.391290,9918.759623,-10648.727422
132.459869,-3701.029710,10881.027347,76.609550
132.460179,-0.000000,12435.459826,2374.896044
132.460489,2886.803174,11695.253884,-383.047749
132.460798,-444.123565,11843.295072,1762.019645
132.461108,-7328.038826,7550.100608,9499.584175
132.461417,518.144159,8512.368333,-153.219100
132.461727,7254.018232,6143.709319,-14862.252661
132.462036,2368.659014,7105.977043,-9729.412825
132.462346,-5033.400406,11177.109724,5132.839837
132.462655,1332.370696,9178.553681,1378.971896
132.462965,5107.421000,9178.553681,-5286.058936
132.463275,-1480.411884,11399.171507,4903.011187
132.463584,-5699.585753,6143.709319,9729.412825
132.463894,1332.370696,8512.368333,-1532.190996
132.464203,5551.544565,8364.327145,-13942.938064
132.464513,148.041188,9474.636058,-8580.269578
132.464822,-2368.659014,10881.027347,-153.219100
132.465132,5107.421000,12879.583391,-1762.019645
132.465441,4145.153275,10732.986159,1608.800546
132.465751,-1776.494261,11843.295072,5745.716235
132.466061,-6217.729913,7105.977043,9422.974625
132.466370,-1776.494261,12139.377449,-1532.190996
132.466680,7846.182985,6809.894666,-14096.157163
132.466989,-0.000000,12361.439231,-11721.261119
132.467299,-3404.947333,10140.821405,-2528.115143
132.467608,1776.494261,6439.791695,306.438199
132.467918,3330.926739,11917.315666,-2221.676944
132.468228,-370.102971,10510.924376,8197.221829
132.468537,-4589.276840,5921.647536,13636.499864
132.468847,-1776.494261,4737.318029,3064.381992
132.469156,4071.132681,6809.894666,-10265.679673
132.469466,1184.329507,8364.327145,-14632.424012
132.469775,444.123565,9474.636058,-9269.755526
132.470085,-2812.782580,13249.686362,2145.067394
132.470394,2516.700203,13249.686362,4903.011187
132.470704,-0.000000,13619.789333,2681.334243
132.471014,-2442.679609,10288.862594,8044.002729
132.471323,-2812.782580,5921.647536,7201.297681
132.471633,3775.050304,7105.977043,-7507.735880
132.471942,4145.153275,9030.512492,-13559.890315
132.472252,-4811.338623,11769.274478,-6358.592633
132.472561,-4663.297435,12361.439231,1838.629195
132.472871,7179.997637,12731.542202,-4290.134789
132.473181,-148.041188,13175.665768,-2604.724693
132.473490,-5773.606348,10881.027347,10495.508323
132.473800,-3701.029710,8142.265362,5975.544884
132.474109,6143.709319,3627.009116,-8580.269578
132.474419,4737.318029,4071.132681,-8963.317327
132.474728,-3775.050304,5625.565159,-612.876398
132.475038,-444.123565,8068.244768,0.000000
132.475347,2368.659014,8142.265362,-1072.533697
132.475657,1628.453072,12287.418637,3217.601092
132.475967,-3330.926739,9252.574275,6281.983084
132.476276,-4885.359217,11547.212695,612.876398
132.476586,3108.864956,9992.780217,-7507.735880
132.476895,1850.514855,11769.274478,-10112.460574
132.477205,-888.247130,11251.130318,-5209.449386
132.477514,-1036.288319,13027.624579,1302.362347
132.477824,2220.617826,11177.109724,-1608.800546
132.478134,1332.370696,12361.439231,2145.067394
132.478443,-2590.720797,9474.636058,10189.070123
132.478753,-5995.668130,11991.336260,5132.839837
132.479062,4663.297435,8364.327145,-7048.078582
132.479372,3478.967927,5995.668130,-13253.452115
132.479681,-2368.659014,9992.780217,-7354.516781
132.479991,-740.205942,10658.965565,-1302.362347
132.480300,5329.482782,7846.182985,-1608.800546
132.480610,1628.453072,10214.842000,3677.258390
132.480920,-1332.370696,7920.203579,13942.938064
132.481229,-2812.782580,6661.853478,7354.516781
132.481539,518.144159,4589.276840,-4903.011187
132.481848,4737.318029,9622.677246,-9959.241474
132.482158,-0.000000,7624.121203,-9806.022374
132.482467,-2664.741391,15544.324782,-5515.887586
132.482777,2886.803174,15544.324782,-229.828649
132.483087,-962.267725,10362.883188,3524.039291
132.483396,-74.020594,11251.130318,7048.078582
132.483706,-2368.659014,9474.636058,6588.421283
132.484015,-814.226536,3108.864956,-1225.752797
132.484325,3108.864956,8586.388927,-5056.230287
132.484634,-444.123565,9770.718434,-8273.831378
132.484944,-1850.514855,12657.521608,-6511.811733
132.485254,-148.041188,8660.409521,-153.219100
132.485563,2590.720797,13397.727550,612.876398
132.485873,-1184.329507,10881.027347,3600.648841
132.486182,-2738.761985,7254.018232,7048.078582
132.486492,2072.576638,5551.544565,842.705048
132.486801,4293.194464,6661.853478,-8044.002729
132.487111,1924.535449,6513.812290,-8350.440928
132.487420,-4293.194464,12657.521608,-919.314598
132.487730,-148.041188,10214.842000,-612.876398
132.488040,3552.988522,9622.677246,0.000000
132.488349,-3404.947333,12287.418637,2451.505594
132.488659,-4367.215058,13101.645173,3983.696590
132.488968,1184.329507,6439.791695,-3830.477490
132.489278,3330.926739,8512.368333,-3983.696590
132.489587,-1480.411884,7994.224174,-1685.410096
132.489897,1998.556043,9104.533087,-2451.505594
132.490207,-518.144159,7624.121203,766.095498
132.490516,1628.453072,12509.480420,5898.935335
132.490826,-3997.112087,12361.439231,6818.249932
132.491135,-1628.453072,11843.295072,-1532.190996
132.491445,-666.185348,10214.842000,-4903.011187
132.491754,2220.617826,9696.697840,-10495.508323
132.492064,1702.473667,9104.533087,-10112.460574
132.492373,-2146.597232,10214.842000,766.095498
132.492683,-1406.391290,9622.677246,1991.848295
132.492993,5107.421000,5551.544565,1762.019645
132.493302,148.041188,7328.038826,6435.202183
132.493612,-1184.329507,6883.915261,10189.070123
132.493921,2146.597232,4811.338623,-1608.800546
132.494231,3923.091493,7328.038826,-6971.469032
132.494540,296.082377,8438.347739,-5822.325785
132.494850,-1036.288319,10436.903782,-5898.935335
132.495160,-3478.967927,13397.727550,-2757.943793
132.495469,2368.659014,11177.109724,766.095498
132.495779,-1332.370696,12731.542202,229.828649
132.496088,-1184.329507,14063.912898,153.219100
132.496398,814.226536,7772.162391,2068.457845
132.496707,-0.000000,8660.409521,-229.828649
132.497017,4219.173869,8882.471304,-7584.345430
132.497326,962.267725,8068.244768,-3524.039291
132.497636,-4737.318029,11399.171507,4443.353888
132.497946,3478.967927,12139.377449,0.000000
132.498255,-296.082377,7994.224174,-3983.696590
132.498565,-296.082377,11177.109724,1532.190996
132.498874,-3108.864956,7105.977043,-229.828649
132.499184,888.247130,6735.874072,-7124.688131
132.499493,-1924.535449,5181.441594,-4136.915689
132.499803,-222.061783,8734.430116,842.705048
132.500113,814.226536,11769.274478,-2834.553343
132.500422,4663.297435,6957.935855,-306.438199
132.500732,-3330.926739,11399.171507,8044.002729
132.501041,-2738.761985,8734.430116,2451.505594
132.501351,-592.164754,11325.150913,-3370.820191
132.501660,1480.411884,10214.842000,-4443.353888
132.501970,2368.659014,9252.574275,-4443.353888
132.502279,-2368.659014,11843.295072,-612.876398
132.502589,-592.164754,12805.562797,1608.800546
132.502899,296.082377,8438.347739,2757.943793
132.503208,-1036.288319,10214.842000,766.095498
132.503518,-4737.318029,10362.883188,3217.601092
132.503827,-0.000000,10362.883188,-2757.943793
132.504137,3330.926739,10214.842000,-11797.870669
132.504446,1998.556043,10955.047942,-8427.050478
132.504756,962.267725,11103.089130,-612.876398
132.505066,-444.123565,10140.821405,-2604.724693
132.505375,2442.679609,5477.523971,6435.202183
132.505685,-1184.329507,6587.832884,10801.946522
132.505994,-3182.885551,4293.194464,5132.839837
132.506304,-1480.411884,10658.965565,-3830.477490
132.506613,592.164754,5921.647536,-10572.117872
132.506923,-2072.576638,10214.842000,-9959.241474
132.507233,888.247130,16284.530724,-11644.651570
132.507542,-2368.659014,11917.315666,-4136.915689
132.507852,-74.020594,11029.068536,4443.353888
132.508161,-148.041188,10140.821405,7354.516781
132.508471,-444.123565,5107.421000,7048.078582
132.508780,-962.267725,9400.615463,4290.134789
132.509090,4441.235652,6735.874072,-2911.162892
132.509399,740.205942,8734.430116,-3600.648841
132.509709,-1850.514855,15544.324782,-4596.572988
132.510019,2516.700203,14730.098246,-7814.174080
132.510328,-2072.576638,7698.141797,-4673.182538
132.510638,-2220.617826,12953.603985,6511.811733
132.510947,-2368.659014,9992.780217,4749.792088
132.511257,-2368.659014,6069.688724,-4673.182538
132.511566,2368.659014,4441.235652,-1378.971896
132.511876,148.041188,8364.327145,383.047749
132.512186,518.144159,12361.439231,-6128.763984
132.512495,2738.761985,9548.656652,-4136.915689
132.512805,-1554.432478,9622.677246,3600.648841
132.513114,1184.329507,10510.924376,5822.325785
132.513424,-2664.741391,9474.636058,2911.162892
132.513733,-888.247130,9622.677246,-3217.601092
132.514043,592.164754,2590.720797,-7431.126331
132.514352,-1924.535449,8586.388927,-3753.867940
132.514662,518.144159,10881.027347,-2298.286494
132.514972,1258.350101,12953.603985,-8350.440928
132.515281,1258.350101,12139.377449,919.314598
132.515591,-5699.585753,13027.624579,10112.460574
132.515900,814.226536,11251.130318,3600.648841
132.516210,518.144159,9252.574275,-7737.564530
132.516519,1702.473667,11177.109724,-10342.289223
132.516829,-0.000000,4885.359217,-2987.772442
132.517139,1332.370696,9252.574275,-4903.011187
132.517448,2146.597232,13323.706956,-6511.811733
132.517758,962.267725,9030.512492,3907.087040
132.518067,-2516.700203,9474.636058,12410.747068
132.518377,-592.164754,7254.018232,5286.058936
132.518686,-740.205942,6217.729913,-5286.058936
132.518996,592.164754,4885.359217,-9269.755526
132.519305,-3256.906145,7550.100608,-1991.848295
132.519615,2590.720797,12805.562797,-8503.660028
132.519925,1110.308913,13767.830521,-9039.926876
132.520234,-74.020594,9252.574275,2145.067394
132.520544,-1628.453072,7994.224174,12334.137518
132.520853,-2294.638420,13027.624579,8044.002729
132.521163,-222.061783,8586.388927,0.000000
132.521472,-1110.308913,7698.141797,-3983.696590
132.521782,-814.226536,7476.080014,-5209.449386
132.522092,1258.350101,11103.089130,-10725.336972
132.522401,370.102971,12731.542202,-12870.404366
132.522711,-740.205942,12509.480420,-1302.362347
132.523020,-3108.864956,10732.986159,8656.879127
132.523330,-1332.370696,9252.574275,7660.954980
132.523639,-592.164754,9104.533087,3140.991542
132.523949,-0.000000,6069.688724,-3830.477490
132.524259,-74.020594,7105.977043,-3983.696590
132.524568,4959.379811,5551.544565,-6971.469032
132.524878,962.267725,12213.398043,-7737.564530
132.525187,2960.823768,10214.842000,-1915.238745
132.525497,-2886.803174,7624.121203,7814.174080
132.525806,-3775.050304,10510.924376,10725.336972
132.526116,-740.205942,5921.647536,1302.362347
132.526425,444.123565,8808.450710,-5439.278036
132.526735,-3552.988522,6291.750507,-4596.572988
132.527045,4293.194464,11103.089130,-5669.106685
132.527354,1702.473667,12953.603985,-10418.898773
132.527664,518.144159,16284.530724,-2604.724693
132.527973,-4811.338623,9474.636058,6281.983084
132.528283,-3330.926739,11621.233289,8273.831378
132.528592,-888.247130,9326.594869,0.000000
132.528902,-0.000000,7254.018232,-5592.497135
132.529212,-0.000000,8364.327145,-6281.983084
132.529521,2294.638420,8586.388927,-7890.783629
132.529831,-592.164754,9030.512492,-5975.544884
132.530140,3552.988522,13175.665768,-3524.039291
132.530450,1184.329507,6957.935855,5056.230287
132.530759,-6883.915261,10510.924376,13176.842566
132.531069,-888.247130,5847.626942,7124.688131
132.531378,1036.288319,4071.132681,-9499.584175
132.531688,296.082377,6883.915261,-9882.631924
132.531998,888.247130,8364.327145,-4366.744339
132.532307,2294.638420,9252.574275,-5975.544884
132.532617,4663.297435,15322.262999,-6588.421283
132.532926,-592.164754,10214.842000,4136.915689
132.533236,-3849.070898,14804.118840,13023.623466
132.533545,-370.102971,10288.862594,3217.601092
132.533855,222.061783,7254.018232,-7967.393179
132.534165,2590.720797,8068.244768,-6741.640382
132.534474,-3923.091493,11177.109724,-4826.401637
132.534784,-1184.329507,10214.842000,-7507.735880
132.535093,3182.885551,13767.830521,-12104.308868
132.535403,1110.308913,12657.521608,-1762.019645
132.535712,-4885.359217,7254.018232,8963.317327
132.536022,814.226536,7105.977043,7967.393179
132.536331,1036.288319,6883.915261,-4749.792088
132.536641,2738.761985,3849.070898,-3600.648841
132.536951,-3034.844362,5329.482782,-536.266849
132.537260,-0.000000,9770.718434,-4826.401637
132.537570,5107.421000,12509.480420,-10189.070123
132.537879,962.267725,12287.418637,-1302.362347
132.538189,-3034.844362,12287.418637,6281.983084
132.538498,370.102971,8142.265362,5592.497135
132.538808,2368.659014,8142.265362,-3907.087040
132.539118,-1332.370696,6291.750507,-5515.887586
132.539427,-444.123565,9326.594869,-1838.629195
132.539737,-666.185348,9400.615463,-3370.820191
132.540046,4145.153275,12435.459826,-9346.365076
132.540356,3478.967927,13693.809927,-4903.011187
132.540665,-2886.803174,13027.624579,6971.469032
132.540975,-3404.947333,9252.574275,9882.631924
132.541284,-0.000000,10807.006753,-766.095498
132.541594,1850.514855,2738.761985,-7048.078582
132.541904,-1628.453072,5107.421000,-4519.963438
132.542213,-3552.988522,8364.327145,-2451.505594
132.542523,4959.379811,11177.109724,-7737.564530
132.542832,1924.535449,11991.336260,-7660.954980
132.543142,-2072.576638,11103.089130,7354.516781
132.543451,-3108.864956,10288.862594,9806.022374
132.543761,2516.700203,6217.729913,-1455.581446
132.544071,-518.144159,7772.162391,-4749.792088
132.544380,-370.102971,5329.482782,-1762.019645
132.544690,-2368.659014,4071.132681,-2451.505594
132.544999,3552.988522,10881.027347,-9193.145976
132.545309,3034.844362,11029.068536,-5822.325785
132.545618,-2812.782580,11547.212695,8503.660028
132.545928,-4811.338623,16358.551318,8810.098227
132.546238,1110.308913,11399.171507,-3907.087040
132.546547,3256.906145,6513.812290,-13176.842566
132.546857,-1924.535449,11547.212695,-1838.629195
132.547166,-3849.070898,5329.482782,-1608.800546
132.547476,5921.647536,11251.130318,-7660.954980
132.547785,740.205942,11325.150913,-4290.134789
132.548095,-4737.318029,7105.977043,7660.954980
132.548404,-1036.288319,11547.212695,10112.460574
132.548714,-1406.391290,12879.583391,-2911.162892
132.549024,2960.823768,7105.977043,-8350.440928
132.549333,-2590.720797,6957.935855,-4979.620737
132.549643,-518.144159,6291.750507,-3140.991542
132.549952,1628.453072,8956.491898,-3447.429741
132.550262,3330.926739,12065.356855,-2221.676944
132.550571,-5107.421000,7476.080014,6588.421283
132.550881,444.123565,10288.862594,9346.365076
132.551191,-1184.329507,9992.780217,-1149.143247
132.551500,3701.029710,9178.553681,-8886.707777
132.551810,-2886.803174,7920.203579,-4826.401637
132.552119,-1258.350101,11991.336260,-1532.190996
132.552429,-1554.432478,13471.748144,-4443.353888
132.552738,6513.812290,11695.253884,-7124.688131
132.553048,-2664.741391,7698.141797,5439.278036
132.553357,-1554.432478,12213.398043,9806.022374
132.553667,-2146.597232,8142.265362,-1532.190996
132.553977,4589.276840,8364.327145,-5669.106685
132.554286,-3478.967927,6439.791695,-2757.943793
132.554596,-1554.432478,8882.471304,-2068.457845
132.554905,2368.659014,11843.295072,-7277.907231
132.555215,3404.947333,10881.027347,-9422.974625
132.555524,-222.061783,8808.450710,2068.457845
132.555834,-2368.659014,12731.542202,7507.735880
132.556144,1184.329507,7105.977043,2451.505594
132.556453,4145.153275,5625.565159,-5669.106685
132.556763,-1332.370696,8660.409521,-3524.039291
132.557072,-1480.411884,4367.215058,-1302.362347
132.557382,-888.247130,9178.553681,-2221.676944
132.557691,5847.626942,12879.583391,-8810.098227
132.558001,1776.494261,8882.471304,-2145.067394
132.558310,-3923.091493,10288.862594,7354.516781
132.558620,148.041188,10140.821405,4290.134789
132.558930,3034.844362,12953.603985,-6741.640382
132.559239,518.144159,9326.594869,-3600.648841
132.559549,-5403.503377,8438.347739,919.314598
132.559858,-0.000000,11325.150913,-3370.820191
132.560168,5181.441594,9474.636058,-9269.755526
132.560477,-1702.473667,10584.944971,-2528.115143
132.560787,-1998.556043,9918.759623,3447.429741
132.561097,1036.288319,8512.368333,1532.190996
132.561406,2368.659014,11843.295072,-4903.011187
132.561716,2220.617826,9400.615463,-1608.800546
132.562025,-0.000000,6661.853478,1378.971896
132.562335,-2590.720797,9104.533087,3140.991542
132.562644,3923.091493,9178.553681,-4596.572988
132.562954,1036.288319,3108.864956,-4136.915689
132.563264,-1776.494261,7698.141797,2451.505594
132.563573,-3552.988522,10955.047942,7507.735880
132.563883,1702.473667,13471.748144,-3600.648841
132.564192,5995.668130,12065.356855,-5975.544884
132.564502,-2664.741391,13027.624579,-1991.848295
132.564811,-518.144159,13101.645173,383.047749
132.565121,1036.288319,7624.121203,-5132.839837
132.565430,3256.906145,9030.512492,-3140.991542
132.565740,-1776.494261,7105.977043,5515.887586
132.566050,-4737.318029,9622.677246,6205.373534
132.566360,2368.659014,11399.171507,-3753.867940
132.566669,3034.844362,9030.512492,-3907.087040
132.566979,-5033.400406,9622.677246,-1072.533697
132.567288,-1924.535449,7179.997637,383.047749
132.567598,3627.009116,9992.780217,-6971.469032
132.567907,1776.494261,9178.553681,-3140.991542
132.568217,-518.144159,7328.038826,5898.935335
132.568526,-3552.988522,5699.585753,8427.050478
132.568836,444.123565,11473.192101,-1378.971896
132.569145,3997.112087,9770.718434,-4826.401637
132.569455,-148.041188,7994.224174,-3524.039291
132.569764,-3182.885551,9844.739029,0.000000
132.570074,3330.926739,8216.285956,-2604.724693
132.570383,1184.329507,12139.377449,-3983.696590
132.570693,518.144159,9548.656652,2604.724693
132.571002,-4737.318029,5477.523971,6435.202183
132.571312,-0.000000,14063.912898,-2068.457845
132.571622,3552.988522,7698.141797,-7354.516781
132.571931,1184.329507,9326.594869,-4213.525239
132.572241,-4663.297435,14137.933492,0.000000
132.572550,2812.782580,9992.780217,-3064.381992
132.572860,2220.617826,7402.059420,-842.705048
132.573169,-3034.844362,7920.203579,5209.449386
132.573479,-2590.720797,5403.503377,6741.640382
132.573788,740.205942,9474.636058,-5362.668486
132.574098,3552.988522,7402.059420,-9499.584175
132.574407,1332.370696,9992.780217,-1455.581446
132.574717,-4441.235652,12879.583391,842.705048
132.575026,3478.967927,12435.459826,-1762.019645
132.575336,3330.926739,10658.965565,-1915.238745
132.575645,-2072.576638,5107.421000,4136.915689
132.575955,-6069.688724,4071.132681,5286.058936
132.576264,-148.041188,12065.356855,-3907.087040
132.576574,3256.906145,5033.400406,-13713.109414
132.576883,-1554.432478,10436.903782,-3370.820191
132.577193,-1258.350101,14582.057057,1532.190996
132.577502,3256.906145,12435.459826,-919.314598
132.577812,3552.988522,11991.336260,1762.019645
132.578121,-3034.844362,9252.574275,4519.963438
132.578431,-2368.659014,5403.503377,3140.991542
132.578740,814.226536,8142.265362,-3983.696590
132.579050,1184.329507,9474.636058,-10189.070123
132.579360,2072.576638,6513.812290,-4826.401637
132.579669,-1850.514855,16654.633695,-1302.362347
132.579979,-962.267725,13693.809927,-383.047749
132.580288,4663.297435,7105.977043,459.657299
132.580598,1110.308913,8512.368333,1378.971896
132.580907,-3849.070898,5625.565159,5975.544884
132.581217,1480.411884,8882.471304,1838.629195
132.581526,3330.926739,7105.977043,-8427.050478
132.581836,222.061783,7550.100608,-6511.811733
132.582145,1258.350101,9622.677246,3217.601092
132.582455,-1924.535449,14211.954086,-2834.553343
132.582764,4293.194464,11695.253884,-3983.696590
132.583074,-2442.679609,6809.894666,3753.867940
132.583383,-2442.679609,10362.883188,4290.134789
132.583693,-1036.288319,6217.729913,3677.258390
132.584002,-518.144159,8808.450710,-4596.572988
132.584312,-148.041188,7031.956449,-4060.306139
132.584621,-0.000000,11843.295072,-3907.087040
132.584931,-1480.411884,15100.201217,-3447.429741
132.585240,3108.864956,9992.780217,-2604.724693
132.585550,1258.350101,11769.274478,-1225.752797
132.585859,-3404.947333,7772.162391,5056.230287
132.586169,-1850.514855,3849.070898,7354.516781
132.586479,222.061783,6587.832884,-1838.629195
132.586788,1628.453072,7328.038826,-7814.174080
132.587098,1850.514855,7402.059420,-3753.867940
132.587407,-1850.514855,9992.780217,-2145.067394
132.587717,2886.803174,13397.727550,-4903.011187
132.588026,-148.041188,12287.418637,1378.971896
132.588336,148.041188,8364.327145,6511.811733
132.588645,-3552.988522,9770.718434,1685.410096
132.588955,740.205942,9252.574275,-6205.373534
132.589264,-0.000000,6217.729913,-2681.334243
132.589574,814.226536,10436.903782,-5362.668486
132.589883,1258.350101,10362.883188,-3294.210641
132.590193,1554.432478,13175.665768,76.609550
132.590502,296.082377,11769.274478,3600.648841
132.590812,-148.041188,8216.285956,4596.572988
132.591121,-1406.391290,3849.070898,4903.011187
132.591431,-2146.597232,6883.915261,-4596.572988
132.591740,666.185348,5625.565159,-10189.070123
132.592050,1776.494261,5699.585753,-8810.098227
132.592359,-4367.215058,11695.253884,-2987.772442
132.592669,3034.844362,16210.510130,-1608.800546
132.592978,4441.235652,9326.594869,2451.505594
132.593288,-1554.432478,10510.924376,8503.660028
132.593597,-1184.329507,4811.338623,9346.365076
132.593907,-1258.350101,8068.244768,-4519.963438
132.594217,2368.659014,5699.585753,-11568.042020
132.594526,888.247130,7772.162391,-8427.050478
132.594836,-1258.350101,13619.789333,-3447.429741
132.595145,222.061783,17024.736666,-4903.011187
132.595455,5329.482782,11991.336260,1302.362347
132.595764,-3997.112087,8808.450710,11721.261119
132.596074,-3997.112087,7254.018232,11184.994271
132.596383,4071.132681,5995.668130,-3677.258390
132.596693,3256.906145,6143.709319,-8886.707777
132.597002,-2516.700203,11399.171507,-5209.449386
132.597312,-5255.462188,12361.439231,-3140.991542
132.597621,5181.441594,18283.086767,-7660.954980
132.597931,1628.453072,12287.418637,-689.485948
132.598240,296.082377,10288.862594,7890.783629
132.598550,-5625.565159,10066.800811,9806.022374
132.598859,1332.370696,3478.967927,-1685.410096
132.599169,4145.153275,2960.823768,-6128.763984
132.599478,-592.164754,4885.359217,-1915.238745
132.599788,-2590.720797,7624.121203,2374.896044
132.600097,740.205942,13249.686362,-5898.935335
132.600407,3997.112087,12731.542202,-8197.221829
132.600716,-2590.720797,7254.018232,3370.820191
132.601026,-4145.153275,9918.759623,7354.516781
132.601335,2738.761985,5921.647536,-5209.449386
132.601645,2738.761985,7328.038826,-6281.983084
132.601955,-888.247130,8882.471304,2298.286494
132.602264,-4145.153275,7179.997637,5592.497135
132.602574,5995.668130,16506.592507,-6128.763984
132.602883,3182.885551,11399.171507,-6281.983084
132.603193,-3627.009116,10658.965565,3524.039291
132.603502,-5033.400406,12287.418637,7201.297681
132.603812,-0.000000,12287.418637,-4366.744339
132.604121,2072.576638,10584.944971,-11568.042020
132.604431,2368.659014,4737.318029,-5132.839837
132.604740,-3701.029710,5181.441594,3370.820191
132.605050,-222.061783,13027.624579,5286.058936
132.605359,5033.400406,11473.192101,-5209.449386
132.605669,148.041188,4441.235652,1915.238745
132.605978,-4589.276840,6069.688724,12870.404366
132.606288,-1924.535449,12731.542202,3370.820191
132.606597,6883.915261,8068.244768,-14096.157163
132.606907,1406.391290,4589.276840,-7507.735880
132.607216,-7624.121203,12213.398043,2374.896044
132.607526,2294.638420,9918.759623,-5132.839837
132.607835,5921.647536,12583.501014,-17007.320056
132.608145,-0.000000,10807.006753,3294.210641
132.608454,-5107.421000,8808.450710,13406.671215
132.608764,-740.205942,11621.233289,3140.991542
132.609074,6957.935855,7550.100608,-7201.297681
132.609383,2072.576638,5255.462188,-6894.859482
132.609693,-4737.318029,9622.677246,-612.876398
132.610002,1480.411884,9548.656652,-4366.744339
132.610312,2516.700203,11843.295072,-9269.755526
132.610621,1850.514855,11621.233289,-2604.724693
132.610931,-666.185348,10362.883188,7584.345430
132.611240,-3849.070898,11251.130318,4979.620737
132.611550,5773.606348,8290.306550,-4290.134789
132.611859,-740.205942,5551.544565,-4366.744339
132.612169,-3330.926739,4885.359217,1378.971896
132.612478,-962.267725,7179.997637,-842.705048
132.612788,6291.750507,11029.068536,-10572.117872
132.613097,-2368.659014,10436.903782,-4596.572988
132.613407,-6735.874072,12361.439231,9499.584175
132.613716,-1406.391290,7772.162391,2987.772442
132.614026,7402.059420,9548.656652,-12104.308868
132.614335,-370.102971,5181.441594,-1685.410096
132.614645,-5847.626942,8068.244768,9499.584175
132.614954,-1628.453072,9918.759623,766.095498
132.615264,7105.977043,10510.924376,-10418.898773
132.615573,-740.205942,8438.347739,1302.362347
132.615883,-4367.215058,9474.636058,5362.668486
132.616192,-2886.803174,9844.739029,-2221.676944
132.616502,2886.803174,13915.871710,-5209.449386
132.616812,1924.535449,6587.832884,-4519.963438
132.617121,-1258.350101,10881.027347,-153.219100
132.617431,-4367.215058,7846.182985,1072.533697
132.617740,4663.297435,10658.965565,-2604.724693
132.618050,666.185348,7031.956449,459.657299
132.618359,-1036.288319,5107.421000,5592.497135
132.618669,-4293.194464,9030.512492,3983.696590
132.618978,3108.864956,8586.388927,-8886.707777
132.619288,2960.823768,4441.235652,-10342.289223
132.619597,-5107.421000,14137.933492,-1149.143247
132.619907,-2886.803174,12139.377449,459.657299
132.620216,10510.924376,9770.718434,-9576.193725
132.620526,-148.041188,6365.771101,-1302.362347
132.620835,-6217.729913,10732.986159,12640.575717
132.621145,-4737.318029,6809.894666,8656.879127
132.621454,6217.729913,10066.800811,-8427.050478
132.621764,370.102971,8660.409521,-7967.393179
132.622073,-5625.565159,8438.347739,612.876398
132.622383,-4589.276840,13767.830521,-1149.143247
132.622692,5995.668130,15692.365970,-11644.651570
132.623002,3404.947333,6957.935855,-6971.469032
132.623311,-7254.018232,9696.697840,6052.154434
132.623621,-4441.235652,9992.780217,5286.058936
132.623930,4885.359217,10288.862594,-5056.230287
132.624240,2590.720797,6439.791695,-5362.668486
132.624550,296.082377,6809.894666,2451.505594
132.624859,-3404.947333,6883.915261,3677.258390
132.625169,4737.318029,9252.574275,-5286.058936
132.625478,1998.556043,9622.677246,-4213.525239
132.625788,-3182.885551,10510.924376,2145.067394
132.626097,-7179.997637,12213.398043,2145.067394
132.626407,9252.574275,11103.089130,-7048.078582
132.626716,2516.700203,6587.832884,-8197.221829
132.627026,-2738.761985,14211.954086,4673.182538
132.627335,-5995.668130,10140.821405,9346.365076
132.627645,2294.638420,10807.006753,-2911.162892
132.627954,8216.285956,9622.677246,-7737.564530
132.628264,-3923.091493,4293.194464,919.314598
132.628573,-9548.656652,13545.768739,6281.983084
132.628883,3330.926739,11325.150913,-9422.974625
132.629192,4293.194464,7550.100608,-12563.966167
132.629502,-740.205942,13545.768739,842.705048
132.629811,-5847.626942,7550.100608,8580.269578
132.630121,7105.977043,9326.594869,-1532.190996
132.630430,2960.823768,8734.430116,-2221.676944
132.630740,-2960.823768,6291.750507,10801.946522
132.631049,-7254.018232,2812.782580,6818.249932
132.631359,-0.000000,9400.615463,-6971.469032
132.631669,2442.679609,8734.430116,-12334.137518
132.631978,-0.000000,11103.089130,-6052.154434
132.632288,-4441.235652,11695.253884,1532.190996
132.632597,4367.215058,12361.439231,-2068.457845
132.632907,4589.276840,12065.356855,-1991.848295
132.633216,-1628.453072,6735.874072,7814.174080
132.633526,-5033.400406,8956.491898,11184.994271
132.633835,1776.494261,7772.162391,-1455.581446
132.634145,3478.967927,10584.944971,-13100.233016
132.634454,-2072.576638,9030.512492,-7201.297681
132.634764,-6809.894666,12361.439231,153.219100
132.635073,3997.112087,16876.695478,-8503.660028
132.635383,3478.967927,10436.903782,-7967.393179
132.635692,222.061783,10288.862594,3600.648841
132.636002,-6291.750507,6809.894666,12947.013916
132.636311,4441.235652,8586.388927,0.000000
132.636621,2738.761985,4145.153275,-7890.783629
132.636930,1110.308913,3923.091493,1225.752797
132.637240,-3701.029710,6883.915261,3064.381992
132.637549,1998.556043,11621.233289,-4596.572988
132.637859,1850.514855,17838.963202,-7814.174080
132.638168,-3108.864956,8586.388927,153.219100
132.638478,-5255.462188,7994.224174,1762.019645
132.638787,-1332.370696,11547.212695,-5822.325785
132.639097,5033.400406,8438.347739,-11108.384721
132.639407,-3034.844362,6513.812290,-689.485948
132.639716,-1554.432478,14434.015869,5975.544884
132.640026,4367.215058,12657.521608,-229.828649
132.640335,5255.462188,13545.768739,-2221.676944
132.640645,-2590.720797,9474.636058,6665.030833
132.640954,-6883.915261,6735.874072,5822.325785
132.641264,666.185348,9178.553681,-7277.907231
132.641573,5625.565159,6365.771101,-13559.890315
132.641883,-3552.988522,6069.688724,-3524.039291
132.642192,-3478.967927,17024.736666,4290.134789
132.642502,3404.947333,11103.089130,-1762.019645
132.642811,6587.832884,12139.377449,-2834.553343
132.643121,-592.164754,6809.894666,6052.154434
132.643430,-6365.771101,5699.585753,8197.221829
132.643740,148.041188,7031.956449,-1455.581446
132.644049,3108.864956,6439.791695,-12027.699319
132.644359,-0.000000,6217.729913,-6818.249932
132.644668,-5033.400406,14285.974681,1149.143247
132.644978,4885.359217,9030.512492,-76.609550
132.645287,3182.885551,9696.697840,-4290.134789
132.645597,-2368.659014,10066.800811,7737.564530
132.645906,-3627.009116,4811.338623,11414.822920
132.646216,-1184.329507,11029.068536,-4213.525239
132.646525,5921.647536,7550.100608,-14096.157163
132.646835,-4737.318029,7772.162391,-6205.373534
132.647145,-444.123565,14359.995275,-2451.505594
132.647454,-1850.514855,8364.327145,-3370.820191
132.647764,4959.379811,11769.274478,-3830.477490
132.648073,-1184.329507,10140.821405,4213.525239
132.648383,-2146.597232,11251.130318,7048.078582
132.648692,-1258.350101,6069.688724,5898.935335
132.649002,5551.544565,6143.709319,-7277.907231
132.649311,1628.453072,7920.203579,-7201.297681
132.649621,-2294.638420,10584.944971,-1072.533697
132.649930,-3256.906145,10807.006753,-1072.533697
132.650240,5995.668130,13693.809927,-9959.241474
132.650549,-222.061783,12657.521608,-995.924147
132.650859,-2220.617826,5477.523971,10495.508323
132.651168,-1110.308913,296.082377,4213.525239
132.651478,592.164754,9030.512492,-4673.182538
132.651787,-1776.494261,8216.285956,-229.828649
132.652097,2294.638420,4071.132681,-1072.533697
132.652406,-444.123565,18209.066173,-6818.249932
132.652716,4441.235652,18061.024985,-5592.497135
132.653025,-962.267725,7105.977043,2681.334243
132.653335,-5625.565159,10807.006753,4290.134789
132.653644,-4219.173869,8364.327145,4290.134789
132.653954,2812.782580,9326.594869,-8656.879127
132.654264,1332.370696,6291.750507,-11108.384721
132.654573,666.185348,7031.956449,-1838.629195
132.654883,-2960.823768,9474.636058,4060.306139
132.655192,7179.997637,11917.315666,-1915.238745
132.655502,-296.082377,8808.450710,1915.238745
132.655811,-814.226536,7698.141797,10572.117872
132.656121,-3701.029710,4293.194464,5898.935335
132.656430,4589.276840,12287.418637,-10418.898773
132.656740,-296.082377,4145.153275,-10189.070123
132.657049,888.247130,4737.318029,-4903.011187
132.657359,-7994.224174,10584.944971,-1915.238745
132.657668,4737.318029,16136.489536,-2451.505594
132.657978,3627.009116,10881.027347,1225.752797
132.658287,-3404.947333,12879.583391,6052.154434
132.658597,-5699.585753,8512.368333,8197.221829
132.658906,4515.256246,6365.771101,-3983.696590
132.659216,-1850.514855,2664.741391,-8733.488677
132.659525,-2220.617826,9326.594869,-2528.115143
132.659835,-7254.018232,15840.407159,-612.876398
132.660144,4219.173869,19393.395680,-11184.994271
132.660454,7031.956449,12213.398043,-4596.572988
132.660763,-3849.070898,11991.336260,5898.935335
132.661073,-6957.935855,7476.080014,8656.879127
132.661382,4441.235652,3923.091493,-2451.505594
132.661692,5107.421000,-148.041188,-7814.174080
132.662002,-1998.556043,7179.997637,-3370.820191
132.662311,-4663.297435,10214.842000,2987.772442
132.662621,5551.544565,9104.533087,-5822.325785
132.662930,3256.906145,10658.965565,-3830.477490
132.663240,-2664.741391,9992.780217,6818.249932
132.663549,-5625.565159,6513.812290,5822.325785
132.663859,4885.359217,7772.162391,-6281.983084
132.664168,444.123565,7624.121203,-6281.983084
132.664478,-1332.370696,10881.027347,-3217.601092
132.664787,-5329.482782,9400.615463,-2451.505594
132.665097,3997.112087,14434.015869,-5669.106685
132.665406,-148.041188,18135.045579,-2451.505594
132.665716,1110.308913,11103.089130,3140.991542
132.666025,-5699.585753,6661.853478,5209.449386
132.666335,-1776.494261,8364.327145,-5975.544884
132.666644,1850.514855,5329.482782,-9039.926876
132.666954,-888.247130,8068.244768,-4903.011187
132.667263,-3997.112087,9696.697840,612.876398
132.667573,4959.379811,11917.315666,-2068.457845
132.667882,3108.864956,10066.800811,-2374.896044
132.668192,1924.535449,10140.821405,4366.744339
132.668501,-3552.988522,4811.338623,9959.241474
132.668811,-222.061783,7105.977043,1149.143247
132.669120,3478.967927,6735.874072,-7584.345430
132.669430,-1110.308913,2442.679609,-5439.278036
132.669739,-4737.318029,10584.944971,-1608.800546
132.670048,5033.400406,12879.583391,-5132.839837
132.670358,1258.350101,13841.851115,-3677.258390
132.670667,-518.144159,15248.242405,5669.106685
132.670977,-1184.329507,11843.295072,5132.839837
132.671286,-1998.556043,11547.212695,-1915.238745
132.671596,3849.070898,7994.224174,-4290.134789
132.671905,-2294.638420,3330.926739,-4213.525239
132.672214,-7550.100608,12509.480420,-3753.867940
132.672524,3256.906145,12583.501014,-5515.887586
132.672833,3997.112087,11769.274478,-4903.011187
132.673143,-1332.370696,11843.295072,2987.772442
132.673452,-3330.926739,9104.533087,7354.516781
132.673762,1850.514855,7624.121203,1455.581446
132.674071,5255.462188,-296.082377,-6128.763984
132.674381,-592.164754,6143.709319,-459.657299
132.674690,-3108.864956,8586.388927,2834.553343
132.674999,-962.267725,11473.192101,-3294.210641
132.675309,4589.276840,12509.480420,-6281.983084
132.675618,-1406.391290,8290.306550,2528.115143
132.675928,-1924.535449,11473.192101,3907.087040
132.676237,-2442.679609,11251.130318,-1915.238745
132.676547,2960.823768,8512.368333,-3907.087040
132.676856,-1850.514855,7254.018232,-1915.238745
132.677165,-3552.988522,8512.368333,-383.047749
132.677475,2812.782580,12139.377449,-2681.334243
132.677784,2886.803174,13027.624579,-1915.238745
132.678094,-1184.329507,15692.365970,2681.334243
132.678403,-3256.906145,9696.697840,3294.210641
132.678713,-2368.659014,8364.327145,-3524.039291
132.679022,6439.791695,5773.606348,-8350.440928
132.679331,-814.226536,7402.059420,-1455.581446
132.679641,-2146.597232,13027.624579,689.485948
132.679950,444.123565,9104.533087,1838.629195
132.680260,9178.553681,6291.750507,-1149.143247
132.680569,-1110.308913,7402.059420,3907.087040
132.680879,-3404.947333,9178.553681,4826.401637
132.681188,-1110.308913,7328.038826,153.219100
132.681497,5699.585753,4737.318029,-8503.660028
132.681807,-3552.988522,11029.068536,-7431.126331
132.682116,-1554.432478,9178.553681,-4443.353888
132.682426,-1036.288319,10066.800811,-459.657299
132.682735,6735.874072,13249.686362,-3294.210641
132.683045,-4071.132681,10955.047942,1991.848295
132.683354,-222.061783,10140.821405,6205.373534
132.683663,-1184.329507,8216.285956,1838.629195
132.683973,4737.318029,10214.842000,-7124.688131
132.684282,-6735.874072,9474.636058,-1455.581446
132.684592,1036.288319,10066.800811,0.000000
132.684901,-3552.988522,5995.668130,-4290.134789
132.685211,3997.112087,15544.324782,-7124.688131
132.685520,-1406.391290,10214.842000,-995.924147
132.685830,444.123565,8660.409521,2834.553343
132.686139,-3775.050304,9474.636058,3830.477490
132.686448,3552.988522,9548.656652,-5209.449386
132.686758,3034.844362,5255.462188,-3600.648841
132.687067,2146.597232,7698.141797,3140.991542
132.687377,-4145.153275,10955.047942,1302.362347
132.687686,6809.894666,9844.739029,-5056.230287
132.687996,3627.009116,4441.235652,-1072.533697
132.688305,-2664.741391,10214.842000,2374.896044
132.688614,-5551.544565,9326.594869,2528.115143
132.688924,4737.318029,9474.636058,-6894.859482
132.689233,-4219.173869,11917.315666,-7890.783629
132.689543,2738.761985,12657.521608,-842.705048
132.689852,-2368.659014,5329.482782,459.657299
132.690162,814.226536,17690.922014,-3753.867940
132.690471,-814.226536,10510.924376,2298.286494
132.690780,2738.761985,10066.800811,2374.896044
132.691090,-7772.162391,9548.656652,1149.143247
132.691399,3108.864956,9622.677246,-5515.887586
132.691709,-962.267725,7846.182985,-7354.516781
132.692018,74.020594,8660.409521,-2451.505594
132.692328,-1702.473667,7624.121203,1762.019645
132.692637,4219.173869,10658.965565,153.219100
132.692946,2072.576638,10140.821405,0.000000
132.693256,444.123565,7698.141797,6818.249932
132.693565,-6883.915261,5033.400406,9039.926876
132.693875,2960.823768,7846.182985,-4826.401637
132.694184,1332.370696,8290.306550,-9959.241474
132.694494,2812.782580,4071.132681,-4673.182538
132.694803,-4959.379811,7179.997637,536.266849
132.695113,1924.535449,17616.901420,-3370.820191
132.695422,-962.267725,13693.809927,919.314598
132.695731,1184.329507,9696.697840,7737.564530
132.696041,-5551.544565,7920.203579,5592.497135
132.696350,2812.782580,10362.883188,-7584.345430
132.696660,-592.164754,9326.594869,-8733.488677
132.696969,-1184.329507,5033.400406,-4366.744339
132.697279,-3997.112087,13619.789333,-1608.800546
132.697588,4811.338623,12287.418637,-5286.058936
132.697897,1110.308913,11917.315666,-1608.800546
132.698207,-0.000000,9326.594869,7354.516781
132.698516,-4145.153275,5181.441594,6358.592633
132.698826,4589.276840,6439.791695,-2757.943793
132.699135,1850.514855,3997.112087,-9346.365076
132.699445,296.082377,5107.421000,-3140.991542
132.699754,-4145.153275,10214.842000,3983.696590
132.700063,3034.844362,12583.501014,0.000000
132.700373,3108.864956,11251.130318,-3983.696590
132.700682,740.205942,9548.656652,-4519.963438
132.700992,-5107.421000,8290.306550,3830.477490
132.701301,1924.535449,8290.306550,-4443.353888
132.701611,296.082377,7550.100608,-8273.831378
132.701920,1628.453072,8512.368333,-2911.162892
132.702229,-4663.297435,11473.192101,1378.971896
132.702539,5033.400406,13101.645173,-995.924147
132.702848,-444.123565,13841.851115,229.828649
132.703158,1628.453072,11473.192101,4979.620737
132.703467,-6513.812290,9622.677246,4903.011187
132.703777,4293.194464,4811.338623,-7201.297681
132.704086,592.164754,9030.512492,-9729.412825
132.704396,-1480.411884,10214.842000,-2911.162892
132.704705,-1850.514855,9622.677246,1838.629195
132.705014,3775.050304,12361.439231,-1072.533697
132.705324,2812.782580,8734.430116,-919.314598
132.705633,962.267725,7328.038826,5592.497135
132.705943,-3775.050304,6291.750507,6052.154434
132.706252,1628.453072,8808.450710,-4903.011187
132.706562,592.164754,9326.594869,-9652.803275
132.706871,296.082377,3923.091493,-4519.963438
132.707180,-1998.556043,11621.233289,-2451.505594
132.707490,-0.000000,16136.489536,-5056.230287
132.707799,5995.668130,7846.182985,-3140.991542
132.708109,-1776.494261,5773.606348,9039.926876
132.708418,-2368.659014,11251.130318,6281.983084
132.708728,444.123565,8734.430116,-1608.800546
132.709037,-814.226536,9030.512492,-6205.373534
132.709346,-3849.070898,7254.018232,-4903.011187
132.709656,-148.041188,11991.336260,-5975.544884
132.709965,-1110.308913,14434.015869,-8197.221829
132.710275,2812.782580,11769.274478,-4749.792088
132.710584,888.247130,10807.006753,4290.134789
132.710894,-3552.988522,9770.718434,7201.297681
132.711203,740.205942,6809.894666,4366.744339
132.711512,3478.967927,5847.626942,-2757.943793
132.711822,1702.473667,4589.276840,-5822.325785
132.712131,-2220.617826,6217.729913,-3983.696590
132.712441,-2590.720797,12361.439231,-2451.505594
132.712750,2886.803174,11029.068536,-4903.011187
132.713060,814.226536,10436.903782,-383.047749
132.713369,-1776.494261,10881.027347,2221.676944
132.713678,-5699.585753,6439.791695,76.609550
132.713988,3627.009116,8956.491898,-3447.429741
132.714297,-1776.494261,6587.832884,-2911.162892
132.714607,4145.153275,7254.018232,-3294.210641
132.714916,-4737.318029,9548.656652,-5209.449386
132.715226,592.164754,14656.077652,-2604.724693
132.715535,-0.000000,9252.574275,5209.449386
132.715845,-666.185348,11399.171507,4060.306139
132.716154,-3034.844362,11177.109724,-2911.162892
132.716463,2368.659014,9918.759623,-7354.516781
132.716773,-2294.638420,7105.977043,-5439.278036
132.717082,2368.659014,7476.080014,-4136.915689
132.717392,-2664.741391,12953.603985,-2451.505594
132.717701,7179.997637,12953.603985,-4136.915689
132.718011,-666.185348,7105.977043,3600.648841
132.718320,-0.000000,14582.057057,7584.345430
132.718629,-5107.421000,8068.244768,4213.525239
132.718939,7105.977043,8068.244768,-6205.373534
132.719248,-3478.967927,3552.988522,-11721.261119
132.719558,370.102971,8808.450710,-6281.983084
132.719867,-1850.514855,10584.944971,-1608.800546
132.720177,4737.318029,13989.892304,-1991.848295
132.720486,-2812.782580,11251.130318,6281.983084
132.720795,2072.576638,9474.636058,8273.831378
132.721105,-6809.894666,4737.318029,2681.334243
132.721414,4663.297435,8660.409521,-4443.353888
132.721724,-4737.318029,6439.791695,-7507.735880
132.722033,-1184.329507,7105.977043,-6205.373534
132.722343,-3034.844362,11547.212695,-3983.696590
132.722652,5403.503377,13693.809927,-5975.544884
132.722961,-666.185348,14137.933492,-383.047749
132.723271,2516.700203,10881.027347,7660.954980
132.723580,-4219.173869,7105.977043,4826.401637
132.723890,6957.935855,7179.997637,-2451.505594
132.724199,814.226536,3330.926739,-4596.572988
132.724509,-222.061783,6957.935855,-3447.429741
132.724818,-4885.359217,10658.965565,3140.991542
132.725128,4367.215058,16950.716072,-4903.011187
132.725437,444.123565,12879.583391,-5515.887586
132.725746,1998.556043,8512.368333,1302.362347
132.726056,-4959.379811,8956.491898,3447.429741
132.726365,3034.844362,9252.574275,-2068.457845
132.726675,-1850.514855,4737.318029,-4290.134789
132.726984,2072.576638,9474.636058,-459.657299
132.727294,-4441.235652,8956.491898,0.000000
132.727603,5181.441594,12509.480420,-6128.763984
132.727912,-1184.329507,10140.821405,-2987.772442
132.728222,-0.000000,12583.501014,3140.991542
132.728531,-6513.812290,5773.606348,2757.943793
132.728841,4293.194464,9178.553681,-4826.401637
132.729150,-370.102971,6143.709319,-6894.859482
132.729460,296.082377,6661.853478,-2528.115143
132.729769,-4885.359217,9474.636058,1378.971896
132.730078,3701.029710,10214.842000,-4366.744339
132.730388,4663.297435,9696.697840,-5592.497135
132.730697,-666.185348,8808.450710,6052.154434
132.731007,-5995.668130,11399.171507,7584.345430
132.731316,3627.009116,9992.780217,-2604.724693
132.731626,1776.494261,7328.038826,-7660.954980
132.731935,1628.453072,5255.462188,-4060.306139
132.732244,-8142.265362,9178.553681,-2298.286494
132.732554,7698.141797,9030.512492,-3983.696590
132.732863,-888.247130,11177.109724,-1608.800546
132.733173,-0.000000,14137.933492,2757.943793
132.733482,-6143.709319,10510.924376,9039.926876
132.733792,4811.338623,11103.089130,-2068.457845
132.734101,-1702.473667,12435.459826,-7124.688131
132.734411,-222.061783,6365.771101,-2604.724693
132.734720,-5921.647536,6587.832884,-1915.238745
132.735029,2442.679609,11695.253884,-5822.325785
132.735339,1850.514855,10807.006753,-4213.525239
132.735648,-666.185348,12509.480420,2528.115143
132.735958,-3404.947333,11843.295072,5822.325785
132.736267,5329.482782,10881.027347,-842.705048
132.736577,2294.638420,9474.636058,-6588.421283
132.736886,1184.329507,3997.112087,-2604.724693
132.737195,-7550.100608,9400.615463,153.219100
132.737505,3182.885551,9326.594869,-2374.896044
132.737814,5625.565159,7476.080014,-4596.572988
132.738124,-962.267725,9326.594869,-306.438199
132.738433,-5995.668130,10066.800811,3524.039291
132.738743,1850.514855,9548.656652,-229.828649
132.739052,2294.638420,8290.306550,-6052.154434
132.739361,962.267725,7994.224174,-4596.572988
132.739671,-1702.473667,10066.800811,-383.047749
132.739980,888.247130,11251.130318,-3447.429741
132.740290,2812.782580,11547.212695,-766.095498
132.740599,-222.061783,9918.759623,4826.401637
132.740909,-2664.741391,9474.636058,1225.752797
132.741218,-1554.432478,6735.874072,-3294.210641
132.741527,1110.308913,11399.171507,-6205.373534
132.741837,-1702.473667,6365.771101,-4060.306139
132.742146,-2516.700203,10510.924376,-3294.210641
132.742456,1850.514855,12287.418637,-4673.182538
132.742765,-74.020594,11325.150913,-3217.601092
132.743075,2812.782580,8068.244768,3524.039291
132.743384,-2146.597232,7550.100608,4903.011187
132.743693,962.267725,9696.697840,919.314598
132.744003,2812.782580,5995.668130,-3600.648841
132.744312,-1776.494261,3182.885551,-4060.306139
132.744622,-1110.308913,8586.388927,-1378.971896
132.744931,-1258.350101,11843.295072,3907.087040
132.745241,1332.370696,13767.830521,-3064.381992
132.745550,518.144159,10140.821405,689.485948
132.745860,-222.061783,10288.862594,2451.505594
132.746169,-5477.523971,9844.739029,536.266849
132.746478,962.267725,13249.686362,-4060.306139
132.746788,962.267725,4737.318029,-5515.887586
132.747097,-1406.391290,10288.862594,-2834.553343
132.747407,-4663.297435,11843.295072,-766.095498
132.747716,3034.844362,13767.830521,-4979.620737
132.748026,2294.638420,10214.842000,-612.876398
132.748335,-740.205942,11695.253884,4519.963438
132.748644,-2442.679609,9622.677246,1072.533697
132.748954,5255.462188,7994.224174,-5975.544884
132.749263,1258.350101,6439.791695,-6818.249932
132.749573,-1998.556043,8882.471304,-995.924147
132.749882,-3997.112087,9252.574275,1915.238745
132.750192,5477.523971,11843.295072,-3447.429741
132.750501,518.144159,2368.659014,-4903.011187
132.750810,740.205942,8734.430116,3600.648841
132.751120,-8290.306550,6883.915261,4060.306139
132.751429,4367.215058,9474.636058,-4136.915689
132.751739,4145.153275,7624.121203,-7890.783629
132.752048,592.164754,9696.697840,-3217.601092
132.752358,-6513.812290,11399.171507,2757.943793
132.752667,2664.741391,12213.398043,-1991.848295
132.752976,962.267725,9178.553681,-2221.676944
132.753286,-1850.514855,9178.553681,2987.772442
132.753595,-8290.306550,5625.565159,1608.800546
132.753905,3775.050304,11251.130318,-7967.393179
132.754214,-888.247130,9030.512492,-11261.603821
132.754524,296.082377,10732.986159,-1685.410096
132.754833,-4145.153275,5255.462188,7048.078582
132.755143,8068.244768,11695.253884,-2604.724693
132.755452,2146.597232,7105.977043,1608.800546
132.755761,-1036.288319,13249.686362,8886.707777
132.756071,-5255.462188,5255.462188,4903.011187
132.756380,5255.462188,8364.327145,-11874.480219
132.756690,-1332.370696,8882.471304,-9729.412825
132.756999,148.041188,7994.224174,-5362.668486
132.757309,-5773.606348,7624.121203,-2068.457845
132.757618,6143.709319,14730.098246,-1302.362347
132.757927,-2072.576638,10362.883188,1378.971896
132.758237,-740.205942,7624.121203,7890.783629
132.758546,-4811.338623,5699.585753,6588.421283
132.758856,5107.421000,10436.903782,-5592.497135
132.759165,-4663.297435,12139.377449,-8733.488677
132.759475,-444.123565,12657.521608,-4673.182538
132.759784,-5181.441594,11029.068536,-2068.457845
132.760093,7994.224174,15396.283594,-6741.640382
132.760403,-2812.782580,10658.965565,-459.657299
132.760712,-0.000000,13249.686362,8580.269578
132.761022,-4811.338623,4071.132681,6358.592633
132.761331,5773.606348,8660.409521,-5362.668486
132.761641,-740.205942,5773.606348,-7048.078582
132.761950,2516.700203,6735.874072,-4443.353888
132.762259,-3627.009116,11103.089130,1455.581446
132.762569,5921.647536,13767.830521,-919.314598
132.762878,-1998.556043,9622.677246,0.000000
132.763188,3256.906145,9030.512492,5056.230287
132.763497,-5107.421000,3256.906145,3447.429741
132.763807,1554.432478,7550.100608,-6128.763984
132.764116,-1998.556043,8808.450710,-7737.564530
132.764426,1702.473667,8882.471304,-3447.429741
132.764735,-1628.453072,11917.315666,-306.438199
132.765044,6217.729913,10140.821405,-3600.648841
132.765354,-2738.761985,11695.253884,1838.629195
132.765663,-740.205942,11991.336260,10265.679673
132.765973,-7179.997637,8808.450710,4366.744339
132.766282,7772.162391,11251.130318,-9882.631924
132.766592,-592.164754,7698.141797,-8120.612279
132.766901,-592.164754,10140.821405,-2987.772442
132.767210,-4367.215058,9326.594869,-2681.334243
132.767520,8142.265362,12583.501014,-6894.859482
132.767829,-1184.329507,9104.533087,306.438199
132.768139,1110.308913,8734.430116,11721.261119
132.768448,-4367.215058,7254.018232,8350.440928
132.768758,5699.585753,7105.977043,-4903.011187
132.769068,-1332.370696,5181.441594,-7048.078582
132.769377,814.226536,5625.565159,-3370.820191
132.769687,-4959.379811,8142.265362,-2374.896044
132.769996,5033.400406,12509.480420,-4673.182538
132.770306,592.164754,11843.295072,-2681.334243
132.770615,1998.556043,9400.615463,6894.859482
132.770925,-8956.491898,11769.274478,6971.469032
132.771234,2294.638420,7846.182985,-1915.238745
132.771544,-2146.597232,7920.203579,-5822.325785
132.771853,592.164754,7772.162391,-4213.525239
132.772163,-5107.421000,10881.027347,-4903.011187
132.772472,5107.421000,15692.365970,-7814.174080
132.772782,2664.741391,13545.768739,-3217.601092
132.773091,2146.597232,9326.594869,5745.716235
132.773401,-4367.215058,10658.965565,6588.421283
132.773710,1332.370696,7772.162391,229.828649
132.774020,1924.535449,4737.318029,-3677.258390
132.774329,1184.329507,3256.906145,-4060.306139
132.774639,-3330.926739,11325.150913,-4826.401637
132.774948,1924.535449,14359.995275,-3983.696590
132.775258,4515.256246,10584.944971,-3830.477490
132.775567,-1702.473667,8438.347739,2604.724693
132.775877,-2220.617826,10881.027347,8273.831378
132.776186,814.226536,5551.544565,-383.047749
132.776496,666.185348,7476.080014,-2987.772442
132.776805,518.144159,4811.338623,-2911.162892
132.777115,-4071.132681,8586.388927,-2298.286494
132.777424,-0.000000,12879.583391,-4749.792088
132.777734,5403.503377,14211.954086,-4903.011187
132.778043,-2960.823768,11547.212695,1072.533697
132.778353,-4959.379811,12509.480420,7354.516781
132.778662,-2664.741391,10658.965565,-766.095498
132.778972,1924.535449,12139.377449,-8656.879127
132.779281,962.267725,4885.359217,-4213.525239
132.779591,-2146.597232,9918.759623,-459.657299
132.779900,2294.638420,8956.491898,-5362.668486
132.780210,5255.462188,12361.439231,-4979.620737
132.780519,-74.020594,9030.512492,4060.306139
132.780829,-518.144159,8512.368333,10801.946522
132.781138,-592.164754,6661.853478,4136.915689
132.781448,2886.803174,6957.935855,-5439.278036
132.781757,-666.185348,4737.318029,-6128.763984
132.782067,-2368.659014,7254.018232,-6511.811733
132.782376,-2516.700203,7031.956449,-4673.182538
132.782686,4811.338623,13545.768739,-6281.983084
132.782995,518.144159,10288.862594,1685.410096
132.783305,888.247130,11325.150913,8656.879127
132.783614,-6735.874072,6587.832884,4213.525239
132.783924,3108.864956,7476.080014,-1072.533697
132.784233,444.123565,6143.709319,-4443.353888
132.784543,-3775.050304,12139.377449,-3907.087040
132.784852,-3478.967927,15618.345376,-1685.410096
132.785162,6069.688724,16432.571912,-10572.117872
132.785471,2664.741391,14359.995275,-7737.564530
132.785781,-2072.576638,12953.603985,5592.497135
132.786090,-6365.771101,7328.038826,8427.050478
132.786400,6291.750507,10140.821405,-4979.620737
132.786709,3701.029710,4811.338623,-4213.525239
132.787019,888.247130,5551.544565,4596.572988
132.787328,-3627.009116,3108.864956,4136.915689
132.787638,9844.739029,11473.192101,-7354.516781
132.787947,1850.514855,9030.512492,-5286.058936
132.788257,-3775.050304,7254.018232,5822.325785
132.788566,-5181.441594,9326.594869,4060.306139
132.788876,5403.503377,12805.562797,-8580.269578
132.789185,592.164754,9474.636058,-5209.449386
132.789495,-3256.906145,8290.306550,1991.848295
132.789804,-4589.276840,8438.347739,2298.286494
132.790114,5181.441594,11103.089130,-5592.497135
132.790423,-222.061783,11547.212695,-3064.381992
132.790733,-3108.864956,10362.883188,6971.469032
132.791042,-6291.750507,11399.171507,5822.325785
132.791352,7698.141797,11843.295072,-6052.154434
132.791661,1184.329507,7624.121203,-11184.994271
132.791971,-1850.514855,10066.800811,76.609550
132.792280,-7476.080014,9844.739029,2528.115143
132.792590,6957.935855,12583.501014,-10035.851024
132.792899,5625.565159,6957.935855,-8427.050478
132.793209,1480.411884,8142.265362,10265.679673
132.793518,-4293.194464,6513.812290,11874.480219
132.793828,5847.626942,8142.265362,-3370.820191
132.794137,2590.720797,6291.750507,-7124.688131
132.794447,2072.576638,6291.750507,383.047749
132.794756,-7920.203579,6735.874072,-1838.629195
132.795066,3034.844362,10732.986159,-7507.735880
132.795375,3849.070898,13693.809927,-8120.612279
132.795685,518.144159,11547.212695,0.000000
132.795994,-7105.977043,7846.182985,9806.022374
132.796304,5625.565159,9622.677246,76.609550
132.796613,1850.514855,8734.430116,-8273.831378
132.796923,-3182.885551,9622.677246,-459.657299
132.797232,-11029.068536,9400.615463,5056.230287
132.797542,8290.306550,13101.645173,-10725.336972
132.797851,3552.988522,13175.665768,-13406.671215
132.798161,296.082377,12139.377449,3217.601092
132.798470,-9252.574275,10066.800811,11874.480219
132.798780,6883.915261,9030.512492,-2451.505594
132.799090,-1258.350101,5625.565159,-7660.954980
132.799399,3478.967927,5847.626942,2145.067394
132.799709,-4737.318029,3108.864956,7354.516781
132.800018,2590.720797,12435.459826,-1225.752797
132.800328,2368.659014,9474.636058,-8580.269578
132.800637,444.123565,8808.450710,-3677.258390
132.800947,-7994.224174,7994.224174,6588.421283
132.801256,-0.000000,10436.903782,0.000000
132.801566,3330.926739,10807.006753,-11108.384721
132.801875,2146.597232,7994.224174,-8656.879127
132.802185,-7550.100608,10066.800811,6435.202183
132.802494,3627.009116,9400.615463,1608.800546
132.802804,3923.091493,10881.027347,-6741.640382
132.803113,2590.720797,8586.388927,1378.971896
132.803423,-9622.677246,11621.233289,11108.384721
132.803732,3108.864956,9918.759623,0.000000
132.804042,2960.823768,9178.553681,-13713.109414
132.804351,1850.514855,9992.780217,-8273.831378
132.804661,-7624.121203,12065.356855,3830.477490
132.804970,1628.453072,11695.253884,-2145.067394
132.805280,4737.318029,13545.768739,-8656.879127
132.805589,5995.668130,7031.956449,0.000000
132.805899,-6957.935855,9178.553681,11644.651570
132.806208,3108.864956,9548.656652,3983.696590
132.806518,4885.359217,8142.265362,-6588.421283
132.806827,2368.659014,7105.977043,-8580.269578
132.807137,-7031.956449,9548.656652,2681.334243
132.807446,-1480.411884,9326.594869,2451.505594
132.807756,5255.462188,13471.748144,-7967.393179
132.808065,3775.050304,9696.697840,-8273.831378
132.808375,-6735.874072,9474.636058,7354.516781
132.808684,-4589.276840,9178.553681,7584.345430
132.808994,5329.482782,10066.800811,-8120.612279
132.809303,1332.370696,5847.626942,-10035.851024
132.809613,-5921.647536,10066.800811,4826.401637
132.809922,-3256.906145,7698.141797,6894.859482
132.810232,5255.462188,14804.118840,-8350.440928
132.810541,5921.647536,9104.533087,-7737.564530
132.810851,-3849.070898,10732.986159,4903.011187
132.811160,-4885.359217,9252.574275,8120.612279
132.811470,4959.379811,13249.686362,-8197.221829
132.811779,5107.421000,6217.729913,-11414.822920
132.812089,-3182.885551,7402.059420,5745.716235
132.812398,-6957.935855,5921.647536,8273.831378
132.812708,4367.215058,9844.739029,-2298.286494
132.813017,6291.750507,7550.100608,-8886.707777
132.813327,-3404.947333,6587.832884,-1072.533697
132.813636,-8290.306550,8438.347739,8886.707777
132.813946,3997.112087,12657.521608,-4519.963438
132.814255,5329.482782,9844.739029,-14402.595362
132.814565,-518.144159,10362.883188,-995.924147
132.814874,-6439.791695,11325.150913,9346.365076
132.815184,6883.915261,13397.727550,-2298.286494
132.815493,4071.132681,7179.997637,-6818.249932
132.815803,-3404.947333,9104.533087,4979.620737
132.816112,-9696.697840,4959.379811,9116.536426
132.816422,2664.741391,9696.697840,-6205.373534
132.816731,1998.556043,8068.244768,-14785.643111
132.817041,-2220.617826,10362.883188,-4519.963438
132.817350,-7550.100608,10584.944971,3677.258390
132.817660,6957.935855,11843.295072,-766.095498
132.817969,5181.441594,6143.709319,-4213.525239
132.818279,-518.144159,8290.306550,7201.297681
132.818588,-6439.791695,3923.091493,14172.766713
132.818898,4737.318029,10732.986159,-1378.971896
132.819207,6513.812290,1480.411884,-13253.452115
132.819517,2294.638420,9992.780217,-5362.668486
132.819826,-9844.739029,10436.903782,4366.744339
132.820136,3701.029710,12731.542202,-1455.581446
132.820445,2146.597232,10362.883188,-9193.145976
132.820755,2812.782580,10066.800811,689.485948
132.821064,-8882.471304,7105.977043,12717.185267
132.821374,1332.370696,10658.965565,459.657299
132.821683,3849.070898,8808.450710,-13483.280765
132.821993,2960.823768,11917.315666,-4903.011187
132.822302,-7624.121203,10658.965565,5209.449386
132.822612,2886.803174,12065.356855,-1685.410096
132.822921,3923.091493,11769.274478,-8656.879127
132.823231,222.061783,9696.697840,2757.943793
132.823540,-9548.656652,6291.750507,8580.269578
132.823850,6809.894666,6809.894666,-1915.238745
132.824159,2960.823768,7624.121203,-10801.946522
132.824469,4663.297435,7328.038826,-3600.648841
132.824778,-6513.812290,6809.894666,6128.763984
132.825088,3330.926739,13027.624579,1455.581446
132.825397,2960.823768,10214.842000,-5132.839837
132.825707,3627.009116,8216.285956,-1455.581446
132.826016,-9770.718434,6291.750507,6358.592633
132.826326,1628.453072,9178.553681,995.924147
132.826635,1850.514855,7846.182985,-11491.432470
132.826945,3478.967927,10140.821405,-7354.516781
132.827254,-7476.080014,13027.624579,6511.811733
132.827564,6513.812290,14878.139434,383.047749
132.827873,1998.556043,11695.253884,-4519.963438
132.828183,296.082377,8956.491898,2681.334243
132.828493,-10510.924376,6587.832884,8427.050478
132.828802,2294.638420,11399.171507,-5439.278036
132.829112,-2960.823768,7698.141797,-14862.252661
132.829421,2738.761985,12213.398043,-7814.174080
132.829731,-7624.121203,9104.533087,3217.601092
132.830040,6439.791695,12731.542202,153.219100
132.830350,592.164754,9252.574275,-2834.553343
132.830659,4515.256246,9918.759623,3217.601092
132.830969,-8364.327145,5995.668130,10878.556072
132.831278,4737.318029,7476.080014,1149.143247
132.831588,1480.411884,5699.585753,-12257.527968
132.831897,2590.720797,8438.347739,-10189.070123
132.832207,-6365.771101,7994.224174,1762.019645
132.832516,1702.473667,12287.418637,1685.410096
132.832826,3034.844362,14582.057057,-5056.230287
132.833135,3701.029710,8586.388927,-1991.848295
132.833445,-7476.080014,8734.430116,10648.727422
132.833754,1924.535449,6291.750507,3677.258390
132.834064,2146.597232,7105.977043,-7967.393179
132.834373,1998.556043,10436.903782,-8733.488677
132.834683,-8660.409521,11621.233289,1685.410096
132.834992,2146.597232,15470.304188,-612.876398
132.835302,2442.679609,12065.356855,-8120.612279
132.835611,1924.535449,13323.706956,-2604.724693
132.835921,-7105.977043,6957.935855,7507.735880
132.836230,2146.597232,5995.668130,2068.457845
132.836540,444.123565,10288.862594,-9193.145976
132.836849,2146.597232,6291.750507,-9269.755526
132.837159,-6439.791695,9622.677246,-153.219100
132.837468,1554.432478,11843.295072,-306.438199
132.837778,3404.947333,13175.665768,-6205.373534
132.838087,3034.844362,8290.306550,-4979.620737
132.838397,-5477.523971,7031.956449,4979.620737
132.838706,-3182.885551,6217.729913,1532.190996
132.839016,2368.659014,8216.285956,-12027.699319
132.839325,3775.050304,6217.729913,-13406.671215
132.839635,-3849.070898,11917.315666,-7354.516781
132.839944,-3034.844362,12435.459826,-2068.457845
132.840254,6217.729913,15618.345376,-7354.516781
132.840563,6143.709319,6735.874072,-10878.556072
132.840873,-2146.597232,9918.759623,-459.657299
132.841182,-7105.977043,5995.668130,3294.210641
132.841492,3627.009116,8512.368333,-11184.994271
132.841801,1924.535449,7105.977043,-20071.702048
132.842111,1776.494261,12213.398043,-11874.480219
132.842420,-5551.544565,10510.924376,-3983.696590
132.842730,1998.556043,14730.098246,-6128.763984
132.843039,7031.956449,14508.036463,-12257.527968
132.843349,5847.626942,8142.265362,-12257.527968
132.843658,-1406.391290,3849.070898,-995.924147
132.843968,-3627.009116,1036.288319,-459.657299
132.844277,2146.597232,5107.421000,-10112.460574
132.844587,3701.029710,7476.080014,-15704.957709
132.844896,-1406.391290,13323.706956,-11721.261119
132.845206,-3552.988522,10510.924376,-7201.297681
132.845515,-592.164754,13471.748144,-9729.412825
132.845825,4367.215058,13471.748144,-17007.320056
132.846134,3627.009116,6883.915261,-11108.384721
132.846444,-3923.091493,6365.771101,-1455.581446
132.846753,-1776.494261,4663.297435,2068.457845
132.847063,-1628.453072,8364.327145,-4673.182538
132.847372,888.247130,7772.162391,-11874.480219
132.847682,-444.123565,11621.233289,-12563.966167
132.847991,-3404.947333,14359.995275,-13406.671215
132.848301,-3034.844362,14878.139434,-15704.957709
132.848610,-1702.473667,16580.613101,-17466.977354
132.848920,444.123565,8512.368333,-16471.053207
132.849229,-1702.473667,6735.874072,-8963.317327
132.849539,-74.020594,3849.070898,-1455.581446
132.849848,370.102971,2146.597232,1149.143247
132.850158,-666.185348,4885.359217,1302.362347
132.850467,740.205942,5921.647536,-9806.022374
132.850777,-444.123565,9918.759623,-18692.730151
132.851086,-592.164754,11473.192101,-19228.997000
132.851396,-444.123565,14878.139434,-16624.272307
132.851705,-1406.391290,14878.139434,-16471.053207
132.852015,-2960.823768,6883.915261,-12104.308868
132.852324,-1036.288319,5255.462188,-7660.954980
132.852634,2812.782580,3997.112087,-7814.174080
132.852943,6365.771101,5921.647536,-3447.429741
132.853253,2146.597232,6365.771101,-842.705048
132.853562,-814.226536,6957.935855,-2681.334243
132.853872,-1332.370696,9992.780217,-9039.926876
132.854181,-814.226536,15026.180623,-15858.176809
132.854491,-740.205942,15914.427753,-21220.845295
132.854800,1036.288319,18949.272115,-20531.359346
132.855110,-740.205942,12435.459826,-15245.300410
132.855419,1110.308913,9770.718434,-9806.022374
132.855729,1554.432478,5995.668130,-5592.497135
132.856038,1406.391290,9474.636058,-766.095498
132.856348,-888.247130,7550.100608,-459.657299
132.856657,3404.947333,8142.265362,-8810.098227
132.856967,5773.606348,7031.956449,-14479.204912
132.857276,370.102971,6883.915261,-12717.185267
132.857586,-5625.565159,9548.656652,-7431.126331
132.857895,-888.247130,14137.933492,-6741.640382
132.858205,962.267725,9770.718434,-13942.938064
132.858515,-4737.318029,11325.150913,-13406.671215
132.858824,-3701.029710,11029.068536,-10112.460574
132.859134,3627.009116,10732.986159,-13176.842566
132.859443,1332.370696,9548.656652,-16317.834107
132.859753,-2220.617826,9178.553681,-4979.620737
132.860062,-2590.720797,10807.006753,-1149.143247
132.860372,2368.659014,9030.512492,-5745.716235
132.860681,222.061783,9770.718434,-6971.469032
132.860991,-2368.659014,6883.915261,-6435.202183
132.861300,-2220.617826,5773.606348,-10035.851024
132.861610,-222.061783,10732.986159,-16317.834107
132.861919,3552.988522,12657.521608,-21144.235745
132.862229,-518.144159,14434.015869,-14709.033562
132.862538,-1924.535449,13027.624579,-3830.477490
132.862848,-74.020594,10362.883188,-3294.210641
132.863157,2590.720797,4293.194464,-8580.269578
132.863467,-592.164754,3849.070898,-8503.660028
132.863776,-2368.659014,4071.132681,-4673.182538
132.864086,-222.061783,8808.450710,-11414.822920
132.864395,1332.370696,15396.283594,-16624.272307
132.864705,-2590.720797,18505.148550,-14096.157163
132.865014,-370.102971,17468.860231,-14172.766713
132.865324,592.164754,15914.427753,-15321.909960
132.865633,1702.473667,9252.574275,-11951.089769
132.865943,-814.226536,4663.297435,-6358.592633
132.866252,-1036.288319,2590.720797,-3064.381992
132.866562,-0.000000,518.144159,-5439.278036
132.866871,-666.185348,3182.885551,-6588.421283
132.867181,-1480.411884,7031.956449,-9269.755526
132.867490,1332.370696,11991.336260,-14709.033562
132.867800,888.247130,15544.324782,-14785.643111
132.868109,222.061783,17172.777854,-13406.671215
132.868419,-592.164754,14063.912898,-12640.575717
132.868728,-1258.350101,9474.636058,-11184.994271
132.869038,-962.267725,7105.977043,-4443.353888
132.869347,-962.267725,6809.894666,-6588.421283
132.869657,-1258.350101,8660.409521,-9652.803275
132.869966,740.205942,9252.574275,-12257.527968
132.870276,888.247130,10436.903782,-14862.252661
132.870585,-2664.741391,13619.789333,-14709.033562
132.870895,-814.226536,13471.748144,-9576.193725
132.871204,1924.535449,11325.150913,-9499.584175
132.871514,1924.535449,8068.244768,-8427.050478
132.871824,-74.020594,3182.885551,-4213.525239
132.872133,-0.000000,1332.370696,-5822.325785
132.872443,740.205942,4737.318029,-9806.022374
132.872752,444.123565,9622.677246,-8350.440928
132.873062,-518.144159,11991.336260,-7967.393179
132.873371,-296.082377,13397.727550,-12563.966167
132.873681,888.247130,13397.727550,-11797.870669
132.873990,-1554.432478,12657.521608,-10801.946522
132.874300,-888.247130,9770.718434,-11184.994271
132.874609,-296.082377,8290.306550,-10572.117872
132.874919,1036.288319,8216.285956,-9806.022374
132.875228,-222.061783,8586.388927,-6818.249932
132.875538,814.226536,10214.842000,-6818.249932
132.875847,444.123565,9622.677246,-8580.269578
132.876157,-1480.411884,10066.800811,-9346.365076
132.876467,740.205942,6957.935855,-10265.679673
132.876776,1184.329507,4367.215058,-8120.612279
132.877086,-592.164754,4885.359217,-4903.011187
132.877395,-370.102971,5847.626942,-3600.648841
132.877705,370.102971,7031.956449,-5056.230287
132.878014,2516.700203,8882.471304,-7277.907231
132.878324,-74.020594,11399.171507,-3907.087040
132.878633,-1776.494261,11991.336260,-3907.087040
132.878943,-370.102971,12805.562797,-8580.269578
132.879252,-2664.741391,10658.965565,-10189.070123
132.879562,-3552.988522,9548.656652,-9576.193725
132.879871,-2664.741391,10436.903782,-11874.480219
132.880181,-2442.679609,11399.171507,-13636.499864
132.880491,-740.205942,13101.645173,-10955.165621
132.880800,-518.144159,13545.768739,-10495.508323
132.881110,1258.350101,13619.789333,-11338.213370
132.881419,-74.020594,13841.851115,-9499.584175
132.881729,-962.267725,13027.624579,-9576.193725
132.882038,-2220.617826,13323.706956,-11414.822920
132.882348,-0.000000,9918.759623,-15704.957709
132.882657,-0.000000,8512.368333,-17543.586904
132.882967,1702.473667,7254.018232,-17160.539155
132.883276,2960.823768,7402.059420,-13406.671215
132.883586,3849.070898,6439.791695,-7507.735880
132.883895,11325.150913,-962.267725,-3600.648841
132.884205,-7550.100608,-4885.359217,2451.505594
132.884514,7031.956449,6661.853478,0.000000
132.884824,1480.411884,2368.659014,-8427.050478
132.885134,6069.688724,10658.965565,-21297.454844
132.885443,-8142.265362,8808.450710,-18539.511052
132.885753,-5921.647536,14359.995275,-19841.873398
132.886062,1554.432478,17098.757260,-25281.151434
132.886372,3404.947333,18727.210333,-20991.016645
132.886681,2442.679609,13323.706956,-9806.022374
132.886991,-2442.679609,5107.421000,153.219100
132.887300,3478.967927,5477.523971,-3753.867940
132.887610,27535.661042,-1628.453072,-8963.317327
132.887919,-29386.175897,-11917.315666,2145.067394
132.888229,-3775.050304,-3627.009116,-4213.525239
132.888538,8438.347739,15322.262999,-32099.401366
132.888848,7624.121203,29608.237680,-23978.789087
132.889158,888.247130,10955.047942,-7431.126331
132.889467,-16876.695478,2368.659014,-8427.050478
132.889777,4071.132681,4885.359217,-23978.789087
132.890086,-740.205942,11695.253884,-11184.994271
132.890396,518.144159,10362.883188,-7124.688131
132.890705,-2960.823768,6883.915261,-8120.612279
132.891015,-3627.009116,11399.171507,-4749.792088
132.891324,13471.748144,16358.551318,-16471.053207
132.891634,-3108.864956,5921.647536,-20071.702048
132.891943,-0.000000,14582.057057,1762.019645
132.892253,-9104.533087,5107.421000,4290.134789
132.892562,5403.503377,9030.512492,-26047.246932
132.892872,1110.308913,2146.597232,-26660.123330
132.893181,-4367.215058,11251.130318,-12563.966167
132.893491,-4145.153275,7031.956449,-8963.317327
132.893801,3034.844362,11917.315666,-13330.061665
132.894110,8512.368333,9918.759623,-11031.775171
132.894420,2738.761985,5921.647536,-5898.935335
132.894729,-4885.359217,6365.771101,5975.544884
132.895039,-2442.679609,4663.297435,3370.820191
132.895348,6291.750507,8438.347739,-15781.567259
132.895658,6365.771101,11399.171507,-23748.960438
132.895967,-5477.523971,13175.665768,-12487.356617
132.896277,-296.082377,17246.798449,-10878.556072
132.896586,7031.956449,19985.560434,-16471.053207
132.896896,296.082377,14952.160028,-11414.822920
132.897205,-5995.668130,11177.109724,-1915.238745
132.897515,-1110.308913,6217.729913,-5056.230287
132.897825,3330.926739,5995.668130,-14709.033562
132.898134,-0.000000,5403.503377,-15245.300410
132.898444,1776.494261,9992.780217,-10035.851024
132.898753,1036.288319,9622.677246,-3140.991542
132.899063,814.226536,13767.830521,383.047749
132.899372,-1184.329507,11991.336260,-1915.238745
132.899682,1628.453072,12509.480420,-9576.193725
132.899991,-592.164754,7105.977043,-12410.747068
132.900301,-5551.544565,5847.626942,-12640.575717
132.900610,-2812.782580,2664.741391,-14096.157163
132.900920,-2738.761985,10584.944971,-12257.527968
132.901229,-2220.617826,13989.892304,-6741.640382
132.901539,-1332.370696,13101.645173,-6894.859482
132.901849,1406.391290,11843.295072,-8350.440928
132.902158,2516.700203,8142.265362,-3983.696590
132.902468,-3701.029710,5477.523971,-1455.581446
132.902777,-1998.556043,3330.926739,-8503.660028
132.903087,-3256.906145,6661.853478,-12563.966167
132.903396,1184.329507,14434.015869,-10878.556072
132.903706,2516.700203,12583.501014,-15168.690860
132.904015,-1110.308913,16802.674883,-11874.480219
132.904325,-296.082377,15322.262999,-9039.926876
132.904634,-740.205942,5181.441594,-13406.671215
132.904944,-2442.679609,7994.224174,-13789.718964
132.905253,4071.132681,4811.338623,-11491.432470
132.905563,-3330.926739,5107.421000,-7048.078582
132.905872,-1184.329507,8290.306550,-3677.258390
132.906182,-222.061783,13175.665768,-10725.336972
132.906492,5181.441594,12805.562797,-18386.291952
132.906801,4293.194464,10214.842000,-16088.005458
132.907111,-7031.956449,10955.047942,-9116.536426
132.907420,2072.576638,13841.851115,-12104.308868
132.907730,3552.988522,5847.626942,-17850.025103
132.908039,3108.864956,7105.977043,-15092.081311
132.908349,1258.350101,2812.782580,-7201.297681
132.908658,-2886.803174,7476.080014,-1225.752797
132.908968,1406.391290,9030.512492,-5745.716235
132.909277,7179.997637,8586.388927,-15168.690860
132.909587,5921.647536,10066.800811,-14249.376263
132.909896,-4811.338623,9326.594869,-3140.991542
132.910206,-4811.338623,9844.739029,-1302.362347
132.910516,-814.226536,8290.306550,-17313.758255
132.910825,4885.359217,9696.697840,-18156.463303
132.911135,-3627.009116,3923.091493,-5898.935335
132.911444,-5625.565159,9326.594869,4903.011187
132.911754,-3404.947333,11621.233289,-995.924147
132.912063,5181.441594,12435.459826,-12180.918418
132.912373,-444.123565,10807.006753,-8810.098227
132.912682,-6291.750507,11843.295072,-2911.162892
132.912992,-3330.926739,15100.201217,-4979.620737
132.913301,3330.926739,11547.212695,-16777.491406
132.913611,8068.244768,11325.150913,-13713.109414
132.913920,-3849.070898,6217.729913,536.266849
132.914230,-4737.318029,11251.130318,11261.603821
132.914539,-1480.411884,8290.306550,2145.067394
132.914849,10658.965565,10807.006753,-10878.556072
132.915159,-2368.659014,7994.224174,-7890.783629
132.915468,-2812.782580,8808.450710,3064.381992
132.915778,-5921.647536,10362.883188,-2987.772442
132.916087,10955.047942,10510.924376,-11031.775171
132.916397,-222.061783,8734.430116,-2834.553343
132.916706,-4441.235652,7846.182985,11261.603821
132.917016,-4589.276840,7031.956449,10648.727422
132.917325,5033.400406,6439.791695,-4979.620737
132.917635,74.020594,8142.265362,-11108.384721
132.917944,-3775.050304,7402.059420,-1915.238745
132.918254,-4811.338623,13693.809927,0.000000
132.918563,5033.400406,12065.356855,-8120.612279
132.918873,3997.112087,17098.757260,-8427.050478
132.919183,-0.000000,10214.842000,3830.477490
132.919492,-2812.782580,9104.533087,7277.907231
132.919802,1480.411884,4663.297435,0.000000
132.920111,1998.556043,8364.327145,-4213.525239
132.920421,5329.482782,5403.503377,4519.963438
132.920730,-3182.885551,8438.347739,2145.067394
132.921040,444.123565,10584.944971,1991.848295
132.921349,1480.411884,13545.768739,-919.314598
132.921659,3552.988522,11917.315666,-1608.800546
132.921968,666.185348,14359.995275,-459.657299
132.922278,-3552.988522,9844.739029,-383.047749
132.922587,2368.659014,6587.832884,-5056.230287
132.922897,592.164754,5255.462188,-995.924147
132.923206,-3997.112087,10436.903782,6665.030833
132.923516,444.123565,9918.759623,3600.648841
132.923826,3034.844362,11843.295072,1762.019645
132.924135,-74.020594,11251.130318,3294.210641
132.924445,-0.000000,9770.718434,2911.162892
132.924754,-888.247130,2886.803174,-4443.353888
132.925064,-1184.329507,9400.615463,-5975.544884
132.925373,-1776.494261,7179.997637,-3140.991542
132.925683,-0.000000,13101.645173,-2757.943793
132.925992,2368.659014,9178.553681,-4903.011187
132.926302,518.144159,11325.150913,612.876398
132.926611,-3330.926739,7624.121203,5056.230287
132.926921,-222.061783,8512.368333,5592.497135
132.927230,1924.535449,5921.647536,0.000000
132.927540,2886.803174,7031.956449,-5286.058936
132.927850,-3404.947333,5477.523971,-3753.867940
132.928159,-2072.576638,10140.821405,-2528.115143
132.928469,-296.082377,11621.233289,-8120.612279
132.928778,5995.668130,14285.974681,-10878.556072
132.929088,1258.350101,12139.377449,306.438199
132.929397,-888.247130,9918.759623,6128.763984
132.929707,-3404.947333,4737.318029,4979.620737
132.930016,4515.256246,5921.647536,-1915.238745
132.930326,3330.926739,1702.473667,-3140.991542
132.930635,-4145.153275,7031.956449,-1225.752797
132.930945,-5551.544565,13323.706956,-3294.210641
132.931254,8142.265362,15396.283594,-12947.013916
132.931564,2664.741391,14211.954086,-9576.193725
132.931874,-6069.688724,14656.077652,1915.238745
132.932183,-1480.411884,9178.553681,2604.724693
132.932493,5847.626942,9474.636058,-6205.373534
132.932802,740.205942,7031.956449,-2757.943793
132.933112,-2442.679609,8956.491898,2221.676944
132.933421,2146.597232,7994.224174,-2604.724693
132.933731,8364.327145,11769.274478,-6741.640382
132.934040,-962.267725,10436.903782,-2604.724693
132.934350,296.082377,10510.924376,4749.792088
132.934659,-3997.112087,8956.491898,0.000000
132.934969,3923.091493,9770.718434,-7660.954980
132.935278,962.267725,5847.626942,-4826.401637
132.935588,-592.164754,4811.338623,1685.410096
132.935897,-4441.235652,6291.750507,2528.115143
132.936207,2368.659014,11621.233289,-6971.469032
132.936517,2146.597232,9400.615463,-1915.238745
132.936826,-222.061783,12213.398043,5898.935335
132.937136,-5181.441594,11843.295072,5209.449386
132.937445,-592.164754,12065.356855,-6052.154434
132.937755,1110.308913,3997.112087,-8656.879127
132.938064,-1406.391290,7402.059420,-1838.629195
132.938374,-5181.441594,12213.398043,612.876398
132.938683,4737.318029,12065.356855,-4673.182538
132.938993,-1702.473667,9770.718434,-4903.011187
132.939302,740.205942,8142.265362,5822.325785
132.939612,-3849.070898,6217.729913,5209.449386
132.939921,1776.494261,5107.421000,-1762.019645
132.940231,-0.000000,2146.597232,76.609550
132.940541,814.226536,6809.894666,1378.971896
132.940850,-2146.597232,6291.750507,-2145.067394
132.941160,3997.112087,9474.636058,-4213.525239
132.941469,2516.700203,11843.295072,-1762.019645
132.941779,666.185348,12583.501014,3524.039291
132.942088,-3923.091493,13101.645173,4136.915689
132.942398,1998.556043,10584.944971,766.095498
132.942707,-1184.329507,11547.212695,-995.924147
132.943017,-0.000000,9252.574275,153.219100
132.943326,-7698.141797,13545.768739,3907.087040
132.943636,1406.391290,16210.510130,-5132.839837
132.943945,-1924.535449,13545.768739,-5439.278036
132.944255,1332.370696,15322.262999,-229.828649
132.944564,-2368.659014,14359.995275,-612.876398
132.944874,5181.441594,12287.418637,-5975.544884
132.945184,-1184.329507,7105.977043,-153.219100
132.945493,1554.432478,9992.780217,4903.011187
132.945803,-1332.370696,4663.297435,1838.629195
132.946112,2368.659014,6143.709319,-766.095498
132.946422,-1406.391290,9326.594869,689.485948
132.946731,1258.350101,6513.812290,842.705048
132.947041,-962.267725,10140.821405,-3064.381992
132.947350,-518.144159,10436.903782,-4979.620737
132.947660,2960.823768,9030.512492,-5362.668486
132.947969,-74.020594,6957.935855,-1532.190996
132.948279,-3849.070898,8660.409521,1302.362347
132.948588,-2072.576638,7031.956449,1762.019645
132.948898,1554.432478,9400.615463,-2528.115143
132.949208,2368.659014,7698.141797,-3447.429741
132.949517,-6661.853478,9178.553681,5592.497135
132.949827,-370.102971,12065.356855,2604.724693
132.950136,1924.535449,10362.883188,-9576.193725
132.950446,-666.185348,6217.729913,-6894.859482
132.950755,-5181.441594,12435.459826,2834.553343
132.951065,1554.432478,10214.842000,-6971.469032
132.951374,1258.350101,9992.780217,-9806.022374
132.951684,1776.494261,6957.935855,3677.258390
132.951993,-3849.070898,7994.224174,5362.668486
132.952303,2442.679609,9696.697840,-1455.581446
132.952612,4515.256246,7550.100608,-1302.362347
132.952922,592.164754,4737.318029,536.266849
132.953231,370.102971,8882.471304,-2221.676944
132.953541,-2590.720797,10955.047942,-3370.820191
132.953851,4145.153275,13175.665768,-6052.154434
132.954160,3182.885551,8290.306550,-5745.716235
132.954470,-2664.741391,15026.180623,1608.800546
132.954779,-3775.050304,13471.748144,-1991.848295
132.955089,3182.885551,9104.533087,-5822.325785
132.955398,-2072.576638,7920.203579,-2298.286494
132.955708,-4515.256246,8956.491898,7354.516781
132.956017,-2072.576638,10214.842000,0.000000
132.956327,4441.235652,9326.594869,-9193.145976
132.956636,-1702.473667,11991.336260,-2604.724693
132.956946,-4737.318029,13027.624579,1608.800546
132.957255,2516.700203,10140.821405,-6052.154434
132.957565,3627.009116,11177.109724,-7277.907231
132.957875,444.123565,11917.315666,-536.266849
132.958184,-740.205942,4219.173869,2221.676944
132.958494,814.226536,6069.688724,1838.629195
132.958803,2886.803174,8216.285956,2298.286494
132.959113,-222.061783,1702.473667,1762.019645
132.959422,-3330.926739,6883.915261,842.705048
132.959732,-740.205942,11325.150913,-1225.752797
132.960041,6365.771101,11917.315666,-9959.241474
132.960351,1554.432478,11399.171507,-12870.404366
132.960660,-4663.297435,11843.295072,2834.553343
132.960970,-222.061783,7254.018232,9116.536426
132.961279,370.102971,9178.553681,-459.657299
132.961589,2072.576638,6735.874072,1838.629195
132.961899,-1480.411884,8660.409521,5975.544884
132.962208,-370.102971,8216.285956,612.876398
132.962518,1628.453072,10658.965565,-9116.536426
132.962827,-3478.967927,14952.160028,-2451.505594
132.963137,-518.144159,13323.706956,0.000000
132.963446,-0.000000,9844.739029,-2681.334243
132.963756,666.185348,13323.706956,-1838.629195
132.964065,-74.020594,5403.503377,2604.724693
132.964375,-1110.308913,6587.832884,3753.867940
132.964684,814.226536,5699.585753,2911.162892
132.964994,5181.441594,9252.574275,-2451.505594
132.965303,2442.679609,4589.276840,-1455.581446
132.965613,-1924.535449,7920.203579,4366.744339
132.965922,-4959.379811,11843.295072,4596.572988
132.966232,3701.029710,14878.139434,-3677.258390
132.966542,3256.906145,5773.606348,-6358.592633
132.966851,-5477.523971,8660.409521,5898.935335
132.967161,-2516.700203,9326.594869,5822.325785
132.967470,4293.194464,11843.295072,-7431.126331
132.967780,1258.350101,10066.800811,-3600.648841
132.968089,-1258.350101,11029.068536,6588.421283
132.968399,-6661.853478,10658.965565,1991.848295
132.968708,1258.350101,13693.809927,-5592.497135
132.969018,1998.556043,6957.935855,-2221.676944
132.969327,2072.576638,9474.636058,-2145.067394
132.969637,-3997.112087,10362.883188,-919.314598
132.969946,1998.556043,9400.615463,0.000000
132.970256,2590.720797,8290.306550,-2298.286494
132.970566,3034.844362,9474.636058,-1532.190996
132.970875,-2220.617826,7328.038826,4903.011187
132.971185,2220.617826,6809.894666,4596.572988
132.971494,3552.988522,1332.370696,-1838.629195
132.971803,-1184.329507,5625.565159,2987.772442
132.972113,-6291.750507,10807.006753,3217.601092
132.972422,7031.956449,7846.182985,-6741.640382
132.972732,592.164754,8956.491898,-8503.660028
132.973041,-592.164754,9918.759623,0.000000
132.973351,-7328.038826,11103.089130,2451.505594
132.973660,4663.297435,10288.862594,-1685.410096
132.973969,1258.350101,8068.244768,2145.067394
132.974279,-2294.638420,11843.295072,6052.154434
