#time,accel_x,accel_y,accel_z
127.627637,-148.041188,9622.677246,-3217.601092
127.627947,444.123565,9918.759623,-1608.800546
127.628256,-0.000000,9918.759623,-995.924147
127.628566,-148.041188,9474.636058,-842.705048
127.628875,-370.102971,10140.821405,-2757.943793
127.629185,-148.041188,8586.388927,-1225.752797
127.629494,-0.000000,9030.512492,-1225.752797
127.629804,-74.020594,9326.594869,-1225.752797
127.630113,370.102971,9844.739029,-1302.362347
127.630423,-0.000000,9548.656652,-2911.162892
127.630732,-666.185348,9030.512492,-612.876398
127.631042,-74.020594,8586.388927,-1532.190996
127.631351,962.267725,9030.512492,-2221.676944
127.631661,-814.226536,9696.697840,-1302.362347
127.631970,740.205942,10584.944971,-766.095498
127.632280,370.102971,10140.821405,-612.876398
127.632589,-0.000000,8734.430116,0.000000
127.632899,-0.000000,8808.450710,-1302.362347
127.633208,2146.597232,10881.027347,1302.362347
127.633518,-148.041188,9400.615463,-689.485948
127.633827,222.061783,8438.347739,-306.438199
127.634137,740.205942,9104.533087,919.314598
127.634446,1776.494261,7698.141797,919.314598
127.634756,5773.606348,6513.812290,2528.115143
127.635065,2072.576638,6217.729913,7584.345430
127.635375,740.205942,6883.915261,10878.556072
127.635684,-74.020594,5477.523971,10955.165621
127.635994,6587.832884,8512.368333,5439.278036
127.636303,4515.256246,6513.812290,2911.162892
127.636613,-74.020594,8882.471304,9422.974625
127.636922,-1110.308913,11325.150913,13866.328514
127.637232,1110.308913,10510.924376,6894.859482
127.637541,962.267725,10955.047942,3217.601092
127.637851,-1258.350101,12287.418637,10342.289223
127.638160,-5847.626942,14582.057057,11797.870669
127.638469,-5477.523971,24500.816680,-153.219100
127.638779,13471.748144,6661.853478,-2451.505594
127.639088,444.123565,10658.965565,14555.814462
127.639398,-17838.963202,8068.244768,33631.592362
127.639707,4737.318029,20503.704593,6818.249932
127.640017,-888.247130,4515.256246,-6205.373534
127.640326,444.123565,11695.253884,-3983.696590
127.640636,-14359.995275,3478.967927,13100.233016
127.640945,518.144159,14137.933492,2068.457845
127.641255,740.205942,5847.626942,3524.039291
127.641564,-7105.977043,5033.400406,14249.376263
127.641874,7550.100608,4885.359217,14096.157163
127.642183,-7402.059420,-740.205942,12257.527968
127.642493,4145.153275,6735.874072,14325.985813
127.642802,-3108.864956,5033.400406,13483.280765
127.643112,1110.308913,7698.141797,459.657299
127.643421,-740.205942,7920.203579,4366.744339
127.643731,444.123565,15100.201217,995.924147
127.644040,3923.091493,12213.398043,-2451.505594
127.644350,1258.350101,13101.645173,13176.842566
127.644659,1406.391290,11399.171507,25510.980083
127.644969,1184.329507,2294.638420,20301.530697
127.645278,4663.297435,6069.688724,11491.432470
127.645588,-2294.638420,4515.256246,10189.070123
127.645897,2294.638420,14656.077652,1455.581446
127.646207,7698.141797,14434.015869,-6281.983084
127.646516,2886.803174,17912.983796,995.924147
127.646826,-6143.709319,16580.613101,18079.853753
127.647135,-7476.080014,12213.398043,18692.730151
127.647445,370.102971,12731.542202,1455.581446
127.647754,4663.297435,9178.553681,-5822.325785
127.648064,1480.411884,8660.409521,-842.705048
127.648373,-1406.391290,9548.656652,11568.042020
127.648683,-0.000000,11991.336260,14938.862211
127.648992,-0.000000,10955.047942,7660.954980
127.649302,4293.194464,6217.729913,4136.915689
127.649611,-2294.638420,1924.535449,4366.744339
127.649920,-7402.059420,2738.761985,7967.393179
127.650230,-2072.576638,7402.059420,612.876398
127.650539,7698.141797,7698.141797,-8197.221829
127.650849,5995.668130,7698.141797,-2604.724693
127.651158,-2738.761985,5995.668130,16624.272307
127.651468,-7179.997637,8290.306550,22599.817191
127.651777,1702.473667,10140.821405,10801.946522
127.652087,4663.297435,9696.697840,-2528.115143
127.652396,-1036.288319,10362.883188,306.438199
127.652706,-7624.121203,11917.315666,3753.867940
127.653015,1184.329507,13841.851115,-4136.915689
127.653325,10066.800811,14285.974681,-5898.935335
127.653634,1554.432478,11843.295072,10265.679673
127.653944,-5033.400406,7328.038826,26277.075581
127.654253,2368.659014,5921.647536,18922.558801
127.654563,4663.297435,2590.720797,4749.792088
127.654872,-2812.782580,3849.070898,7507.735880
127.655182,1850.514855,11177.109724,8197.221829
127.655491,13989.892304,10807.006753,-8427.050478
127.655801,14137.933492,11029.068536,2451.505594
127.656110,-9548.656652,14508.036463,21220.845295
127.656420,-6439.791695,8734.430116,31256.696318
127.656729,7179.997637,8364.327145,7201.297681
127.657039,3478.967927,8364.327145,-6818.249932
127.657348,-5033.400406,8438.347739,7584.345430
127.657658,5329.482782,15914.427753,5209.449386
127.657967,-0.000000,9918.759623,-1225.752797
127.658277,592.164754,17468.860231,12257.527968
127.658586,-962.267725,15100.201217,21986.940793
127.658896,-7105.977043,6365.771101,6128.763984
127.659205,-2072.576638,9548.656652,9116.536426
127.659515,4663.297435,15470.304188,6205.373534
127.659824,2442.679609,10066.800811,-7354.516781
127.660134,-1332.370696,12805.562797,5898.935335
127.660443,-4145.153275,18579.169144,19152.387450
127.660753,962.267725,11843.295072,2604.724693
127.661062,8734.430116,8956.491898,-459.657299
127.661371,-6513.812290,10066.800811,23136.084040
127.661681,-5625.565159,4885.359217,26123.856482
127.661990,6365.771101,2738.761985,6741.640382
127.662300,5403.503377,4663.297435,5132.839837
127.662609,-1184.329507,1036.288319,12410.747068
127.662919,4071.132681,5033.400406,6588.421283
127.663228,-3256.906145,10436.903782,8810.098227
127.663538,-6957.935855,11917.315666,16700.881856
127.663847,1776.494261,13989.892304,7277.907231
127.664157,2960.823768,9326.594869,-3064.381992
127.664466,-5033.400406,5921.647536,3677.258390
127.664776,-8586.388927,9474.636058,11797.870669
127.665085,-4737.318029,14285.974681,6435.202183
127.665395,2072.576638,15248.242405,0.000000
127.665704,7105.977043,16358.551318,-153.219100
127.666014,-5921.647536,14285.974681,8120.612279
127.666323,-7254.018232,12213.398043,8580.269578
127.666633,-3997.112087,13693.809927,2681.334243
127.666942,3108.864956,10362.883188,-8273.831378
127.667252,5329.482782,5477.523971,-8350.440928
127.667561,-7994.224174,6439.791695,2068.457845
127.667871,-5033.400406,6883.915261,7737.564530
127.668180,-592.164754,5329.482782,2757.943793
127.668490,8142.265362,6291.750507,-4673.182538
127.668799,4811.338623,6735.874072,-1762.019645
127.669109,-5477.523971,3108.864956,9959.241474
127.669418,-1406.391290,8142.265362,7737.564530
127.669728,5773.606348,8808.450710,-7584.345430
127.670037,9104.533087,7994.224174,-10801.946522
127.670347,-1184.329507,7624.121203,5056.230287
127.670656,-8512.368333,7550.100608,11031.775171
127.670966,8512.368333,13619.789333,2068.457845
127.671275,2368.659014,7179.997637,-2068.457845
127.671585,2072.576638,8586.388927,2681.334243
127.671894,-0.000000,11843.295072,766.095498
127.672203,-6587.832884,11991.336260,-5132.839837
127.672513,5107.421000,14359.995275,-9422.974625
127.672822,10807.006753,7772.162391,-11797.870669
127.673132,2442.679609,13471.748144,2451.505594
127.673441,-6439.791695,8660.409521,17926.634653
127.673751,3997.112087,9696.697840,10342.289223
127.674060,11917.315666,-518.144159,-5822.325785
127.674370,2516.700203,4293.194464,-842.705048
127.674679,-10510.924376,3552.988522,7201.297681
127.674989,-74.020594,8660.409521,-8580.269578
127.675298,11473.192101,15840.407159,-25051.322785
127.675608,296.082377,14211.954086,-9806.022374
127.675917,-10584.944971,10066.800811,16854.100956
127.676227,-3701.029710,9252.574275,10801.946522
127.676536,4885.359217,7846.182985,-7967.393179
127.676846,2072.576638,3034.844362,-2604.724693
127.677155,-9178.553681,8512.368333,12257.527968
127.677465,-6439.791695,15396.283594,842.705048
127.677774,6883.915261,13175.665768,-16930.710506
127.678084,2590.720797,16728.654289,-10878.556072
127.678393,-9178.553681,11325.150913,6128.763984
127.678703,-5921.647536,12583.501014,6818.249932
127.679012,-3330.926739,6735.874072,-2145.067394
127.679322,5699.585753,6957.935855,-2911.162892
127.679631,1776.494261,5995.668130,6741.640382
127.679941,-7550.100608,4367.215058,12487.356617
127.680250,814.226536,8142.265362,5439.278036
127.680560,10214.842000,15692.365970,-16777.491406
127.680869,4737.318029,8142.265362,-13866.328514
127.681179,-10066.800811,10732.986159,15398.519510
127.681488,-5181.441594,11621.233289,14709.033562
127.681798,8068.244768,8142.265362,-5439.278036
127.682107,4663.297435,6883.915261,-3064.381992
127.682417,-7254.018232,5181.441594,18692.730151
127.682727,-5255.462188,4219.173869,10112.460574
127.683036,11325.150913,14656.077652,-14479.204912
127.683346,2516.700203,15322.262999,-12104.308868
127.683656,-2664.741391,16284.530724,5515.887586
127.683965,-6735.874072,13323.706956,7354.516781
127.684275,2072.576638,13249.686362,-3830.477490
127.684585,370.102971,9474.636058,-2604.724693
127.684895,-962.267725,6291.750507,2834.553343
127.685204,-6587.832884,11695.253884,10495.508323
127.685514,370.102971,13915.871710,2221.676944
127.685824,7994.224174,15618.345376,-16547.662757
127.686133,592.164754,16210.510130,-12563.966167
127.686443,-9178.553681,12805.562797,7967.393179
127.686753,-666.185348,13841.851115,1915.238745
127.687062,3182.885551,2664.741391,-9039.926876
127.687372,666.185348,888.247130,-3294.210641
127.687682,-5403.503377,-3404.947333,13253.452115
127.687992,-3404.947333,4811.338623,8427.050478
127.688301,5477.523971,6661.853478,-9116.536426
127.688611,3997.112087,10807.006753,-15398.519510
127.688921,-592.164754,9696.697840,-1991.848295
127.689230,-4071.132681,10066.800811,6588.421283
127.689540,-0.000000,7105.977043,-229.828649
127.689850,1258.350101,4885.359217,-919.314598
127.690159,-3330.926739,3701.029710,8427.050478
127.690469,1036.288319,7550.100608,6281.983084
127.690779,-2294.638420,7402.059420,-1302.362347
127.691089,5255.462188,12213.398043,-7584.345430
127.691398,5921.647536,15840.407159,-11721.261119
127.691708,-0.000000,15692.365970,-8503.660028
127.692018,-6957.935855,14063.912898,7814.174080
127.692327,3552.988522,17098.757260,4903.011187
127.692637,4959.379811,10584.944971,-7048.078582
127.692947,-740.205942,9548.656652,3907.087040
127.693257,-6513.812290,8364.327145,14479.204912
127.693566,4811.338623,7994.224174,-8350.440928
127.693876,8438.347739,9548.656652,-20761.187996
127.694186,-0.000000,13175.665768,-6435.202183
127.694495,-5995.668130,11991.336260,7890.783629
127.694805,2368.659014,11843.295072,0.000000
127.695115,-0.000000,6143.709319,-1378.971896
127.695424,-1776.494261,1184.329507,2451.505594
127.695734,-3552.988522,-666.185348,6128.763984
127.696044,-6217.729913,4589.276840,2911.162892
127.696354,4959.379811,7846.182985,-9116.536426
127.696663,2368.659014,12139.377449,-15398.519510
127.696973,-1184.329507,9918.759623,-4136.915689
127.697283,-5847.626942,10658.965565,6205.373534
127.697592,-2886.803174,6291.750507,536.266849
127.697902,2368.659014,6957.935855,842.705048
127.698212,1258.350101,5181.441594,6818.249932
127.698521,-2442.679609,8364.327145,9193.145976
127.698831,-1258.350101,7031.956449,3064.381992
127.699141,4441.235652,13249.686362,-11874.480219
127.699451,4515.256246,13101.645173,-14479.204912
127.699760,-2664.741391,15322.262999,-3830.477490
127.700070,-4737.318029,10807.006753,7354.516781
127.700380,296.082377,12731.542202,2834.553343
127.700689,-296.082377,7550.100608,-2298.286494
127.700999,-666.185348,5625.565159,8120.612279
127.701309,-1702.473667,9548.656652,7124.688131
127.701618,1332.370696,7031.956449,-6511.811733
127.701928,4737.318029,14063.912898,-9959.241474
127.702238,1036.288319,9992.780217,-8273.831378
127.702548,-3849.070898,10955.047942,-2834.553343
127.702857,-5107.421000,11103.089130,7584.345430
127.703167,-444.123565,8882.471304,306.438199
127.703477,2442.679609,2664.741391,-5209.449386
127.703786,-3923.091493,4959.379811,8503.660028
127.704096,-4737.318029,7550.100608,7507.735880
127.704406,7179.997637,8290.306550,-11414.822920
127.704715,2664.741391,12435.459826,-12870.404366
127.705025,-2516.700203,9622.677246,2451.505594
127.705335,-9326.594869,10732.986159,7507.735880
127.705645,444.123565,14359.995275,-4136.915689
127.705954,666.185348,7476.080014,-10878.556072
127.706264,-5033.400406,8068.244768,4443.353888
127.706574,-2960.823768,8216.285956,8963.317327
127.706883,3478.967927,6735.874072,-1915.238745
127.707193,9918.759623,12509.480420,-8886.707777
127.707503,-1184.329507,10732.986159,-4903.011187
127.707812,-3997.112087,6143.709319,5669.106685
127.708122,-888.247130,10288.862594,3294.210641
127.708432,4071.132681,8142.265362,-6128.763984
127.708742,5551.544565,8290.306550,-4749.792088
127.709051,-1258.350101,7179.997637,6665.030833
127.709361,-2738.761985,8438.347739,5975.544884
127.709671,5329.482782,9474.636058,-5669.106685
127.709980,9400.615463,11843.295072,-9116.536426
127.710290,4145.153275,11843.295072,-6128.763984
127.710600,-11325.150913,13471.748144,7277.907231
127.710909,3034.844362,13915.871710,3600.648841
127.711219,4737.318029,13471.748144,-10955.165621
127.711529,3478.967927,8956.491898,-8656.879127
127.711839,-6735.874072,9770.718434,9806.022374
127.712148,-3478.967927,8586.388927,5439.278036
127.712458,10658.965565,11103.089130,-14632.424012
127.712768,2664.741391,10436.903782,-12640.575717
127.713077,-9030.512492,9178.553681,7354.516781
127.713387,-8808.450710,9622.677246,7814.174080
127.713697,5773.606348,10584.944971,-11874.480219
127.714006,3775.050304,8586.388927,-13483.280765
127.714316,-2220.617826,3182.885551,3524.039291
127.714626,-8586.388927,1924.535449,8886.707777
127.714936,-962.267725,6513.812290,-2451.505594
127.715245,7031.956449,11103.089130,-11184.994271
127.715555,-592.164754,5699.585753,-5669.106685
127.715865,-6883.915261,7772.162391,5975.544884
127.716174,-1554.432478,8142.265362,1915.238745
127.716484,4515.256246,10362.883188,-14555.814462
127.716794,370.102971,10288.862594,-6818.249932
127.717104,-7328.038826,7105.977043,12334.137518
127.717413,-0.000000,8882.471304,2221.676944
127.717723,5995.668130,10214.842000,-11108.384721
127.718033,1406.391290,11695.253884,-5439.278036
127.718342,-3404.947333,6143.709319,5132.839837
127.718652,-2812.782580,14804.118840,2374.896044
127.718962,2516.700203,15840.407159,-11108.384721
127.719271,7105.977043,13397.727550,-12947.013916
127.719581,-0.000000,11621.233289,-689.485948
127.719891,-8660.409521,8734.430116,12793.794817
127.720201,1554.432478,9474.636058,-3524.039291
127.720510,5995.668130,6661.853478,-14785.643111
127.720820,-1850.514855,10881.027347,-5056.230287
127.721130,-8068.244768,6143.709319,8580.269578
127.721439,1776.494261,11251.130318,-2145.067394
127.721749,6809.894666,7550.100608,-12257.527968
127.722059,-0.000000,6217.729913,-3830.477490
127.722368,-4885.359217,5033.400406,7354.516781
127.722678,-7772.162391,5403.503377,4519.963438
127.722988,5403.503377,8808.450710,-7737.564530
127.723298,4145.153275,12657.521608,-12563.966167
127.723607,-1998.556043,10584.944971,-2604.724693
127.723917,-6069.688724,10658.965565,6665.030833
127.724227,3404.947333,9770.718434,-995.924147
127.724536,2516.700203,9622.677246,-7354.516781
127.724846,-2442.679609,9844.739029,2068.457845
127.725156,-962.267725,10584.944971,4519.963438
127.725465,-0.000000,11843.295072,-4443.353888
127.725775,5995.668130,12361.439231,-9576.193725
127.726085,4589.276840,9622.677246,-4596.572988
127.726395,-1776.494261,10066.800811,2757.943793
127.726704,-2072.576638,11547.212695,7507.735880
127.727014,1184.329507,9918.759623,-1072.533697
127.727324,4959.379811,11103.089130,-7814.174080
127.727633,1184.329507,8956.491898,1455.581446
127.727943,-3034.844362,5551.544565,5898.935335
127.728253,1628.453072,7698.141797,-2987.772442
127.728562,5329.482782,7772.162391,-8044.002729
127.728872,3849.070898,7402.059420,-2374.896044
127.729182,-4441.235652,12065.356855,4596.572988
127.729492,-2442.679609,11399.171507,2681.334243
127.729801,592.164754,9252.574275,-5669.106685
127.730111,4145.153275,8216.285956,-7354.516781
127.730421,-2738.761985,5699.585753,2681.334243
127.730730,-5107.421000,8808.450710,5209.449386
127.731040,1998.556043,9474.636058,-4213.525239
127.731350,2220.617826,8808.450710,-8427.050478
127.731659,-740.205942,10807.006753,0.000000
127.731969,-3478.967927,11473.192101,5592.497135
127.732279,222.061783,11917.315666,-4443.353888
127.732589,2516.700203,9400.615463,-8733.488677
127.732898,2294.638420,4811.338623,-3294.210641
127.733208,-7920.203579,9474.636058,7967.393179
127.733518,-2368.659014,12213.398043,3217.601092
127.733827,3849.070898,10214.842000,-9269.755526
127.734137,3627.009116,11843.295072,-10112.460574
127.734447,-1554.432478,11991.336260,2298.286494
127.734756,-6735.874072,8734.430116,3140.991542
127.735066,5551.544565,10362.883188,-5515.887586
127.735376,5699.585753,8660.409521,-7354.516781
127.735686,-1628.453072,7254.018232,2451.505594
127.735995,-7402.059420,11399.171507,8350.440928
127.736305,962.267725,8586.388927,-4519.963438
127.736615,4367.215058,11547.212695,-12027.699319
127.736924,2294.638420,11843.295072,-5515.887586
127.737234,-6957.935855,10881.027347,5439.278036
127.737544,-1924.535449,11843.295072,2145.067394
127.737853,7698.141797,8586.388927,-7814.174080
127.738163,1110.308913,8142.265362,-5669.106685
127.738473,-3034.844362,8586.388927,6971.469032
127.738783,-4663.297435,9326.594869,6128.763984
127.739092,2664.741391,13249.686362,-7507.735880
127.739402,5551.544565,10140.821405,-11491.432470
127.739712,-3034.844362,10732.986159,-1225.752797
127.740021,-6587.832884,10658.965565,5362.668486
127.740331,962.267725,8216.285956,-7124.688131
127.740641,4811.338623,7994.224174,-11184.994271
127.740951,1332.370696,8956.491898,1838.629195
127.741260,-8512.368333,3701.029710,11568.042020
127.741570,-2294.638420,6365.771101,2374.896044
127.741880,2960.823768,8586.388927,-7431.126331
127.742189,5107.421000,10362.883188,-10801.946522
127.742499,-2664.741391,11621.233289,-919.314598
127.742809,-5773.606348,12509.480420,3753.867940
127.743118,6513.812290,8142.265362,-2757.943793
127.743428,7920.203579,7328.038826,-7660.954980
127.743738,-3849.070898,4663.297435,11184.994271
127.744048,-9474.636058,9400.615463,18233.072852
127.744357,7179.997637,10214.842000,-7277.907231
127.744667,4071.132681,13619.789333,-20761.187996
127.744977,-3256.906145,16580.613101,-2987.772442
127.745286,-4811.338623,14359.995275,3294.210641
127.745596,5033.400406,13249.686362,-8656.879127
127.745906,7179.997637,8660.409521,-7814.174080
127.746215,-444.123565,2960.823768,8350.440928
127.746525,-9770.718434,5329.482782,19688.654299
127.746835,-666.185348,8216.285956,7354.516781
127.747145,10288.862594,9770.718434,-15015.471761
127.747454,9548.656652,7105.977043,-17543.586904
127.747764,-7550.100608,6809.894666,2757.943793
127.748074,-6809.894666,10288.862594,7737.564530
127.748383,6661.853478,11325.150913,-8963.317327
127.748693,5699.585753,8882.471304,-10725.336972
127.749003,-8660.409521,8142.265362,9806.022374
127.749312,-11843.295072,4145.153275,17390.367805
127.749622,6439.791695,10584.944971,-8503.660028
127.749932,10140.821405,13619.789333,-23059.474490
127.750242,-4071.132681,9178.553681,-5592.497135
127.750551,-8882.471304,11177.109724,10725.336972
127.750861,2368.659014,9178.553681,-766.095498
127.751171,7698.141797,11991.336260,-8963.317327
127.751480,-1480.411884,6439.791695,5209.449386
127.751790,-9400.615463,6587.832884,14249.376263
127.752100,-592.164754,7994.224174,995.924147
127.752409,8956.491898,11177.109724,-20301.530697
127.752719,4293.194464,12879.583391,-16471.053207
127.753029,-5329.482782,12731.542202,3677.258390
127.753339,-5329.482782,15618.345376,5669.106685
127.753648,6291.750507,15026.180623,-5439.278036
127.753958,4589.276840,8068.244768,-4136.915689
127.754268,-4737.318029,3182.885551,9039.926876
127.754577,-8956.491898,3182.885551,7890.783629
127.754887,3330.926739,10362.883188,-4979.620737
127.755197,8956.491898,12435.459826,-21986.940793
127.755506,1628.453072,10140.821405,-10648.727422
127.755816,-8438.347739,11103.089130,8963.317327
127.756126,-2368.659014,12213.398043,383.047749
127.756436,6661.853478,4663.297435,-8427.050478
127.756745,-814.226536,3256.906145,2145.067394
127.757055,-11029.068536,3256.906145,15168.690860
127.757365,-2220.617826,6513.812290,3830.477490
127.757674,7476.080014,9992.780217,-13100.233016
127.757984,1628.453072,14137.933492,-12717.185267
127.758294,-4071.132681,11991.336260,-1915.238745
127.758603,-4737.318029,12139.377449,842.705048
127.758913,1998.556043,12731.542202,-1838.629195
127.759223,4589.276840,8956.491898,-6052.154434
127.759533,-2368.659014,6143.709319,3217.601092
127.759842,-4293.194464,5107.421000,15858.176809
127.760152,518.144159,7254.018232,3447.429741
127.760462,5107.421000,8734.430116,-14479.204912
127.760771,2960.823768,11177.109724,-10418.898773
127.761081,-5403.503377,11769.274478,229.828649
127.761391,666.185348,11991.336260,-3830.477490
127.761700,4663.297435,11473.192101,-5822.325785
127.762010,2516.700203,6809.894666,229.828649
127.762320,-4589.276840,3701.029710,11184.994271
127.762630,-4737.318029,6513.812290,14019.547613
127.762939,4293.194464,9622.677246,-1072.533697
127.763249,10066.800811,12657.521608,-18616.120601
127.763559,-444.123565,13545.768739,-9116.536426
127.763868,-6069.688724,11917.315666,1608.800546
127.764178,5477.523971,8290.306550,-6894.859482
127.764488,5403.503377,10955.047942,-10955.165621
127.764797,-5107.421000,7105.977043,9039.926876
127.765107,-5033.400406,4219.173869,18922.558801
127.765417,-148.041188,10510.924376,5209.449386
127.765727,7179.997637,11029.068536,-12334.137518
127.766036,3552.988522,12139.377449,-11874.480219
127.766346,-2812.782580,11843.295072,-6665.030833
127.766656,-2220.617826,8142.265362,0.000000
127.766965,1554.432478,12361.439231,-1685.410096
127.767275,2812.782580,7254.018232,-1685.410096
127.767585,444.123565,4737.318029,8350.440928
127.767895,-6957.935855,5255.462188,14402.595362
127.768204,-148.041188,8142.265362,919.314598
127.768514,5699.585753,9696.697840,-14325.985813
127.768824,7920.203579,10955.047942,-15015.471761
127.769133,-7994.224174,10288.862594,-3524.039291
127.769443,-592.164754,11843.295072,612.876398
127.769753,-962.267725,10362.883188,-2451.505594
127.770062,1480.411884,9474.636058,-536.266849
127.770372,-2812.782580,5181.441594,11108.384721
127.770682,-7254.018232,6735.874072,10572.117872
127.770992,4367.215058,10214.842000,-6052.154434
127.771301,6809.894666,6809.894666,-18309.682402
127.771611,1998.556043,9992.780217,-7507.735880
127.771921,-7328.038826,11695.253884,9116.536426
127.772230,-962.267725,11769.274478,1455.581446
127.772540,4219.173869,9474.636058,-5745.716235
127.772850,-1406.391290,6513.812290,2451.505594
127.773159,-9252.574275,6809.894666,11031.775171
127.773469,-1406.391290,8956.491898,1991.848295
127.773779,7994.224174,13915.871710,-13176.842566
127.774089,5921.647536,11843.295072,-12870.404366
127.774398,-3552.988522,11769.274478,76.609550
127.774708,-5255.462188,10955.047942,6281.983084
127.775018,2516.700203,11325.150913,-2451.505594
127.775327,3404.947333,7624.121203,-3907.087040
127.775637,-4441.235652,7328.038826,5439.278036
127.775947,-4811.338623,5995.668130,10265.679673
127.776256,3256.906145,9252.574275,0.000000
127.776566,7105.977043,9992.780217,-14709.033562
127.776876,4885.359217,10658.965565,-12257.527968
127.777186,-10362.883188,11325.150913,6052.154434
127.777495,2442.679609,11399.171507,5056.230287
127.777805,8586.388927,12213.398043,-10495.508323
127.778115,3330.926739,5699.585753,-3294.210641
127.778424,-8882.471304,9844.739029,17237.148705
127.778734,-4441.235652,7402.059420,12640.575717
127.779044,8882.471304,11621.233289,-12717.185267
127.779353,9252.574275,12139.377449,-16394.443657
127.779663,-4885.359217,10140.821405,-459.657299
127.779973,-5551.544565,10955.047942,6281.983084
127.780283,3552.988522,10214.842000,-5745.716235
127.780592,5995.668130,9104.533087,-8350.440928
127.780902,-1406.391290,5995.668130,4903.011187
127.781212,-11177.109724,8882.471304,17390.367805
127.781521,1702.473667,9918.759623,4903.011187
127.781831,10362.883188,8142.265362,-17696.806004
127.782140,3701.029710,8586.388927,-14709.033562
127.782450,-9844.739029,9548.656652,6588.421283
127.782759,-2590.720797,7772.162391,5975.544884
127.783069,6957.935855,10955.047942,-9652.803275
127.783379,6365.771101,9326.594869,-5975.544884
127.783688,-9104.533087,7105.977043,17390.367805
127.783998,-7105.977043,6069.688724,17160.539155
127.784307,7698.141797,10881.027347,-7277.907231
127.784617,8364.327145,9696.697840,-21527.283494
127.784926,-666.185348,8068.244768,-5898.935335
127.785236,-6661.853478,11695.253884,7277.907231
127.785546,-2812.782580,9992.780217,-612.876398
127.785855,9696.697840,13175.665768,-10572.117872
127.786165,592.164754,8438.347739,-1532.190996
127.786474,-10584.944971,6809.894666,16241.224558
127.786784,-0.000000,8734.430116,8810.098227
127.787093,9030.512492,8660.409521,-14249.376263
127.787403,4737.318029,10510.924376,-11874.480219
127.787713,-6143.709319,8512.368333,3447.429741
127.788022,-2960.823768,7031.956449,6052.154434
127.788332,3182.885551,11769.274478,-5439.278036
127.788641,4145.153275,7994.224174,-5515.887586
127.788951,-5477.523971,7254.018232,9269.755526
127.789260,-5847.626942,8290.306550,12410.747068
127.789570,3478.967927,10658.965565,-7354.516781
127.789880,5255.462188,10066.800811,-17620.196454
127.790189,1184.329507,11029.068536,-4673.182538
127.790499,-8364.327145,8660.409521,9039.926876
127.790808,4219.173869,11325.150913,459.657299
127.791118,2738.761985,9326.594869,-6665.030833
127.791427,-666.185348,5255.462188,1838.629195
127.791737,-6735.874072,7550.100608,8427.050478
127.792047,-4959.379811,8956.491898,5056.230287
127.792356,5773.606348,12213.398043,-12717.185267
127.792666,5107.421000,10584.944971,-15551.738609
127.792975,-2368.659014,12287.418637,-3677.258390
127.793285,-7328.038826,9770.718434,5975.544884
127.793594,1332.370696,9992.780217,-3140.991542
127.793904,2294.638420,9030.512492,-3830.477490
127.794214,1480.411884,6217.729913,6511.811733
127.794523,-6291.750507,6439.791695,9729.412825
127.794833,740.205942,8660.409521,-536.266849
127.795142,4367.215058,11547.212695,-12257.527968
127.795452,3552.988522,9622.677246,-9039.926876
127.795761,-1110.308913,13027.624579,-1762.019645
127.796071,-0.000000,10066.800811,1378.971896
127.796381,-296.082377,10140.821405,-1072.533697
127.796690,3478.967927,8290.306550,612.876398
127.797000,-4367.215058,8956.491898,6894.859482
127.797309,-2294.638420,10066.800811,8273.831378
127.797619,3108.864956,9918.759623,-4290.134789
127.797928,6217.729913,12509.480420,-13176.842566
127.798238,-1628.453072,10066.800811,-4213.525239
127.798548,-5329.482782,12065.356855,2604.724693
127.798857,518.144159,7772.162391,1532.190996
127.799167,2516.700203,11991.336260,-2987.772442
127.799476,-0.000000,8364.327145,995.924147
127.799786,-4219.173869,8512.368333,8733.488677
127.800095,-0.000000,8956.491898,4903.011187
127.800405,2442.679609,8660.409521,-9193.145976
127.800715,5847.626942,9548.656652,-11568.042020
127.801024,-4071.132681,9030.512492,-459.657299
127.801334,-2812.782580,7624.121203,4366.744339
127.801643,-74.020594,10955.047942,-1072.533697
127.801953,3701.029710,9400.615463,-1762.019645
127.802262,-1258.350101,9326.594869,842.705048
127.802572,-4441.235652,9770.718434,5898.935335
127.802882,962.267725,8882.471304,0.000000
127.803191,6883.915261,13323.706956,-14479.204912
127.803501,4737.318029,10732.986159,-10572.117872
127.803810,-5921.647536,10288.862594,4366.744339
127.804120,-666.185348,8808.450710,9806.022374
127.804429,3256.906145,9844.739029,-536.266849
127.804739,3997.112087,9770.718434,-842.705048
127.805049,-5773.606348,8586.388927,7814.174080
127.805358,-2590.720797,9770.718434,6205.373534
127.805668,2072.576638,14434.015869,-10572.117872
127.805977,6809.894666,17764.942608,-16547.662757
127.806287,-1036.288319,10510.924376,-7201.297681
127.806596,-5847.626942,11695.253884,8810.098227
127.806906,-1406.391290,9696.697840,5439.278036
127.807216,6143.709319,6513.812290,-3294.210641
127.807525,3552.988522,3256.906145,2451.505594
127.807835,-5921.647536,3701.029710,13483.280765
127.808144,-2220.617826,4515.256246,3677.258390
127.808454,2664.741391,10362.883188,-13866.328514
127.808763,8438.347739,13027.624579,-14325.985813
127.809073,-5847.626942,11029.068536,-4749.792088
127.809383,-7846.182985,8956.491898,6894.859482
127.809692,148.041188,11621.233289,1838.629195
127.810002,7254.018232,7994.224174,-5439.278036
127.810311,-814.226536,6661.853478,5898.935335
127.810621,-8512.368333,7920.203579,18692.730151
127.810930,1332.370696,8808.450710,-842.705048
127.811240,10955.047942,11325.150913,-22829.645840
127.811550,3330.926739,12731.542202,-11184.994271
127.811859,-10732.986159,13101.645173,6511.811733
127.812169,-1924.535449,12435.459826,2757.943793
127.812478,6661.853478,13545.768739,-5286.058936
127.812788,2886.803174,11473.192101,0.000000
127.813097,-9918.759623,6735.874072,14785.643111
127.813407,-222.061783,6735.874072,9193.145976
127.813717,3108.864956,9252.574275,-15934.786358
127.814026,7179.997637,8364.327145,-21374.064394
127.814336,-3034.844362,8734.430116,-1685.410096
127.814645,-6069.688724,11621.233289,6358.592633
127.814955,-444.123565,12065.356855,153.219100
127.815264,4737.318029,6957.935855,-536.266849
127.815574,-2516.700203,3627.009116,4136.915689
127.815884,-7550.100608,6217.729913,10342.289223
127.816193,1850.514855,9770.718434,-1149.143247
127.816503,8734.430116,10214.842000,-20761.187996
127.816812,6513.812290,12953.603985,-16930.710506
127.817122,-8734.430116,10066.800811,7354.516781
127.817431,-3034.844362,10807.006753,10112.460574
127.817741,4663.297435,11843.295072,-2681.334243
127.818051,2368.659014,6957.935855,-1532.190996
127.818360,-8882.471304,7179.997637,10648.727422
127.818670,-3256.906145,10140.821405,6741.640382
127.818979,9030.512492,13767.830521,-15092.081311
127.819289,7624.121203,12731.542202,-19458.825649
127.819598,-1332.370696,12805.562797,-2221.676944
127.819908,-5847.626942,10955.047942,8503.660028
127.820218,2146.597232,11547.212695,1685.410096
127.820527,2516.700203,9030.512492,-2451.505594
127.820837,2516.700203,3478.967927,4366.744339
127.821146,-7105.977043,5033.400406,9806.022374
127.821456,-1480.411884,7328.038826,2757.943793
127.821765,4441.235652,11177.109724,-11108.384721
127.822075,6809.894666,9474.636058,-17620.196454
127.822385,-7328.038826,12213.398043,-2834.553343
127.822694,-4959.379811,10510.924376,7124.688131
127.823004,2220.617826,11991.336260,-1149.143247
127.823313,4515.256246,7105.977043,-4826.401637
127.823623,-6217.729913,6217.729913,7277.907231
127.823932,-5477.523971,3627.009116,14862.252661
127.824242,5033.400406,8438.347739,-2681.334243
127.824552,7254.018232,10362.883188,-13559.890315
127.824861,1702.473667,11769.274478,-5745.716235
127.825171,-8808.450710,13693.809927,1608.800546
127.825480,-4811.338623,10584.944971,-153.219100
127.825790,6809.894666,13989.892304,-6971.469032
127.826099,1110.308913,12213.398043,-2145.067394
127.826409,-7994.224174,8142.265362,10648.727422
127.826719,-518.144159,6291.750507,12870.404366
127.827028,3404.947333,7846.182985,-9346.365076
127.827338,7179.997637,9030.512492,-11951.089769
127.827647,-4737.318029,9844.739029,995.924147
127.827957,-6809.894666,13027.624579,1378.971896
127.828266,3256.906145,9326.594869,-3524.039291
127.828576,5181.441594,11621.233289,-4903.011187
127.828886,-1332.370696,6587.832884,-306.438199
127.829195,-7994.224174,6513.812290,12334.137518
127.829505,1702.473667,6365.771101,3524.039291
127.829814,4737.318029,8734.430116,-15398.519510
127.830124,6513.812290,11843.295072,-10955.165621
127.830433,-8512.368333,8956.491898,2987.772442
127.830743,-888.247130,10955.047942,2145.067394
127.831053,4367.215058,14211.954086,-5822.325785
127.831362,2664.741391,9400.615463,-2298.286494
127.831672,-9400.615463,6957.935855,10955.165621
127.831981,-2220.617826,6587.832884,10495.508323
127.832291,5699.585753,9696.697840,-9422.974625
127.832600,4145.153275,10214.842000,-16394.443657
127.832910,-2368.659014,11695.253884,-4903.011187
127.833220,-4885.359217,8882.471304,0.000000
127.833529,666.185348,10510.924376,-2451.505594
127.833839,2960.823768,11029.068536,-4749.792088
127.834148,-370.102971,5995.668130,2911.162892
127.834458,-5921.647536,5033.400406,11721.261119
127.834767,1406.391290,4737.318029,3064.381992
127.835077,3108.864956,6661.853478,-9499.584175
127.835387,5329.482782,9400.615463,-10572.117872
127.835696,-2886.803174,10436.903782,-4443.353888
127.836006,-2738.761985,11103.089130,459.657299
127.836315,148.041188,12953.603985,-153.219100
127.836625,4663.297435,8438.347739,-2681.334243
127.836934,-2368.659014,8290.306550,4519.963438
127.837244,-5625.565159,7476.080014,11491.432470
127.837554,-888.247130,8216.285956,-1762.019645
127.837863,5329.482782,9548.656652,-17007.320056
127.838173,4811.338623,11177.109724,-14019.547613
127.838482,-6957.935855,11251.130318,0.000000
127.838792,-444.123565,15322.262999,4596.572988
127.839101,1702.473667,15396.283594,-995.924147
127.839411,4293.194464,10436.903782,-4290.134789
127.839721,-6143.709319,7624.121203,6281.983084
127.840030,-3627.009116,2368.659014,9499.584175
127.840340,2516.700203,8512.368333,-6588.421283
127.840649,9622.677246,7476.080014,-17543.586904
127.840959,-1850.514855,7105.977043,-6205.373534
127.841268,-10732.986159,8882.471304,9039.926876
127.841578,2072.576638,11547.212695,1762.019645
127.841888,4737.318029,11621.233289,-10189.070123
127.842197,1480.411884,11251.130318,-2911.162892
127.842507,-8216.285956,8216.285956,7967.393179
127.842816,-3256.906145,5551.544565,2374.896044
127.843126,8956.491898,11473.192101,-11031.775171
127.843435,5329.482782,8438.347739,-12870.404366
127.843745,-7105.977043,11325.150913,3140.991542
127.844055,-4737.318029,9918.759623,9882.631924
127.844364,2072.576638,12583.501014,-4213.525239
127.844674,6809.894666,11399.171507,-10955.165621
127.844983,-4441.235652,9696.697840,4213.525239
127.845293,-7254.018232,9474.636058,10189.070123
127.845602,1776.494261,9178.553681,-4596.572988
127.845912,8882.471304,8290.306550,-13330.061665
127.846222,370.102971,10510.924376,-8350.440928
127.846531,-8290.306550,7920.203579,9652.803275
127.846841,-1998.556043,11177.109724,6741.640382
127.847150,5403.503377,10955.047942,-9346.365076
127.847460,3108.864956,9400.615463,-3447.429741
127.847769,-10436.903782,6217.729913,11491.432470
127.848079,-2442.679609,6957.935855,11414.822920
127.848389,7402.059420,9104.533087,-10878.556072
127.848698,5625.565159,6809.894666,-14096.157163
127.849008,-5625.565159,10584.944971,0.000000
127.849317,-7920.203579,7994.224174,4596.572988
127.849627,1406.391290,13545.768739,-6281.983084
127.849936,7031.956449,10807.006753,-9576.193725
127.850246,-1628.453072,11473.192101,-6665.030833
127.850556,-8808.450710,8586.388927,11568.042020
127.850865,-0.000000,6809.894666,7660.954980
127.851175,8882.471304,6957.935855,-11644.651570
127.851484,4145.153275,7254.018232,-11261.603821
127.851794,-9104.533087,10658.965565,6052.154434
127.852103,-4663.297435,9178.553681,8810.098227
127.852413,8808.450710,12361.439231,-11874.480219
127.852723,4811.338623,13323.706956,-10418.898773
127.853032,-9992.780217,9548.656652,6128.763984
127.853342,-5329.482782,5551.544565,9806.022374
127.853651,5329.482782,8808.450710,-9116.536426
127.853961,5625.565159,10066.800811,-16317.834107
127.854270,-3701.029710,8956.491898,-1225.752797
127.854580,-4885.359217,9326.594869,11184.994271
127.854890,814.226536,7846.182985,842.705048
127.855199,6587.832884,11177.109724,-6818.249932
127.855509,2516.700203,7846.182985,459.657299
127.855818,-8216.285956,8438.347739,8503.660028
127.856128,-222.061783,7772.162391,3753.867940
127.856437,6439.791695,9104.533087,-11414.822920
127.856747,4367.215058,7105.977043,-12410.747068
127.857057,-6217.729913,8142.265362,1608.800546
127.857366,-4145.153275,11621.233289,10801.946522
127.857676,4145.153275,12805.562797,-2757.943793
127.857985,6217.729913,10881.027347,-8120.612279
127.858295,-5477.523971,10807.006753,4060.306139
127.858604,-7328.038826,7846.182985,9652.803275
127.858914,4737.318029,9030.512492,-7431.126331
127.859223,7179.997637,12213.398043,-16394.443657
127.859533,1110.308913,9104.533087,-6128.763984
127.859843,-5033.400406,9178.553681,7507.735880
127.860152,-444.123565,7846.182985,3370.820191
127.860462,3478.967927,10584.944971,-5439.278036
127.860771,3478.967927,7179.997637,-3677.258390
127.861081,-6735.874072,8364.327145,3524.039291
127.861390,-1258.350101,7698.141797,3217.601092
127.861700,3775.050304,8290.306550,-15092.081311
127.862010,7105.977043,8956.491898,-16394.443657
127.862319,-2442.679609,7994.224174,-2451.505594
127.862629,-4885.359217,11917.315666,8886.707777
127.862938,2368.659014,9400.615463,2528.115143
127.863248,6365.771101,10881.027347,-4136.915689
127.863557,-1110.308913,9770.718434,2451.505594
127.863867,-5921.647536,6883.915261,7967.393179
127.864177,2294.638420,9104.533087,-1072.533697
127.864486,4367.215058,12509.480420,-14555.814462
127.864796,296.082377,7994.224174,-11721.261119
127.865105,-6291.750507,7105.977043,3677.258390
127.865415,-3182.885551,12361.439231,6894.859482
127.865724,666.185348,11843.295072,-3907.087040
127.866034,4885.359217,13175.665768,-8273.831378
127.866344,-4293.194464,9178.553681,2834.553343
127.866653,-3627.009116,6809.894666,7737.564530
127.866963,2886.803174,8290.306550,-3140.991542
127.867272,5921.647536,10214.842000,-13406.671215
127.867582,1406.391290,9992.780217,-3217.601092
127.867891,-6661.853478,8586.388927,9806.022374
127.868201,-1554.432478,8956.491898,3830.477490
127.868511,3701.029710,7994.224174,-6894.859482
127.868820,5255.462188,8364.327145,-5362.668486
127.869130,-5847.626942,5255.462188,3064.381992
127.869439,-1924.535449,11029.068536,3677.258390
127.869749,2294.638420,7994.224174,-7660.954980
127.870058,5181.441594,9770.718434,-10265.679673
127.870368,-2442.679609,11177.109724,-536.266849
127.870678,-5699.585753,9400.615463,9269.755526
127.870987,1776.494261,12657.521608,1532.190996
127.871297,6217.729913,9770.718434,-6511.811733
127.871606,74.020594,10658.965565,0.000000
127.871916,-3627.009116,8660.409521,8273.831378
127.872225,-1924.535449,9474.636058,1838.629195
127.872535,4737.318029,10510.924376,-12180.918418
127.872845,1924.535449,10807.006753,-12563.966167
127.873154,-5625.565159,7328.038826,612.876398
127.873464,-2072.576638,9326.594869,6281.983084
127.873773,2294.638420,10807.006753,-1149.143247
127.874083,5773.606348,8512.368333,-4749.792088
127.874392,-3034.844362,5181.441594,4749.792088
127.874702,-3775.050304,6661.853478,9116.536426
127.875012,-370.102971,6217.729913,-1762.019645
127.875321,8438.347739,9400.615463,-14172.766713
127.875631,2294.638420,9992.780217,-8886.707777
127.875940,-7031.956449,11251.130318,1225.752797
127.876250,-3627.009116,11399.171507,6665.030833
127.876559,8068.244768,11103.089130,-6665.030833
127.876869,1110.308913,8068.244768,-6511.811733
127.877179,-5995.668130,7920.203579,8580.269578
127.877488,-3034.844362,4589.276840,12027.699319
127.877798,4885.359217,10362.883188,-10572.117872
127.878107,7846.182985,10436.903782,-15168.690860
127.878417,-4885.359217,10584.944971,-1838.629195
127.878726,-3701.029710,13841.851115,2451.505594
127.879036,814.226536,12065.356855,536.266849
127.879346,7105.977043,11917.315666,-5286.058936
127.879655,-1702.473667,7624.121203,1608.800546
127.879965,-4293.194464,4663.297435,10035.851024
127.880274,-2738.761985,4145.153275,6128.763984
127.880584,5773.606348,6883.915261,-12640.575717
127.880893,4737.318029,10288.862594,-14402.595362
127.881203,-5403.503377,9030.512492,-1072.533697
127.881513,-3108.864956,11103.089130,6818.249932
127.881822,3552.988522,11325.150913,-842.705048
127.882132,8142.265362,11177.109724,-7201.297681
127.882441,-7772.162391,7920.203579,6971.469032
127.882751,-3108.864956,6809.894666,12410.747068
127.883060,4959.379811,6735.874072,-5056.230287
127.883370,10436.903782,10510.924376,-19688.654299
127.883680,-4145.153275,13915.871710,-2604.724693
127.883989,-6291.750507,11621.233289,7890.783629
127.884299,1924.535449,13027.624579,766.095498
127.884608,7476.080014,9252.574275,-4903.011187
127.884918,-888.247130,8660.409521,689.485948
127.885228,-5699.585753,7179.997637,9346.365076
127.885537,1332.370696,6069.688724,2298.286494
127.885847,3552.988522,9474.636058,-12410.747068
127.886156,5773.606348,11843.295072,-10572.117872
127.886466,-5181.441594,11843.295072,919.314598
127.886776,-1702.473667,9104.533087,5515.887586
127.887085,3552.988522,14211.954086,0.000000
127.887395,5699.585753,10510.924376,-6358.592633
127.887704,-4959.379811,5107.421000,2757.943793
127.888014,-2812.782580,4737.318029,10955.165621
127.888323,-2664.741391,8068.244768,-2221.676944
127.888633,8586.388927,10214.842000,-15092.081311
127.888943,3627.009116,11843.295072,-10035.851024
127.889252,-5773.606348,10140.821405,3677.258390
127.889562,-1480.411884,13471.748144,5209.449386
127.889871,2664.741391,10362.883188,-4826.401637
127.890181,3701.029710,7254.018232,-2681.334243
127.890491,-3775.050304,7254.018232,9039.926876
127.890800,-1702.473667,6143.709319,9422.974625
127.891110,1998.556043,7772.162391,-4979.620737
127.891419,6439.791695,10955.047942,-9193.145976
127.891729,-4663.297435,10362.883188,-3294.210641
127.892038,-518.144159,15396.283594,2145.067394
127.892348,-222.061783,15766.386565,-2987.772442
127.892658,4589.276840,12213.398043,-7431.126331
127.892967,-2368.659014,7698.141797,1149.143247
127.893277,-2590.720797,7476.080014,8810.098227
127.893586,-1110.308913,5033.400406,3370.820191
127.893896,3923.091493,6809.894666,-6665.030833
127.894206,3627.009116,9104.533087,-5209.449386
127.894515,-4441.235652,8586.388927,153.219100
127.894825,-1628.453072,11843.295072,2987.772442
127.895134,3034.844362,11991.336260,-4366.744339
127.895444,4589.276840,9844.739029,-7584.345430
127.895753,-2960.823768,7254.018232,4290.134789
127.896063,-2960.823768,6069.688724,10189.070123
127.896373,-2368.659014,6735.874072,-1838.629195
127.896682,6069.688724,8956.491898,-10342.289223
127.896992,1110.308913,10362.883188,-5898.935335
127.897301,-4663.297435,11399.171507,383.047749
127.897611,-1110.308913,14878.139434,2221.676944
127.897921,5255.462188,11843.295072,-2681.334243
127.898230,2886.803174,10436.903782,-536.266849
127.898540,-4441.235652,6217.729913,7431.126331
127.898849,-3256.906145,6069.688724,536.266849
127.899159,-74.020594,8216.285956,-6511.811733
127.899469,5847.626942,10658.965565,-13023.623466
127.899778,-1850.514855,10955.047942,-5286.058936
127.900088,-4589.276840,15914.427753,3677.258390
127.900397,2960.823768,14137.933492,-766.095498
127.900707,5921.647536,9030.512492,-7584.345430
127.901016,-1554.432478,5033.400406,2374.896044
127.901326,-5847.626942,2368.659014,14709.033562
127.901636,-0.000000,6439.791695,2528.115143
127.901945,1480.411884,6809.894666,-11338.213370
127.902255,3627.009116,9622.677246,-9806.022374
127.902564,-3627.009116,10584.944971,-4060.306139
127.902874,-2368.659014,13841.851115,-2374.896044
127.903184,1924.535449,12435.459826,-3983.696590
127.903493,3701.029710,9918.759623,229.828649
127.903803,-1184.329507,7698.141797,3830.477490
127.904112,-4219.173869,5847.626942,9499.584175
127.904422,-1702.473667,4663.297435,1608.800546
127.904731,6217.729913,7254.018232,-9959.241474
127.905041,1554.432478,11917.315666,-9729.412825
127.905351,-4589.276840,15470.304188,536.266849
127.905660,-3108.864956,15544.324782,3217.601092
127.905970,5847.626942,14211.954086,-8427.050478
127.906279,4367.215058,11029.068536,-6588.421283
127.906589,-7624.121203,5255.462188,10035.851024
127.906899,-4145.153275,4885.359217,10572.117872
127.907208,5773.606348,3775.050304,-9269.755526
127.907518,7105.977043,4293.194464,-11261.603821
127.907827,-5107.421000,9400.615463,4749.792088
127.908137,-3997.112087,11103.089130,7507.735880
127.908446,1480.411884,11547.212695,-5592.497135
127.908756,5921.647536,9178.553681,-10189.070123
127.909066,-2738.761985,9104.533087,995.924147
127.909375,-3182.885551,7105.977043,4519.963438
127.909685,-1850.514855,4071.132681,306.438199
127.909994,3849.070898,7328.038826,-4903.011187
127.910304,2220.617826,11843.295072,-6741.640382
127.910614,-3404.947333,10881.027347,2451.505594
127.910923,-4515.256246,13397.727550,7507.735880
127.911233,3552.988522,14656.077652,-2757.943793
127.911542,4885.359217,12435.459826,-10572.117872
127.911852,-4663.297435,9252.574275,1149.143247
127.912162,-5255.462188,9252.574275,9116.536426
127.912471,1480.411884,8068.244768,-7277.907231
127.912781,7772.162391,9770.718434,-13789.718964
127.913090,-148.041188,8364.327145,0.000000
127.913400,-4589.276840,8142.265362,7814.174080
127.913709,-0.000000,12435.459826,612.876398
127.914019,6217.729913,5773.606348,-4136.915689
127.914329,-74.020594,6291.750507,153.219100
127.914638,-5477.523971,7402.059420,5286.058936
127.914948,-1110.308913,6217.729913,1762.019645
127.915257,2590.720797,7105.977043,-7890.783629
127.915567,5033.400406,12657.521608,-9806.022374
127.915877,-888.247130,12065.356855,-3217.601092
127.916186,-4441.235652,11399.171507,4903.011187
127.916496,1110.308913,12509.480420,1302.362347
127.916805,6735.874072,11251.130318,-7048.078582
127.917115,-4959.379811,7624.121203,1072.533697
127.917424,-5181.441594,6217.729913,14709.033562
127.917734,2516.700203,8364.327145,-2604.724693
127.918044,6291.750507,8512.368333,-16241.224558
127.918353,1184.329507,12361.439231,-3830.477490
127.918663,-6735.874072,12065.356855,6665.030833
127.918972,-0.000000,11695.253884,-1225.752797
127.919282,4219.173869,8586.388927,-4903.011187
127.919592,2886.803174,10288.862594,-1762.019645
127.919901,-4589.276840,5255.462188,3753.867940
127.920211,-296.082377,6957.935855,4979.620737
127.920520,-2368.659014,4885.359217,-3370.820191
127.920830,7105.977043,10140.821405,-8886.707777
127.921139,-888.247130,10955.047942,-6894.859482
127.921449,-4293.194464,12213.398043,3447.429741
127.921759,-3182.885551,15840.407159,3370.820191
127.922068,3330.926739,11177.109724,-5209.449386
127.922378,-0.000000,9696.697840,-2528.115143
127.922687,-5033.400406,6883.915261,5132.839837
127.922997,-0.000000,6143.709319,-1991.848295
127.923307,4663.297435,7624.121203,-11108.384721
127.923616,2590.720797,8586.388927,-1378.971896
127.923926,-5699.585753,9992.780217,5362.668486
127.924235,-2442.679609,13323.706956,2298.286494
127.924545,3775.050304,11769.274478,-1762.019645
127.924855,3330.926739,10214.842000,-3524.039291
127.925164,-3923.091493,10584.944971,-306.438199
127.925474,-3256.906145,7624.121203,2604.724693
127.925783,-518.144159,10955.047942,-4366.744339
127.926093,3701.029710,10732.986159,-11031.775171
127.926402,1554.432478,10658.965565,-6128.763984
127.926712,-4219.173869,7994.224174,6281.983084
127.927022,-1480.411884,11843.295072,3447.429741
127.927331,4219.173869,6439.791695,-3830.477490
127.927641,-888.247130,5551.544565,1225.752797
127.927950,-3034.844362,8734.430116,5209.449386
127.928260,-592.164754,6883.915261,-4136.915689
127.928570,1480.411884,7624.121203,-11108.384721
127.928879,2146.597232,7994.224174,-4903.011187
127.929189,-4589.276840,10955.047942,0.000000
127.929498,-0.000000,11695.253884,2757.943793
127.929808,-74.020594,10066.800811,1149.143247
127.930117,2738.761985,8808.450710,-4136.915689
127.930427,814.226536,6809.894666,-2451.505594
127.930737,-4737.318029,8882.471304,5975.544884
127.931046,-1554.432478,11473.192101,0.000000
127.931356,6587.832884,10658.965565,-10035.851024
127.931665,-2368.659014,16358.551318,-4903.011187
127.931975,-4145.153275,11029.068536,3064.381992
127.932285,1184.329507,11695.253884,-3294.210641
127.932594,-814.226536,9104.533087,-3907.087040
127.932904,2368.659014,10584.944971,1072.533697
127.933213,-3404.947333,4293.194464,1302.362347
127.933523,-0.000000,7624.121203,-842.705048
127.933832,222.061783,8364.327145,-1915.238745
127.934142,5181.441594,9326.594869,-6894.859482
127.934452,-444.123565,10436.903782,-919.314598
127.934761,-1184.329507,8734.430116,6665.030833
127.935071,-1998.556043,9622.677246,2298.286494
127.935380,4219.173869,9104.533087,-7048.078582
127.935690,-1036.288319,8512.368333,-2451.505594
127.936000,-3701.029710,6513.812290,7124.688131
127.936309,-740.205942,9400.615463,-1225.752797
127.936619,-148.041188,12805.562797,-12180.918418
127.936928,4219.173869,12953.603985,-5132.839837
127.937238,-3552.988522,12213.398043,1378.971896
127.937548,-2220.617826,12805.562797,1455.581446
127.937857,296.082377,12139.377449,536.266849
127.938167,3256.906145,9030.512492,-1225.752797
127.938476,-592.164754,5625.565159,1838.629195
127.938786,-1184.329507,7031.956449,1838.629195
127.939095,-4737.318029,8290.306550,-1378.971896
127.939405,4441.235652,9326.594869,-10189.070123
127.939715,2664.741391,10955.047942,-8503.660028
127.940024,-2812.782580,10584.944971,1991.848295
127.940334,-4811.338623,11843.295072,995.924147
127.940643,1776.494261,8808.450710,-3753.867940
127.940953,2072.576638,4515.256246,-1302.362347
127.941263,-1924.535449,6439.791695,4979.620737
127.941572,-3923.091493,5699.585753,3447.429741
127.941882,518.144159,6809.894666,-6205.373534
127.942191,5329.482782,10140.821405,-8197.221829
127.942501,-1998.556043,11843.295072,-5362.668486
127.942810,-1184.329507,14804.118840,0.000000
127.943120,-1036.288319,14063.912898,1455.581446
127.943430,6291.750507,8882.471304,-2987.772442
127.943739,-2516.700203,7105.977043,4366.744339
127.944049,-1406.391290,7105.977043,9806.022374
127.944358,-3256.906145,4959.379811,459.657299
127.944668,2220.617826,7105.977043,-9882.631924
127.944978,2294.638420,13101.645173,-6052.154434
127.945287,-2960.823768,9844.739029,-2451.505594
127.945597,-2220.617826,16284.530724,-1455.581446
127.945906,2590.720797,16136.489536,-3753.867940
127.946216,1924.535449,11547.212695,-1608.800546
127.946525,-1776.494261,7476.080014,4903.011187
127.946835,-2812.782580,3256.906145,5669.106685
127.947145,-740.205942,6439.791695,-2987.772442
127.947454,5773.606348,2738.761985,-6281.983084
127.947764,-0.000000,11103.089130,-4366.744339
127.948073,-2368.659014,8734.430116,2374.896044
127.948383,-962.267725,12583.501014,-306.438199
127.948693,1258.350101,10140.821405,-4903.011187
127.949002,1036.288319,6291.750507,-1149.143247
127.949312,-3552.988522,8216.285956,5132.839837
127.949621,-1036.288319,7254.018232,-766.095498
127.949931,2886.803174,7624.121203,-9806.022374
127.950241,6957.935855,9844.739029,-5592.497135
127.950550,-3404.947333,11473.192101,1378.971896
127.950860,-2146.597232,13101.645173,4136.915689
127.951169,2368.659014,9770.718434,-536.266849
127.951479,592.164754,11769.274478,-1762.019645
127.951788,-1850.514855,7772.162391,2451.505594
127.952098,-0.000000,9178.553681,919.314598
127.952408,-3034.844362,11547.212695,-6894.859482
127.952717,3182.885551,10584.944971,-7890.783629
127.953027,-1406.391290,10436.903782,-7890.783629
127.953336,-1110.308913,13101.645173,-3294.210641
127.953646,1184.329507,11399.171507,2068.457845
127.953956,-666.185348,7328.038826,383.047749
127.954265,888.247130,3923.091493,2221.676944
127.954575,-962.267725,2294.638420,4903.011187
127.954884,-592.164754,4663.297435,612.876398
127.955194,-666.185348,6735.874072,-5515.887586
127.955503,4663.297435,11251.130318,-5898.935335
127.955813,-1776.494261,13175.665768,-6894.859482
127.956123,-370.102971,12287.418637,-3447.429741
127.956432,-2294.638420,12731.542202,229.828649
127.956742,1924.535449,8068.244768,-919.314598
127.957051,-2072.576638,5921.647536,2757.943793
127.957361,-1258.350101,8142.265362,7354.516781
127.957671,-1554.432478,7920.203579,-1225.752797
127.957980,444.123565,9400.615463,-6511.811733
127.958290,3923.091493,12361.439231,-4060.306139
127.958599,-1850.514855,14508.036463,-5515.887586
127.958909,1702.473667,17320.819043,-4136.915689
127.959218,-3108.864956,12731.542202,-1072.533697
127.959528,518.144159,7624.121203,1915.238745
127.959838,1184.329507,4737.318029,2298.286494
127.960147,-814.226536,3330.926739,4596.572988
127.960457,-3182.885551,4589.276840,3140.991542
127.960766,-962.267725,6513.812290,-2221.676944
127.961076,2294.638420,11843.295072,-8733.488677
127.961386,-592.164754,13249.686362,-7354.516781
127.961695,2220.617826,12731.542202,-2681.334243
127.962005,-1480.411884,11917.315666,-2681.334243
127.962314,-222.061783,9252.574275,1378.971896
127.962624,-666.185348,5033.400406,5515.887586
127.962934,-1036.288319,3849.070898,4060.306139
127.963243,1554.432478,5403.503377,-1685.410096
127.963553,1332.370696,7772.162391,-4366.744339
127.963862,-1850.514855,8512.368333,-3753.867940
127.964172,-666.185348,14878.139434,-2374.896044
127.964481,1110.308913,14211.954086,-2528.115143
127.964791,740.205942,10658.965565,0.000000
127.965101,-4589.276840,12731.542202,4213.525239
127.965410,1036.288319,5995.668130,1225.752797
127.965720,-2738.761985,7402.059420,-4443.353888
127.966029,1998.556043,6069.688724,-3217.601092
127.966339,962.267725,10955.047942,-6052.154434
127.966649,2590.720797,12805.562797,-3907.087040
127.966958,-0.000000,13471.748144,919.314598
127.967268,-1406.391290,11103.089130,153.219100
127.967577,1776.494261,4293.194464,1608.800546
127.967887,-370.102971,5551.544565,3830.477490
127.968196,-1258.350101,5181.441594,1915.238745
127.968506,-1702.473667,5551.544565,-3907.087040
127.968816,2072.576638,6069.688724,-6818.249932
127.969125,-962.267725,12065.356855,-7277.907231
127.969435,296.082377,12213.398043,-3600.648841
127.969744,-1480.411884,13545.768739,-1225.752797
127.970054,-740.205942,10066.800811,-1762.019645
127.970364,-0.000000,6883.915261,2911.162892
127.970673,-3849.070898,6661.853478,6358.592633
127.970983,222.061783,9844.739029,-1072.533697
127.971292,1702.473667,5625.565159,-6052.154434
127.971602,2146.597232,9622.677246,-2604.724693
127.971911,222.061783,11177.109724,-3064.381992
127.972221,-1554.432478,13841.851115,-919.314598
127.972531,444.123565,14804.118840,-2834.553343
127.972840,666.185348,9400.615463,-1378.971896
127.973150,518.144159,5995.668130,-383.047749
127.973459,-1332.370696,3108.864956,1455.581446
127.973769,-3034.844362,5995.668130,-2834.553343
127.974079,3997.112087,6735.874072,-2911.162892
127.974388,1332.370696,9030.512492,-153.219100
127.974698,2516.700203,13249.686362,-3294.210641
127.975007,-1406.391290,13323.706956,-536.266849
127.975317,2368.659014,9770.718434,0.000000
127.975626,1628.453072,8438.347739,306.438199
127.975936,-2072.576638,6513.812290,2298.286494
127.976246,-222.061783,4515.256246,1455.581446
127.976555,-518.144159,8808.450710,-4519.963438
127.976865,1480.411884,9622.677246,-5132.839837
127.977174,814.226536,11843.295072,-3907.087040
127.977484,740.205942,15396.283594,-2374.896044
127.977794,-1776.494261,13767.830521,-1991.848295
127.978103,2738.761985,9178.553681,1455.581446
127.978413,-1406.391290,6957.935855,842.705048
127.978722,-0.000000,5403.503377,-76.609550
127.979032,-2368.659014,7402.059420,1838.629195
127.979342,222.061783,7920.203579,-2911.162892
127.979651,3997.112087,11103.089130,-6435.202183
127.979961,2368.659014,11177.109724,-4290.134789
127.980270,-5551.544565,12213.398043,-3677.258390
127.980580,-592.164754,14063.912898,-1455.581446
127.980889,4663.297435,7920.203579,-2221.676944
127.981199,-592.164754,5847.626942,1685.410096
127.981509,888.247130,6809.894666,2911.162892
127.981818,-5551.544565,1924.535449,612.876398
127.982128,1036.288319,10288.862594,-1455.581446
127.982437,3256.906145,11177.109724,-5898.935335
127.982747,740.205942,13471.748144,-6741.640382
127.983057,-2220.617826,14508.036463,612.876398
127.983366,-962.267725,12731.542202,842.705048
127.983676,370.102971,9252.574275,612.876398
127.983985,3404.947333,7105.977043,3524.039291
127.984295,-1924.535449,5995.668130,3064.381992
127.984604,-2886.803174,10807.006753,-3294.210641
127.984914,2664.741391,7402.059420,-3140.991542
127.985224,-1776.494261,11547.212695,-3064.381992
127.985533,-0.000000,15988.448347,-3830.477490
127.985843,-3108.864956,13323.706956,-3753.867940
127.986152,2960.823768,7698.141797,-1762.019645
127.986462,-3552.988522,6291.750507,3217.601092
127.986772,-148.041188,5773.606348,4519.963438
127.987081,-2812.782580,5699.585753,1455.581446
127.987391,2590.720797,7105.977043,-2451.505594
127.987700,2220.617826,9918.759623,-5209.449386
127.988010,1776.494261,11991.336260,-3370.820191
127.988320,-666.185348,13323.706956,0.000000
127.988629,-2442.679609,10955.047942,-536.266849
127.988939,2294.638420,7994.224174,-2987.772442
127.989248,962.267725,5995.668130,612.876398
127.989558,-1924.535449,6439.791695,2451.505594
127.989868,-4515.256246,5921.647536,-919.314598
127.990177,3849.070898,8364.327145,0.000000
127.990487,444.123565,9696.697840,-4443.353888
127.990796,1480.411884,12583.501014,-383.047749
127.991106,-2294.638420,13397.727550,-1149.143247
127.991416,3997.112087,11917.315666,-1532.190996
127.991725,296.082377,9178.553681,3983.696590
127.992035,-2146.597232,6587.832884,3983.696590
127.992344,-1776.494261,9178.553681,-1915.238745
127.992654,2368.659014,7476.080014,-8120.612279
127.992964,-74.020594,11621.233289,-4826.401637
127.993273,444.123565,10584.944971,-766.095498
127.993583,888.247130,12435.459826,-842.705048
127.993892,1184.329507,10288.862594,0.000000
127.994202,-814.226536,8808.450710,306.438199
127.994512,1184.329507,4219.173869,-842.705048
127.994821,-518.144159,4811.338623,76.609550
127.995131,-2960.823768,9548.656652,-919.314598
127.995440,2590.720797,9622.677246,-3983.696590
127.995750,4737.318029,12361.439231,-6741.640382
127.996059,-2220.617826,10955.047942,-2145.067394
127.996369,-1924.535449,12805.562797,2451.505594
127.996679,3108.864956,7550.100608,-2145.067394
127.996988,814.226536,8660.409521,-1991.848295
127.997298,-5181.441594,9844.739029,6894.859482
127.997607,-740.205942,5403.503377,1532.190996
127.997917,1184.329507,9548.656652,-6052.154434
127.998227,3627.009116,13471.748144,-3064.381992
127.998536,-2738.761985,10140.821405,0.000000
127.998846,-1406.391290,12065.356855,383.047749
127.999155,-888.247130,16062.468941,-2451.505594
127.999465,3330.926739,10066.800811,-3370.820191
127.999775,-2442.679609,7772.162391,919.314598
128.000084,-1036.288319,7550.100608,2604.724693
128.000394,-1184.329507,8808.450710,-3524.039291
128.000703,2664.741391,10436.903782,-4519.963438
128.001013,1628.453072,10510.924376,-919.314598
128.001323,2590.720797,9252.574275,-842.705048
128.001632,-2146.597232,12509.480420,-383.047749
128.001942,-1998.556043,8068.244768,1072.533697
128.002251,-0.000000,5921.647536,383.047749
128.002561,2368.659014,6439.791695,-1532.190996
128.002871,-74.020594,5921.647536,0.000000
128.003180,-2146.597232,10362.883188,-2298.286494
128.003490,2146.597232,10510.924376,-7431.126331
128.003799,-0.000000,11843.295072,-6818.249932
128.004109,-1036.288319,11177.109724,2987.772442
128.004419,814.226536,14063.912898,-1225.752797
128.004728,296.082377,11547.212695,-689.485948
128.005038,-0.000000,8142.265362,3447.429741
128.005347,-1776.494261,6883.915261,4826.401637
128.005657,-2368.659014,6365.771101,-2451.505594
128.005967,6587.832884,11251.130318,-10342.289223
128.006276,2146.597232,12879.583391,-7431.126331
128.006586,-2368.659014,11621.233289,-2451.505594
128.006895,-888.247130,10658.965565,1915.238745
128.007205,1850.514855,10510.924376,229.828649
128.007515,4145.153275,7772.162391,306.438199
128.007824,-2812.782580,2220.617826,5439.278036
128.008134,-2738.761985,4959.379811,5209.449386
128.008443,222.061783,8364.327145,-2298.286494
128.008753,3404.947333,9548.656652,-7584.345430
128.009063,1184.329507,13175.665768,-7124.688131
128.009372,296.082377,13397.727550,-3294.210641
128.009682,-1998.556043,15544.324782,-1302.362347
128.009991,1110.308913,11177.109724,-919.314598
128.010301,1184.329507,5329.482782,842.705048
128.010610,-1258.350101,4145.153275,7507.735880
128.010920,-2072.576638,5403.503377,7354.516781
128.011230,-1850.514855,9252.574275,-3830.477490
128.011539,5847.626942,10362.883188,-12180.918418
128.011849,-592.164754,11917.315666,-6281.983084
128.012158,-1924.535449,16580.613101,-1838.629195
128.012468,-1184.329507,17172.777854,-4213.525239
128.012778,4885.359217,7698.141797,-3217.601092
128.013087,-2294.638420,7476.080014,4136.915689
128.013397,-3182.885551,5995.668130,8963.317327
128.013706,-1702.473667,5107.421000,2451.505594
128.014016,2812.782580,6661.853478,-6741.640382
128.014326,5107.421000,10732.986159,-7737.564530
128.014635,-2516.700203,10140.821405,-3370.820191
128.014945,-814.226536,14359.995275,-1302.362347
128.015254,-74.020594,11917.315666,-5515.887586
128.015564,1332.370696,7179.997637,-1838.629195
128.015874,-1998.556043,2738.761985,10418.898773
128.016183,-3330.926739,4737.318029,6205.373534
128.016493,-740.205942,9030.512492,-4519.963438
128.016802,4219.173869,8364.327145,-5822.325785
128.017112,-148.041188,11621.233289,-2604.724693
128.017422,-1480.411884,15692.365970,229.828649
128.017731,-592.164754,14137.933492,-3140.991542
128.018041,1924.535449,7846.182985,-2911.162892
128.018350,148.041188,9622.677246,1762.019645
128.018660,-3997.112087,5921.647536,5439.278036
128.018970,-3330.926739,8290.306550,995.924147
128.019279,3627.009116,8586.388927,-6358.592633
128.019589,2812.782580,9178.553681,-8656.879127
128.019898,-592.164754,12139.377449,-995.924147
128.020208,-962.267725,8956.491898,3830.477490
128.020518,-1702.473667,13471.748144,-2374.896044
128.020827,3775.050304,7031.956449,-995.924147
128.021137,-592.164754,5329.482782,3907.087040
128.021446,-1036.288319,5847.626942,4366.744339
128.021756,592.164754,8734.430116,-4290.134789
128.022066,962.267725,9400.615463,-7048.078582
128.022375,1258.350101,10288.862594,-5669.106685
128.022685,-148.041188,12435.459826,-4290.134789
128.022994,-888.247130,14656.077652,-1455.581446
128.023304,518.144159,12213.398043,-612.876398
128.023614,-1258.350101,8734.430116,1302.362347
128.023923,-0.000000,4441.235652,5592.497135
128.024233,296.082377,5551.544565,3447.429741
128.024542,-2664.741391,8364.327145,-8810.098227
128.024852,1184.329507,8586.388927,-3830.477490
128.025161,-2368.659014,11917.315666,-4979.620737
128.025471,2664.741391,14063.912898,-4903.011187
128.025781,222.061783,16580.613101,-2834.553343
128.026090,2072.576638,10658.965565,-2757.943793
128.026400,-444.123565,8290.306550,2298.286494
128.026709,148.041188,2664.741391,6052.154434
128.027019,-4367.215058,3923.091493,3064.381992
128.027329,2220.617826,6661.853478,-2298.286494
128.027638,2960.823768,8808.450710,-8044.002729
128.027948,-1480.411884,8956.491898,-4213.525239
128.028257,888.247130,15396.283594,-919.314598
128.028567,-2368.659014,15544.324782,-5362.668486
128.028877,4663.297435,11695.253884,-4060.306139
128.029186,-2072.576638,5699.585753,3830.477490
128.029496,-1184.329507,5995.668130,5975.544884
128.029805,-1628.453072,7105.977043,612.876398
128.030115,3849.070898,6735.874072,-5898.935335
128.030425,-592.164754,8882.471304,-5439.278036
128.030734,2368.659014,12065.356855,-1762.019645
128.031044,-4071.132681,15248.242405,-2757.943793
128.031353,1184.329507,13989.892304,-3370.820191
128.031663,296.082377,12583.501014,2757.943793
128.031973,-1332.370696,7254.018232,3294.210641
128.032282,-1554.432478,8142.265362,3447.429741
128.032592,-2294.638420,5699.585753,-2757.943793
128.032901,1702.473667,8586.388927,-5439.278036
128.033211,2220.617826,10436.903782,-5209.449386
128.033521,1110.308913,11843.295072,-1225.752797
128.033830,-1776.494261,14434.015869,229.828649
128.034140,3034.844362,10510.924376,-2757.943793
128.034449,-1776.494261,8882.471304,2987.772442
128.034759,1406.391290,2664.741391,5132.839837
128.035069,-5329.482782,5329.482782,-1915.238745
128.035378,2590.720797,9474.636058,-7277.907231
128.035688,1110.308913,8956.491898,-6052.154434
128.035997,-0.000000,9178.553681,-2528.115143
128.036307,888.247130,17912.983796,-1149.143247
128.036617,444.123565,11325.150913,-4903.011187
128.036926,2886.803174,8586.388927,0.000000
128.037236,-1702.473667,4737.318029,6205.373534
128.037545,-2886.803174,4737.318029,4060.306139
128.037855,1406.391290,9844.739029,-2834.553343
128.038165,1480.411884,9400.615463,-4596.572988
128.038474,1110.308913,13101.645173,-5056.230287
128.038784,814.226536,11621.233289,-2757.943793
128.039093,-2664.741391,17912.983796,-4136.915689
128.039403,2368.659014,13767.830521,-6665.030833
128.039712,-1702.473667,7846.182985,-766.095498
128.040022,-3849.070898,3627.009116,6435.202183
128.040332,-4367.215058,4515.256246,2987.772442
128.040641,592.164754,7772.162391,-5898.935335
128.040951,2072.576638,5403.503377,-3830.477490
128.041260,222.061783,9844.739029,2145.067394
128.041570,-962.267725,13767.830521,1915.238745
128.041880,962.267725,11843.295072,-5592.497135
128.042189,4071.132681,10362.883188,-3983.696590
128.042499,-5625.565159,6587.832884,3830.477490
128.042808,1332.370696,2812.782580,5822.325785
128.043118,-4441.235652,7772.162391,-3677.258390
128.043428,2886.803174,9918.759623,-7431.126331
128.043737,296.082377,9548.656652,1072.533697
128.044047,-2072.576638,13323.706956,842.705048
128.044356,2146.597232,14952.160028,-6971.469032
128.044666,296.082377,14656.077652,-4366.744339
128.044976,1702.473667,11547.212695,689.485948
128.045285,-2590.720797,4737.318029,3677.258390
128.045595,-1036.288319,7328.038826,383.047749
128.045904,-1258.350101,10807.006753,-2145.067394
128.046214,1184.329507,7328.038826,-4136.915689
128.046524,-888.247130,10955.047942,-1225.752797
128.046833,-1406.391290,10510.924376,1225.752797
128.047143,1850.514855,13249.686362,-4903.011187
128.047452,3404.947333,8956.491898,-5515.887586
128.047762,-2590.720797,10584.944971,4519.963438
128.048072,-888.247130,5699.585753,6818.249932
128.048381,-0.000000,4589.276840,-2451.505594
128.048691,4811.338623,7994.224174,-7048.078582
128.049000,-2664.741391,8068.244768,-1225.752797
128.049310,-2442.679609,11991.336260,383.047749
128.049620,2516.700203,15026.180623,-7048.078582
128.049929,-962.267725,14730.098246,-7584.345430
128.050239,1332.370696,14508.036463,3370.820191
128.050548,518.144159,5107.421000,5362.668486
128.050858,444.123565,6365.771101,1838.629195
128.051168,296.082377,9252.574275,-2757.943793
128.051477,-0.000000,3923.091493,-995.924147
128.051787,-74.020594,9622.677246,1532.190996
128.052096,-1258.350101,11103.089130,-1838.629195
128.052406,1332.370696,14137.933492,-8273.831378
128.052716,518.144159,15766.386565,-5056.230287
128.053025,-0.000000,9400.615463,1225.752797
128.053335,-2812.782580,5181.441594,1915.238745
128.053644,-1036.288319,5181.441594,-612.876398
128.053954,1258.350101,7031.956449,-4060.306139
128.054263,-370.102971,8216.285956,-1762.019645
128.054573,-814.226536,10510.924376,689.485948
128.054883,3404.947333,7698.141797,-995.924147
128.055192,1776.494261,10510.924376,-4749.792088
128.055502,-0.000000,8216.285956,-1532.190996
128.055811,-5477.523971,5107.421000,2604.724693
128.056121,740.205942,6957.935855,1072.533697
128.056431,-1406.391290,9104.533087,-5132.839837
128.056740,-296.082377,9474.636058,-4443.353888
128.057050,-3108.864956,10881.027347,612.876398
128.057359,1258.350101,12287.418637,-3064.381992
128.057669,1184.329507,12435.459826,-6971.469032
128.057979,370.102971,12287.418637,0.000000
128.058288,-1332.370696,11621.233289,6971.469032
128.058598,444.123565,9400.615463,2681.334243
128.058907,370.102971,8882.471304,-1685.410096
128.059217,-0.000000,8586.388927,-6435.202183
128.059527,-0.000000,5847.626942,-3983.696590
128.059836,-3182.885551,10066.800811,-536.266849
128.060146,-1924.535449,12435.459826,-2221.676944
128.060455,888.247130,11917.315666,-5132.839837
128.060765,2368.659014,9770.718434,-1149.143247
128.061075,-3256.906145,8068.244768,5515.887586
128.061384,-0.000000,6365.771101,2911.162892
128.061694,2146.597232,6439.791695,-6511.811733
128.062003,-3256.906145,8068.244768,-5898.935335
128.062313,1406.391290,7179.997637,-842.705048
128.062623,3627.009116,10955.047942,-2757.943793
128.062932,666.185348,14063.912898,-6052.154434
128.063242,222.061783,11325.150913,1608.800546
128.063551,-1776.494261,9992.780217,3600.648841
128.063861,370.102971,8142.265362,1915.238745
128.064171,4219.173869,3182.885551,-1532.190996
128.064480,-4145.153275,7624.121203,-4519.963438
128.064790,222.061783,10955.047942,-2987.772442
128.065099,-1850.514855,10658.965565,-1378.971896
128.065409,888.247130,13397.727550,-3600.648841
128.065719,740.205942,15100.201217,-5669.106685
128.066028,962.267725,10362.883188,459.657299
128.066338,1258.350101,9770.718434,4290.134789
128.066647,-370.102971,4515.256246,2298.286494
128.066957,-296.082377,7994.224174,-1762.019645
128.067266,-1776.494261,3108.864956,-1608.800546
128.067576,-0.000000,7105.977043,-2451.505594
128.067886,592.164754,13101.645173,-3753.867940
128.068195,1332.370696,9252.574275,-3677.258390
128.068505,-1628.453072,11843.295072,-1455.581446
128.068814,-1406.391290,9326.594869,-689.485948
128.069124,1110.308913,8512.368333,689.485948
128.069434,1480.411884,4885.359217,1225.752797
128.069743,-2664.741391,8956.491898,-919.314598
128.070053,592.164754,10066.800811,-2604.724693
128.070362,-666.185348,10955.047942,-2374.896044
128.070672,3108.864956,12213.398043,-3753.867940
128.070982,-1554.432478,14582.057057,-3830.477490
128.071291,-592.164754,12879.583391,153.219100
128.071601,-518.144159,7846.182985,4826.401637
128.071910,740.205942,10362.883188,689.485948
128.072220,-444.123565,6143.709319,-1455.581446
128.072530,-444.123565,7031.956449,-3064.381992
128.072839,-1110.308913,8956.491898,-2604.724693
128.073149,1702.473667,11399.171507,-4136.915689
128.073458,1850.514855,6439.791695,-3447.429741
128.073768,-1924.535449,12731.542202,-1455.581446
128.074078,1850.514855,12361.439231,995.924147
128.074387,444.123565,3256.906145,4519.963438
128.074697,1258.350101,6217.729913,3677.258390
128.075006,-2590.720797,5551.544565,-1838.629195
128.075316,-1036.288319,9030.512492,-6281.983084
128.075626,-370.102971,11473.192101,-4060.306139
128.075935,4071.132681,12435.459826,-4443.353888
128.076245,-148.041188,14434.015869,-5056.230287
128.076554,222.061783,13989.892304,-306.438199
128.076864,666.185348,7402.059420,4596.572988
128.077174,592.164754,6957.935855,4213.525239
128.077483,1702.473667,6661.853478,3600.648841
128.077793,-6513.812290,7476.080014,-383.047749
128.078102,1776.494261,9548.656652,-3524.039291
128.078412,1406.391290,11251.130318,-4979.620737
128.078722,1850.514855,13767.830521,-7660.954980
128.079031,-3775.050304,15248.242405,-3753.867940
128.079341,-296.082377,12953.603985,-383.047749
128.079650,888.247130,7476.080014,2068.457845
128.079960,-0.000000,7402.059420,3753.867940
128.080270,148.041188,6661.853478,1302.362347
128.080579,-2590.720797,4441.235652,-1915.238745
128.080889,148.041188,7698.141797,-2374.896044
128.081198,2960.823768,8068.244768,-3830.477490
128.081508,2590.720797,9326.594869,-4136.915689
128.081817,-2960.823768,14952.160028,-919.314598
128.082127,444.123565,9844.739029,2987.772442
128.082437,2072.576638,6365.771101,919.314598
128.082746,148.041188,9030.512492,-383.047749
128.083056,-2368.659014,5847.626942,-3294.210641
128.083365,-518.144159,3404.947333,-2298.286494
128.083675,-666.185348,14804.118840,-3983.696590
128.083985,3330.926739,12509.480420,-4826.401637
128.084294,-444.123565,14508.036463,-3294.210641
128.084604,1554.432478,16728.654289,-1685.410096
128.084913,1406.391290,5995.668130,2604.724693
128.085223,1480.411884,3775.050304,4673.182538
128.085532,-3552.988522,5033.400406,3294.210641
128.085842,-1184.329507,6587.832884,-919.314598
128.086151,3552.988522,9178.553681,-4903.011187
128.086461,-370.102971,10214.842000,-4366.744339
128.086770,1332.370696,12879.583391,-2911.162892
128.087080,-1258.350101,12805.562797,-1149.143247
128.087389,2220.617826,11769.274478,-383.047749
128.087699,-1406.391290,5181.441594,2757.943793
128.088008,-0.000000,5699.585753,2374.896044
128.088318,-3775.050304,2368.659014,1378.971896
128.088627,666.185348,7328.038826,1838.629195
128.088937,296.082377,12657.521608,-3677.258390
128.089246,1332.370696,12805.562797,-5515.887586
128.089556,-296.082377,11991.336260,-3677.258390
128.089865,-740.205942,13249.686362,-2145.067394
128.090175,-2368.659014,9474.636058,842.705048
128.090484,1184.329507,8068.244768,2451.505594
128.090794,1110.308913,4959.379811,842.705048
128.091103,-1924.535449,3182.885551,766.095498
128.091413,-2146.597232,6735.874072,612.876398
128.091722,740.205942,11177.109724,-2681.334243
128.092032,1702.473667,13249.686362,-5975.544884
128.092341,666.185348,16136.489536,-5745.716235
128.092651,2738.761985,15322.262999,-1838.629195
128.092960,-814.226536,10584.944971,995.924147
128.093270,-0.000000,6069.688724,5056.230287
128.093579,-3404.947333,3256.906145,2374.896044
128.093889,-888.247130,5995.668130,-3447.429741
128.094198,-2368.659014,6439.791695,-2068.457845
128.094508,2294.638420,11843.295072,-5669.106685
128.094817,-296.082377,12361.439231,-6281.983084
128.095127,-1184.329507,14952.160028,-2451.505594
128.095436,-0.000000,12065.356855,2681.334243
128.095746,1628.453072,4885.359217,1149.143247
128.096055,962.267725,6069.688724,1302.362347
128.096365,-3701.029710,2146.597232,3524.039291
128.096674,-888.247130,5625.565159,76.609550
128.096984,592.164754,11843.295072,-3370.820191
128.097293,1110.308913,15618.345376,-4443.353888
128.097603,-518.144159,11991.336260,-3983.696590
128.097912,222.061783,16654.633695,-2374.896044
128.098222,666.185348,11547.212695,-459.657299
128.098531,-0.000000,7031.956449,2374.896044
128.098841,-2960.823768,5773.606348,3524.039291
128.099150,-3108.864956,7031.956449,-306.438199
128.099460,962.267725,7920.203579,-3983.696590
128.099769,3404.947333,10955.047942,-5209.449386
128.100079,-0.000000,15618.345376,-3907.087040
128.100388,-1258.350101,12805.562797,-1991.848295
128.100698,-0.000000,12139.377449,0.000000
128.101007,1184.329507,5921.647536,2451.505594
128.101317,1184.329507,4589.276840,2451.505594
128.101626,-5773.606348,7994.224174,1991.848295
128.101936,1036.288319,6661.853478,-1225.752797
128.102245,-888.247130,7994.224174,-4443.353888
128.102555,3034.844362,13323.706956,-6818.249932
128.102864,-666.185348,13101.645173,-3907.087040
128.103174,1924.535449,14434.015869,0.000000
128.103483,-0.000000,13027.624579,76.609550
128.103793,-0.000000,5625.565159,2757.943793
128.104102,-2738.761985,6439.791695,5056.230287
128.104412,-4071.132681,4885.359217,2604.724693
128.104721,3701.029710,6365.771101,-5132.839837
128.105031,-1406.391290,10881.027347,-3600.648841
128.105340,444.123565,16210.510130,-1302.362347
128.105650,-1628.453072,16506.592507,-6281.983084
128.105959,1406.391290,16580.613101,-6971.469032
128.106269,-222.061783,13249.686362,0.000000
128.106578,1332.370696,5477.523971,2757.943793
128.106888,-3256.906145,5329.482782,1302.362347
128.107197,3404.947333,4367.215058,995.924147
128.107507,-1924.535449,6809.894666,-536.266849
128.107816,2812.782580,8512.368333,1991.848295
128.108126,-296.082377,11029.068536,-1072.533697
128.108435,1776.494261,11103.089130,-5515.887586
128.108745,-148.041188,10510.924376,-5515.887586
128.109054,2664.741391,6439.791695,-2987.772442
128.109364,-2368.659014,4737.318029,-3140.991542
128.109673,-4145.153275,6883.915261,1685.410096
128.109983,-444.123565,5921.647536,2451.505594
128.110292,2812.782580,8438.347739,-1762.019645
128.110602,1480.411884,13915.871710,-1838.629195
128.110911,-5625.565159,11769.274478,2221.676944
128.111221,2294.638420,12879.583391,-5975.544884
128.111530,-740.205942,14137.933492,-4979.620737
128.111840,1480.411884,8512.368333,1455.581446
128.112149,-3256.906145,8142.265362,2604.724693
128.112459,444.123565,6883.915261,-3907.087040
128.112768,740.205942,10066.800811,-1608.800546
128.113078,1036.288319,6735.874072,1149.143247
128.113387,2812.782580,9770.718434,-3447.429741
128.113697,-1036.288319,13323.706956,-2911.162892
128.114006,1554.432478,12731.542202,919.314598
128.114316,2664.741391,8364.327145,-1302.362347
128.114625,3701.029710,5625.565159,383.047749
128.114935,-5181.441594,7994.224174,3370.820191
128.115244,518.144159,6217.729913,0.000000
128.115554,962.267725,7772.162391,-5286.058936
128.115863,2886.803174,9030.512492,-7660.954980
128.116173,-3552.988522,9844.739029,-2451.505594
128.116482,740.205942,12065.356855,-1302.362347
128.116792,-370.102971,15914.427753,-1072.533697
128.117101,2072.576638,10436.903782,1149.143247
128.117411,-1332.370696,7105.977043,536.266849
128.117720,-3478.967927,4441.235652,0.000000
128.118030,-2072.576638,7402.059420,-2528.115143
128.118339,-0.000000,5847.626942,-3064.381992
128.118649,2220.617826,8512.368333,-2374.896044
128.118958,-4663.297435,14952.160028,-2911.162892
128.119268,3404.947333,14508.036463,-153.219100
128.119577,1776.494261,9474.636058,-2068.457845
128.119887,3923.091493,7254.018232,306.438199
128.120196,-3108.864956,5403.503377,3064.381992
128.120506,-1110.308913,7846.182985,0.000000
128.120815,1332.370696,5033.400406,-4443.353888
128.121125,6069.688724,6661.853478,-2757.943793
128.121434,-2146.597232,13027.624579,-2528.115143
128.121744,-1406.391290,12731.542202,-2145.067394
128.122053,-0.000000,12953.603985,-459.657299
128.122363,1702.473667,9400.615463,-2451.505594
128.122672,2886.803174,8734.430116,-3064.381992
128.122982,-7031.956449,9992.780217,-2757.943793
128.123291,1110.308913,7402.059420,1149.143247
128.123601,-1406.391290,6809.894666,-1608.800546
128.123910,4515.256246,10066.800811,-2911.162892
128.124220,-2738.761985,9844.739029,-229.828649
128.124529,3108.864956,10362.883188,-3294.210641
128.124839,-2960.823768,12953.603985,0.000000
128.125148,1776.494261,8660.409521,842.705048
128.125458,-3330.926739,6069.688724,-766.095498
128.125767,-2368.659014,10436.903782,-1838.629195
128.126077,-888.247130,10510.924376,-3140.991542
128.126386,-0.000000,6957.935855,-2911.162892
128.126696,3330.926739,9992.780217,-4519.963438
128.127005,-1850.514855,11991.336260,-766.095498
128.127315,148.041188,13175.665768,995.924147
128.127624,-1480.411884,9326.594869,1302.362347
128.127934,4589.276840,8882.471304,-153.219100
128.128243,-2886.803174,7402.059420,459.657299
128.128553,2590.720797,6957.935855,-1915.238745
128.128862,-4145.153275,10140.821405,-4519.963438
128.129172,4441.235652,7698.141797,-4903.011187
128.129481,-1554.432478,11917.315666,-4443.353888
128.129791,-2220.617826,11251.130318,1455.581446
128.130100,-148.041188,12731.542202,2068.457845
128.130410,1258.350101,8956.491898,-2451.505594
128.130719,-1036.288319,9548.656652,-3140.991542
128.131029,-3256.906145,7402.059420,3140.991542
128.131338,2368.659014,8068.244768,-2834.553343
128.131648,-1924.535449,13619.789333,-8350.440928
128.131957,4589.276840,10436.903782,-612.876398
128.132267,-6957.935855,13915.871710,0.000000
128.132576,-296.082377,11991.336260,-1072.533697
128.132886,3108.864956,10732.986159,-2451.505594
128.133195,3701.029710,6735.874072,-2298.286494
128.133505,-3182.885551,6365.771101,76.609550
128.133814,-2590.720797,7402.059420,1685.410096
128.134124,-2812.782580,8142.265362,-2911.162892
128.134433,7031.956449,7254.018232,-5515.887586
128.134743,-222.061783,9770.718434,-3907.087040
128.135052,-4515.256246,11843.295072,1378.971896
128.135362,1702.473667,13249.686362,1685.410096
128.135671,3923.091493,8882.471304,-4366.744339
128.135981,1258.350101,5181.441594,-1225.752797
128.136290,-5181.441594,9770.718434,4290.134789
128.136600,-1480.411884,7846.182985,-229.828649
128.136909,1332.370696,9696.697840,-5056.230287
128.137219,4663.297435,11103.089130,-4213.525239
128.137528,-5773.606348,10066.800811,-3140.991542
128.137838,-1332.370696,10288.862594,1072.533697
128.138147,1628.453072,9474.636058,0.000000
128.138457,2442.679609,8660.409521,-536.266849
128.138766,-1554.432478,10584.944971,3064.381992
128.139076,-4071.132681,5699.585753,1378.971896
128.139385,-1110.308913,10732.986159,-6894.859482
128.139695,5255.462188,8068.244768,-7660.954980
128.140004,-148.041188,8142.265362,-2298.286494
128.140314,-3256.906145,12953.603985,-1072.533697
128.140623,814.226536,12139.377449,153.219100
128.140933,2590.720797,9770.718434,842.705048
128.141242,4885.359217,7772.162391,3217.601092
128.141552,-5255.462188,5699.585753,3830.477490
128.141861,-1480.411884,6661.853478,1225.752797
128.142171,-1184.329507,9400.615463,-4290.134789
128.142480,6439.791695,10140.821405,-10648.727422
128.142790,-2960.823768,12213.398043,-6358.592633
128.143099,-888.247130,15914.427753,1685.410096
128.143409,-1110.308913,12509.480420,-383.047749
128.143718,3701.029710,3849.070898,-229.828649
128.144028,-1406.391290,6957.935855,5592.497135
128.144337,-6217.729913,4663.297435,8350.440928
128.144647,1184.329507,8512.368333,-2451.505594
128.144956,2294.638420,9178.553681,-8350.440928
128.145266,1554.432478,11029.068536,-6665.030833
128.145575,-3997.112087,15618.345376,0.000000
128.145885,-2664.741391,16654.633695,-3907.087040
128.146194,-296.082377,11917.315666,-3830.477490
128.146504,3330.926739,9770.718434,1072.533697
128.146813,-4145.153275,7105.977043,3217.601092
128.147123,1850.514855,4145.153275,1608.800546
128.147432,1702.473667,10214.842000,-3753.867940
128.147742,3256.906145,7105.977043,-4443.353888
128.148051,-0.000000,11177.109724,229.828649
128.148361,-2368.659014,11843.295072,2221.676944
128.148670,2294.638420,11473.192101,-3600.648841
128.148980,2072.576638,8068.244768,-1072.533697
128.149289,-222.061783,7476.080014,-383.047749
128.149599,-5847.626942,6735.874072,0.000000
128.149908,2368.659014,7624.121203,-4060.306139
128.150218,-962.267725,10510.924376,-6665.030833
128.150527,3997.112087,11325.150913,-3294.210641
128.150837,-2368.659014,12287.418637,-306.438199
128.151146,740.205942,10214.842000,229.828649
128.151456,-4737.318029,12805.562797,1838.629195
128.151765,3256.906145,8068.244768,1455.581446
128.152075,-2368.659014,4293.194464,-1149.143247
128.152384,-2590.720797,10584.944971,-2757.943793
128.152694,-0.000000,9474.636058,-7201.297681
128.153003,2368.659014,5995.668130,-7507.735880
128.153313,2146.597232,9252.574275,-459.657299
128.153622,-2294.638420,13619.789333,766.095498
128.153932,2738.761985,10955.047942,459.657299
128.154241,-1924.535449,7550.100608,3600.648841
128.154551,2294.638420,5033.400406,3600.648841
128.154860,-1998.556043,4663.297435,-1072.533697
128.155170,-222.061783,7698.141797,-3753.867940
128.155479,-3923.091493,13471.748144,-5592.497135
128.155789,6439.791695,10955.047942,-14479.204912
128.156098,-2738.761985,15692.365970,-5592.497135
128.156408,-1110.308913,14656.077652,2221.676944
128.156717,-1258.350101,11621.233289,3140.991542
128.157027,4737.318029,6291.750507,76.609550
128.157336,-2220.617826,5107.421000,3830.477490
128.157646,-4959.379811,4071.132681,4519.963438
128.157955,-0.000000,7105.977043,-2757.943793
128.158265,1480.411884,10436.903782,-7737.564530
128.158574,888.247130,13767.830521,-11338.213370
128.158884,-6291.750507,14285.974681,-3600.648841
128.159193,1924.535449,12361.439231,-2528.115143
128.159503,3256.906145,10732.986159,-2451.505594
128.159812,2294.638420,6439.791695,995.924147
128.160122,-2516.700203,3478.967927,7277.907231
128.160431,-1110.308913,4589.276840,6358.592633
128.160741,-1332.370696,9548.656652,-1685.410096
128.161050,5181.441594,8660.409521,-6971.469032
128.161360,296.082377,10584.944971,-7584.345430
128.161669,-3108.864956,14508.036463,-3447.429741
128.161979,-74.020594,13693.809927,-1072.533697
128.162288,1332.370696,10066.800811,-2604.724693
128.162598,4515.256246,7476.080014,-2145.067394
128.162907,-6217.729913,7772.162391,5745.716235
128.163217,-370.102971,4219.173869,5745.716235
128.163526,-2368.659014,6809.894666,-1378.971896
128.163836,6143.709319,11103.089130,-8044.002729
128.164145,-1184.329507,9178.553681,-5822.325785
128.164455,-2516.700203,12731.542202,-842.705048
128.164764,-2442.679609,12879.583391,-689.485948
128.165074,7031.956449,10510.924376,-2604.724693
128.165383,-1332.370696,11251.130318,229.828649
128.165693,-2664.741391,6735.874072,3524.039291
128.166002,-1480.411884,2886.803174,689.485948
128.166312,962.267725,8068.244768,-4903.011187
128.166621,1998.556043,8438.347739,-6435.202183
128.166931,-4219.173869,12879.583391,-2528.115143
128.167240,-1776.494261,12361.439231,689.485948
128.167550,592.164754,11547.212695,0.000000
128.167859,6809.894666,9474.636058,76.609550
128.168169,-4885.359217,6883.915261,2145.067394
128.168478,-1628.453072,5551.544565,3447.429741
128.168788,296.082377,8660.409521,-1991.848295
128.169097,3330.926739,8142.265362,-6511.811733
128.169407,888.247130,12509.480420,-4366.744339
128.169716,-4441.235652,12435.459826,0.000000
128.170026,1628.453072,15322.262999,-229.828649
128.170335,2294.638420,9030.512492,-1915.238745
128.170645,-148.041188,9030.512492,-1225.752797
128.170954,-7105.977043,5477.523971,4596.572988
128.171264,2664.741391,6069.688724,229.828649
128.171573,296.082377,8956.491898,-6665.030833
128.171883,5551.544565,12657.521608,-5439.278036
128.172192,-6143.709319,9844.739029,919.314598
128.172502,1776.494261,12879.583391,536.266849
128.172811,1406.391290,16284.530724,-76.609550
128.173121,5699.585753,8438.347739,-1378.971896
128.173430,-3849.070898,7476.080014,919.314598
128.173740,-4219.173869,5477.523971,3677.258390
128.174049,2886.803174,6735.874072,-3294.210641
128.174359,1406.391290,4367.215058,-3524.039291
128.174668,592.164754,10066.800811,-2757.943793
128.174978,-4589.276840,12509.480420,1838.629195
128.175287,1184.329507,14656.077652,-153.219100
128.175597,3923.091493,11695.253884,-2834.553343
128.175906,2368.659014,5477.523971,-459.657299
128.176216,-7772.162391,7624.121203,1455.581446
128.176525,-518.144159,6883.915261,995.924147
128.176835,2294.638420,5255.462188,-6818.249932
128.177144,2442.679609,8660.409521,-4290.134789
128.177454,-4737.318029,12953.603985,995.924147
128.177763,-296.082377,9400.615463,3294.210641
128.178073,2368.659014,13101.645173,-2298.286494
128.178382,3997.112087,9474.636058,-2068.457845
128.178692,-2294.638420,10732.986159,1838.629195
128.179001,-3775.050304,5551.544565,-689.485948
128.179311,2590.720797,8586.388927,-4673.182538
128.179620,-0.000000,11177.109724,-6588.421283
128.179930,3256.906145,7846.182985,-3447.429741
128.180239,-4145.153275,11177.109724,-459.657299
128.180549,-1406.391290,9844.739029,842.705048
128.180858,2738.761985,12509.480420,-2374.896044
128.181168,5921.647536,7105.977043,-995.924147
128.181477,-4663.297435,6143.709319,4673.182538
128.181787,-2294.638420,6291.750507,3677.258390
128.182096,592.164754,9548.656652,-4136.915689
128.182406,3627.009116,6365.771101,-6741.640382
128.182715,-2220.617826,12139.377449,-4443.353888
128.183025,-3034.844362,10807.006753,-3447.429741
128.183334,3404.947333,9474.636058,-1532.190996
128.183644,1924.535449,11473.192101,-3447.429741
128.183953,-0.000000,8660.409521,153.219100
128.184263,-5551.544565,4441.235652,5822.325785
128.184572,1628.453072,10214.842000,1762.019645
128.184882,1258.350101,8364.327145,-5669.106685
128.185191,2738.761985,8364.327145,-2757.943793
128.185501,-5181.441594,10881.027347,-1915.238745
128.185810,-0.000000,13175.665768,-4979.620737
128.186120,2886.803174,12065.356855,-4979.620737
128.186429,2368.659014,9178.553681,-1915.238745
128.186739,-2664.741391,8734.430116,2528.115143
128.187048,-3108.864956,8142.265362,4366.744339
128.187357,592.164754,7920.203579,-1532.190996
128.187667,5181.441594,7105.977043,-4673.182538
128.187976,814.226536,8956.491898,-1915.238745
128.188286,-5921.647536,8512.368333,-383.047749
128.188595,518.144159,14434.015869,-2604.724693
128.188905,4515.256246,12879.583391,-3217.601092
128.189214,4811.338623,9918.759623,-1915.238745
128.189523,-6365.771101,8364.327145,2604.724693
128.189833,444.123565,7402.059420,3370.820191
128.190142,-592.164754,7031.956449,-3753.867940
128.190452,3478.967927,8438.347739,-6435.202183
128.190761,-2886.803174,9548.656652,-2681.334243
128.191070,-2960.823768,10436.903782,1532.190996
128.191380,1036.288319,10807.006753,229.828649
128.191689,3775.050304,10288.862594,-2221.676944
128.191999,-0.000000,10140.821405,0.000000
128.192308,-4219.173869,8512.368333,2987.772442
128.192618,-444.123565,10214.842000,-2604.724693
128.192927,1998.556043,7105.977043,-5898.935335
128.193236,2368.659014,9992.780217,-4903.011187
128.193546,-5995.668130,10288.862594,0.000000
128.193855,2442.679609,11843.295072,842.705048
128.194165,962.267725,10955.047942,-842.705048
128.194474,4663.297435,9104.533087,766.095498
128.194783,-2812.782580,8438.347739,2068.457845
128.195093,-1406.391290,4663.297435,919.314598
128.195402,-962.267725,10288.862594,-2911.162892
128.195712,814.226536,4811.338623,-5515.887586
128.196021,3404.947333,10658.965565,-4903.011187
128.196331,-4441.235652,10214.842000,-1685.410096
128.196640,444.123565,11769.274478,2221.676944
128.196949,-0.000000,9178.553681,2298.286494
128.197259,2072.576638,11695.253884,-2911.162892
128.197568,-4737.318029,7328.038826,1378.971896
128.197878,-222.061783,8068.244768,2145.067394
128.198187,-1628.453072,8586.388927,-5669.106685
128.198496,5329.482782,10658.965565,-5745.716235
128.198806,-1554.432478,12139.377449,229.828649
128.199115,-2442.679609,12287.418637,459.657299
128.199425,2294.638420,14878.139434,-1608.800546
128.199734,4811.338623,8808.450710,-536.266849
128.200044,-962.267725,6661.853478,-1838.629195
128.200353,-3775.050304,8586.388927,1225.752797
128.200662,666.185348,9474.636058,-3370.820191
128.200972,1480.411884,6661.853478,-7507.735880
128.201281,3256.906145,12139.377449,-3677.258390
128.201591,-4885.359217,8882.471304,3677.258390
128.201900,4071.132681,13397.727550,995.924147
128.202209,1776.494261,9474.636058,-1455.581446
128.202519,5921.647536,7254.018232,0.000000
128.202828,-7550.100608,5551.544565,7967.393179
128.203138,-1554.432478,6661.853478,1762.019645
128.203447,296.082377,7328.038826,-6894.859482
128.203757,5625.565159,10214.842000,-9116.536426
128.204066,-2886.803174,10807.006753,-2145.067394
128.204375,-4589.276840,7698.141797,2145.067394
128.204685,2368.659014,12805.562797,-1991.848295
128.204994,4515.256246,10807.006753,-1915.238745
128.205304,444.123565,7550.100608,2911.162892
128.205613,-7402.059420,5255.462188,5286.058936
128.205922,1628.453072,11621.233289,-2451.505594
128.206232,3404.947333,8586.388927,-8503.660028
128.206541,4663.297435,10807.006753,-5822.325785
128.206851,-3997.112087,9696.697840,-536.266849
128.207160,2146.597232,14656.077652,2757.943793
128.207470,888.247130,12657.521608,0.000000
128.207779,2220.617826,4737.318029,2374.896044
128.208088,-1184.329507,7031.956449,3294.210641
128.208398,-1554.432478,7328.038826,2221.676944
128.208707,-740.205942,9770.718434,-3600.648841
128.209017,3034.844362,6217.729913,-8120.612279
128.209326,-0.000000,11621.233289,-6281.983084
128.209635,-3552.988522,10510.924376,-383.047749
128.209945,148.041188,12583.501014,0.000000
128.210254,2368.659014,10510.924376,306.438199
128.210564,962.267725,7846.182985,2757.943793
128.210873,-5329.482782,5699.585753,6205.373534
128.211183,-148.041188,7476.080014,1072.533697
128.211492,888.247130,9030.512492,-9576.193725
128.211801,3256.906145,10362.883188,-8120.612279
128.212111,-3256.906145,12657.521608,-4903.011187
128.212420,-3923.091493,14582.057057,-3064.381992
128.212730,3552.988522,14804.118840,-1072.533697
128.213039,3108.864956,9252.574275,-153.219100
128.213348,-888.247130,6587.832884,2987.772442
128.213658,-2220.617826,4145.153275,7048.078582
128.213967,1702.473667,6809.894666,153.219100
128.214277,-74.020594,5403.503377,-9193.145976
128.214586,6957.935855,10436.903782,-4979.620737
128.214896,-3330.926739,8956.491898,-1225.752797
128.215205,-666.185348,13915.871710,-1072.533697
128.215514,2072.576638,10066.800811,-1149.143247
128.215824,1628.453072,9844.739029,-2068.457845
128.216133,-4515.256246,6217.729913,2221.676944
128.216443,-1036.288319,8142.265362,2911.162892
128.216752,-0.000000,8586.388927,-2987.772442
128.217061,2220.617826,7031.956449,-6818.249932
128.217371,-1184.329507,11917.315666,-4826.401637
128.217680,-1998.556043,12805.562797,-766.095498
128.217990,1850.514855,15248.242405,536.266849
128.218299,3034.844362,9030.512492,1608.800546
128.218609,-370.102971,9326.594869,3830.477490
128.218918,-6069.688724,8290.306550,3370.820191
128.219227,518.144159,8438.347739,-2145.067394
128.219537,1702.473667,7105.977043,-5822.325785
128.219846,3108.864956,10807.006753,-6128.763984
128.220156,-4219.173869,13915.871710,-4366.744339
128.220465,-962.267725,11769.274478,-229.828649
128.220774,888.247130,11695.253884,1762.019645
128.221084,3849.070898,5625.565159,2604.724693
128.221393,-2516.700203,6883.915261,3677.258390
128.221703,-3552.988522,5033.400406,5669.106685
128.222012,1850.514855,6217.729913,-1532.190996
128.222322,3182.885551,5625.565159,-7890.783629
128.222631,-0.000000,13323.706956,-6588.421283
128.222940,-5181.441594,13027.624579,0.000000
128.223250,1110.308913,11843.295072,-2528.115143
128.223559,2664.741391,11843.295072,-1762.019645
128.223869,2146.597232,9770.718434,1991.848295
128.224178,-5181.441594,3034.844362,5132.839837
128.224487,-1110.308913,6513.812290,3983.696590
128.224797,1036.288319,6883.915261,-3064.381992
128.225106,4959.379811,7254.018232,-5362.668486
128.225416,-1998.556043,14582.057057,-4673.182538
128.225725,-3552.988522,15322.262999,-8733.488677
128.226035,1406.391290,14434.015869,-3524.039291
128.226344,3701.029710,9622.677246,-3217.601092
128.226653,-1628.453072,10510.924376,612.876398
128.226963,-2886.803174,6513.812290,6435.202183
128.227272,2960.823768,4737.318029,766.095498
128.227582,3478.967927,5625.565159,-6205.373534
128.227891,-222.061783,10584.944971,-3447.429741
128.228200,-4293.194464,10955.047942,-2451.505594
128.228510,2442.679609,10436.903782,-5362.668486
128.228819,3775.050304,12731.542202,-4443.353888
128.229129,2294.638420,6365.771101,229.828649
128.229438,-3478.967927,7698.141797,4060.306139
128.229748,-518.144159,5773.606348,5362.668486
128.230057,2516.700203,10214.842000,-1225.752797
128.230366,2146.597232,6661.853478,-3983.696590
128.230676,-814.226536,12509.480420,-3600.648841
128.230985,-3552.988522,9770.718434,-4826.401637
128.231295,-740.205942,13175.665768,-4366.744339
128.231604,2368.659014,12657.521608,-1302.362347
128.231913,2442.679609,11103.089130,1762.019645
128.232223,-4663.297435,7846.182985,3217.601092
128.232532,-814.226536,10362.883188,919.314598
128.232842,148.041188,9770.718434,-5592.497135
128.233151,2812.782580,8216.285956,-7431.126331
128.233461,-2516.700203,14063.912898,-3447.429741
128.233770,-0.000000,9992.780217,-1685.410096
128.234079,2516.700203,11547.212695,-2681.334243
128.234389,1184.329507,5995.668130,153.219100
128.234698,-2220.617826,6291.750507,6588.421283
128.235008,-3923.091493,4367.215058,4443.353888
128.235317,3034.844362,5995.668130,-1838.629195
128.235626,3034.844362,4515.256246,-4366.744339
128.235936,1406.391290,12435.459826,-5669.106685
128.236245,-3404.947333,14878.139434,-6205.373534
128.236555,1850.514855,13323.706956,-4519.963438
128.236864,-148.041188,11399.171507,0.000000
128.237174,3404.947333,10214.842000,3600.648841
128.237483,-370.102971,7846.182985,3983.696590
128.237792,148.041188,5773.606348,2834.553343
128.238102,-592.164754,6217.729913,0.000000
128.238411,2072.576638,5921.647536,-4290.134789
128.238721,-2146.597232,13915.871710,-6894.859482
128.239030,-4071.132681,16358.551318,-6128.763984
128.239339,1184.329507,17468.860231,-7354.516781
128.239649,2146.597232,11621.233289,-5515.887586
128.239958,370.102971,8956.491898,-2451.505594
128.240268,-4219.173869,6069.688724,4290.134789
128.240577,3923.091493,7105.977043,2298.286494
128.240887,4219.173869,1924.535449,-1685.410096
128.241196,2072.576638,6661.853478,995.924147
128.241505,-5921.647536,7772.162391,3907.087040
128.241815,814.226536,10436.903782,-3753.867940
128.242124,1998.556043,10510.924376,-7201.297681
128.242434,1776.494261,9474.636058,-1991.848295
128.242743,-5033.400406,9252.574275,1991.848295
128.243052,-1702.473667,8142.265362,-1915.238745
128.243362,1776.494261,9178.553681,-4979.620737
128.243671,2960.823768,5773.606348,-3370.820191
128.243981,-1406.391290,10584.944971,1608.800546
128.244290,-4959.379811,9326.594869,2298.286494
128.244600,2442.679609,13619.789333,-3677.258390
128.244909,3478.967927,11769.274478,-4366.744339
128.245218,-222.061783,10214.842000,919.314598
128.245528,-6365.771101,8290.306550,4443.353888
128.245837,148.041188,15100.201217,-1532.190996
128.246147,3256.906145,6365.771101,-10112.460574
128.246456,1110.308913,8882.471304,-3370.820191
128.246765,-7031.956449,12435.459826,1838.629195
128.247075,1628.453072,9178.553681,-1532.190996
128.247384,4885.359217,11103.089130,-4903.011187
128.247694,3108.864956,6957.935855,-153.219100
128.248003,-3404.947333,8142.265362,3753.867940
128.248313,-3182.885551,6513.812290,4903.011187
128.248622,4071.132681,9474.636058,-1532.190996
128.248931,3330.926739,5773.606348,-6052.154434
128.249241,-148.041188,7328.038826,536.266849
128.249550,-5847.626942,9104.533087,766.095498
128.249860,1776.494261,11621.233289,-7431.126331
128.250169,1406.391290,9622.677246,-5898.935335
128.250478,-296.082377,10140.821405,2298.286494
128.250788,-4737.318029,8956.491898,3370.820191
128.251097,-222.061783,9104.533087,-842.705048
128.251407,1628.453072,7328.038826,-6435.202183
128.251716,592.164754,7105.977043,-1762.019645
128.252026,-2960.823768,12953.603985,-1149.143247
128.252335,-2146.597232,11251.130318,-2834.553343
128.252644,4293.194464,14804.118840,-8120.612279
128.252954,1110.308913,9400.615463,-4366.744339
128.253263,-74.020594,10807.006753,6052.154434
128.253573,-4737.318029,8290.306550,4826.401637
128.253882,4737.318029,8660.409521,-3677.258390
128.254191,444.123565,2960.823768,-5822.325785
128.254501,2368.659014,8068.244768,1532.190996
128.254810,-3849.070898,9400.615463,-1532.190996
128.255120,222.061783,11399.171507,-4366.744339
128.255429,1332.370696,12731.542202,-3140.991542
128.255739,2664.741391,9178.553681,-1302.362347
128.256048,-3034.844362,11103.089130,1915.238745
128.256357,-2368.659014,9252.574275,3064.381992
128.256667,2738.761985,9844.739029,-3677.258390
128.256976,1850.514855,6587.832884,-5056.230287
128.257286,-0.000000,11621.233289,153.219100
128.257595,-3849.070898,8142.265362,-306.438199
128.257904,2960.823768,12213.398043,-5669.106685
128.258214,-222.061783,11843.295072,229.828649
128.258523,1554.432478,7402.059420,2068.457845
128.258833,-6587.832884,7402.059420,459.657299
128.259142,2664.741391,11251.130318,-1455.581446
128.259452,-370.102971,8364.327145,-5515.887586
128.259761,2738.761985,7846.182985,-5132.839837
128.260070,-1924.535449,12509.480420,-1762.019645
128.260380,-962.267725,8660.409521,-612.876398
128.260689,1480.411884,12139.377449,-1225.752797
128.260999,592.164754,7254.018232,229.828649
128.261308,444.123565,11177.109724,1072.533697
128.261617,-5773.606348,3627.009116,2834.553343
128.261927,2072.576638,10732.986159,-842.705048
128.262236,888.247130,7105.977043,-5362.668486
128.262546,5329.482782,11325.150913,-4749.792088
128.262855,-3849.070898,9474.636058,3294.210641
128.263165,962.267725,10066.800811,-306.438199
128.263474,666.185348,11621.233289,-4290.134789
128.263783,3108.864956,8956.491898,-1991.848295
128.264093,-4885.359217,7994.224174,3753.867940
128.264402,-4145.153275,8364.327145,1532.190996
128.264712,3330.926739,11843.295072,-6281.983084
128.265021,7624.121203,8512.368333,-5669.106685
128.265330,-2886.803174,14285.974681,-459.657299
128.265640,-6217.729913,11547.212695,919.314598
128.265949,3701.029710,13545.768739,-3217.601092
128.266259,1924.535449,8216.285956,-5898.935335
128.266568,-0.000000,7920.203579,1991.848295
128.266878,-5773.606348,5625.565159,6358.592633
128.267187,962.267725,9770.718434,-3524.039291
128.267496,2664.741391,6513.812290,-9116.536426
128.267806,3034.844362,6291.750507,-3524.039291
128.268115,-7624.121203,7994.224174,3294.210641
128.268425,-1924.535449,9326.594869,3447.429741
128.268734,4293.194464,13323.706956,-5822.325785
128.269043,5477.523971,6069.688724,-5898.935335
128.269353,-3775.050304,8290.306550,5439.278036
128.269662,-6217.729913,7105.977043,8350.440928
128.269972,2146.597232,11473.192101,-8580.269578
128.270281,3923.091493,8438.347739,-10342.289223
128.270591,1332.370696,10066.800811,0.000000
128.270900,-11029.068536,10881.027347,4596.572988
128.271209,3478.967927,14211.954086,-3600.648841
128.271519,4441.235652,11843.295072,-11261.603821
128.271828,3108.864956,10955.047942,-766.095498
128.272138,-8438.347739,6143.709319,10878.556072
128.272447,-1036.288319,9252.574275,3217.601092
128.272756,3034.844362,10288.862594,-9806.022374
128.273066,6217.729913,7846.182985,-7124.688131
128.273375,-7624.121203,7624.121203,6052.154434
128.273685,-3182.885551,10584.944971,2681.334243
128.273994,7550.100608,12805.562797,-7967.393179
128.274304,5181.441594,5625.565159,-7584.345430
128.274613,-3478.967927,9104.533087,9576.193725
128.274922,-9104.533087,6661.853478,9576.193725
128.275232,3108.864956,7105.977043,-4826.401637
128.275541,2812.782580,8364.327145,-11721.261119
128.275851,2664.741391,10436.903782,-2451.505594
128.276160,-7254.018232,9548.656652,2451.505594
128.276469,592.164754,13989.892304,-2451.505594
128.276779,4959.379811,11769.274478,-7507.735880
128.277088,5699.585753,3034.844362,4213.525239
128.277398,-6957.935855,8216.285956,12563.966167
128.277707,-3701.029710,7105.977043,6052.154434
128.278017,5329.482782,10288.862594,-9116.536426
128.278326,2960.823768,9252.574275,-8810.098227
128.278635,-518.144159,13915.871710,383.047749
128.278945,-5995.668130,13545.768739,-383.047749
128.279254,5477.523971,15766.386565,-7124.688131
128.279564,2664.741391,8660.409521,-4903.011187
128.279873,-3034.844362,6217.729913,7354.516781
128.280182,-5995.668130,6661.853478,9039.926876
128.280492,2368.659014,7254.018232,-995.924147
128.280801,3330.926739,7105.977043,-10189.070123
128.281111,2294.638420,6735.874072,-3753.867940
128.281420,-7402.059420,14285.974681,689.485948
128.281730,-444.123565,13175.665768,-612.876398
128.282039,5403.503377,15766.386565,-8810.098227
128.282348,3923.091493,6365.771101,-3217.601092
128.282658,-4367.215058,6587.832884,8503.660028
128.282967,-6957.935855,5921.647536,6588.421283
128.283277,4663.297435,10140.821405,-6281.983084
128.283586,3478.967927,7994.224174,-9576.193725
128.283895,2516.700203,12361.439231,76.609550
128.284205,-9326.594869,11399.171507,5975.544884
128.284514,3627.009116,15396.283594,-3600.648841
128.284824,2220.617826,10436.903782,-7967.393179
128.285133,1184.329507,8586.388927,2451.505594
128.285443,-7920.203579,8438.347739,8044.002729
128.285752,-1406.391290,9326.594869,-2451.505594
128.286061,4885.359217,10732.986159,-9116.536426
128.286371,962.267725,8882.471304,-6128.763984
128.286680,-4219.173869,13249.686362,1685.410096
128.286990,-1702.473667,9252.574275,0.000000
128.287299,3923.091493,16358.551318,-8810.098227
128.287608,2368.659014,6217.729913,-5515.887586
128.287918,-1702.473667,6513.812290,6588.421283
128.288227,-6439.791695,4515.256246,7814.174080
128.288537,4959.379811,7105.977043,-689.485948
128.288846,2812.782580,5551.544565,-7277.907231
128.289156,1702.473667,9992.780217,-459.657299
128.289465,-5773.606348,11325.150913,1072.533697
128.289774,2368.659014,11917.315666,-4826.401637
128.290084,2368.659014,9030.512492,-5822.325785
128.290393,1776.494261,9622.677246,153.219100
128.290703,-2220.617826,5181.441594,5439.278036
128.291012,-2664.741391,5625.565159,2451.505594
128.291322,2590.720797,9548.656652,-2834.553343
128.291631,962.267725,8290.306550,-3983.696590
128.291941,-592.164754,13471.748144,-306.438199
128.292250,-7105.977043,13323.706956,766.095498
128.292559,6143.709319,17246.798449,-7354.516781
128.292869,666.185348,8586.388927,-9499.584175
128.293178,370.102971,9622.677246,1302.362347
128.293488,-6291.750507,5477.523971,6358.592633
128.293797,3108.864956,6957.935855,-995.924147
128.294107,3627.009116,6069.688724,-4136.915689
128.294416,-0.000000,4515.256246,229.828649
128.294725,-1554.432478,9622.677246,3294.210641
128.295035,518.144159,10066.800811,-1608.800546
128.295344,3923.091493,12139.377449,-6511.811733
128.295654,740.205942,4515.256246,-2681.334243
128.295963,-2294.638420,7994.224174,4519.963438
128.296273,-8364.327145,5847.626942,5439.278036
128.296582,1110.308913,8882.471304,-3753.867940
128.296892,222.061783,9104.533087,-11261.603821
128.297201,1850.514855,13323.706956,-4673.182538
128.297510,-5181.441594,11769.274478,-919.314598
128.297820,1258.350101,16136.489536,-5669.106685
128.298129,2812.782580,14285.974681,-8044.002729
128.298439,-222.061783,10881.027347,-1072.533697
128.298748,-6143.709319,8808.450710,6818.249932
128.299058,-1036.288319,6587.832884,0.000000
128.299367,1998.556043,11029.068536,-11491.432470
128.299676,1184.329507,7550.100608,-12257.527968
128.299986,-1110.308913,11251.130318,-7201.297681
128.300295,-5847.626942,10584.944971,-5898.935335
128.300605,3330.926739,16728.654289,-7890.783629
128.300914,4737.318029,8956.491898,-10035.851024
128.301224,2220.617826,6809.894666,-4979.620737
128.301533,-1998.556043,1776.494261,2604.724693
128.301843,-3330.926739,2664.741391,-995.924147
128.302152,1998.556043,6439.791695,-8273.831378
128.302461,3034.844362,7328.038826,-12104.308868
128.302771,1406.391290,12657.521608,-12027.699319
128.303080,-370.102971,10807.006753,-8886.707777
128.303390,-1406.391290,13693.809927,-9422.974625
128.303699,1184.329507,12953.603985,-12947.013916
128.304009,3108.864956,7031.956449,-14709.033562
128.304318,1554.432478,2220.617826,-8656.879127
128.304627,-2220.617826,4441.235652,919.314598
128.304937,-148.041188,7476.080014,76.609550
128.305246,5329.482782,10288.862594,-10648.727422
128.305556,1036.288319,12731.542202,-11874.480219
128.305865,-1924.535449,12805.562797,-10112.460574
128.306175,-592.164754,12879.583391,-12257.527968
128.306484,-1332.370696,14656.077652,-13789.718964
128.306794,2146.597232,13471.748144,-14325.985813
128.307103,-740.205942,6291.750507,-11491.432470
128.307412,296.082377,6883.915261,-2987.772442
128.307722,2294.638420,5403.503377,153.219100
128.308031,-2146.597232,7476.080014,-2374.896044
128.308341,-74.020594,9770.718434,-7354.516781
128.308650,-1702.473667,9474.636058,-11031.775171
128.308960,-1702.473667,13027.624579,-18079.853753
128.309269,-1776.494261,11991.336260,-16547.662757
128.309578,-3108.864956,12879.583391,-13866.328514
128.309888,-2072.576638,11621.233289,-9806.022374
128.310197,-148.041188,8290.306550,-8656.879127
128.310507,888.247130,7179.997637,-9193.145976
128.310816,6661.853478,5107.421000,-8733.488677
128.311126,1702.473667,5107.421000,-3677.258390
128.311435,-1628.453072,5699.585753,-2911.162892
128.311745,-2516.700203,8142.265362,-6281.983084
128.312054,1258.350101,11695.253884,-14785.643111
128.312363,-888.247130,12879.583391,-18616.120601
128.312673,-740.205942,14508.036463,-19688.654299
128.312982,-1258.350101,11769.274478,-14709.033562
128.313292,1184.329507,11547.212695,-9959.241474
128.313601,1776.494261,7994.224174,-8350.440928
128.313911,740.205942,8882.471304,-2681.334243
128.314220,1480.411884,10955.047942,459.657299
128.314529,1702.473667,8290.306550,-8886.707777
128.314839,4811.338623,7772.162391,-16088.005458
128.315148,2146.597232,8660.409521,-15015.471761
128.315458,-5477.523971,10362.883188,-8350.440928
128.315767,-0.000000,14211.954086,-8044.002729
128.316077,2960.823768,12879.583391,-12027.699319
128.316386,296.082377,10584.944971,-11031.775171
128.316696,-3775.050304,8364.327145,-6435.202183
128.317005,592.164754,7179.997637,-11491.432470
128.317314,3849.070898,6809.894666,-16471.053207
128.317624,-3552.988522,8512.368333,-9882.631924
128.317933,-2960.823768,11473.192101,-2298.286494
128.318243,1480.411884,11103.089130,-7814.174080
128.318552,1998.556043,12583.501014,-8580.269578
128.318862,-2294.638420,9696.697840,-8044.002729
128.319171,-5329.482782,9548.656652,-8197.221829
128.319480,-666.185348,8660.409521,-12717.185267
128.319790,2960.823768,10066.800811,-17313.758255
128.320099,2294.638420,11103.089130,-15321.909960
128.320409,-1332.370696,11325.150913,-5286.058936
128.320718,-0.000000,8882.471304,1532.190996
128.321028,-296.082377,5921.647536,-3753.867940
128.321337,-74.020594,2442.679609,-4749.792088
128.321647,-1110.308913,7031.956449,-6435.202183
128.321956,-2590.720797,8956.491898,-10112.460574
128.322265,-3034.844362,13841.851115,-15551.738609
128.322575,296.082377,17764.942608,-19305.606550
128.322884,-888.247130,20651.745782,-23365.912689
128.323194,-0.000000,16358.551318,-15475.129060
128.323503,-148.041188,14211.954086,-7584.345430
128.323813,3997.112087,8068.244768,-6511.811733
128.324122,5107.421000,666.185348,-4673.182538
128.324431,592.164754,-1554.432478,1455.581446
128.324741,-518.144159,-148.041188,1532.190996
128.325050,-0.000000,3330.926739,-7737.564530
128.325360,2738.761985,12509.480420,-15781.567259
128.325669,-2664.741391,17764.942608,-14632.424012
128.325979,-888.247130,19467.416275,-17926.634653
128.326288,-0.000000,17987.004391,-17850.025103
128.326598,-1924.535449,11991.336260,-16471.053207
128.326907,-2664.741391,7105.977043,-10801.946522
128.327216,-1480.411884,3923.091493,-3524.039291
128.327526,-148.041188,5995.668130,-2604.724693
128.327835,2442.679609,7550.100608,-8273.831378
128.328145,2738.761985,9918.759623,-12870.404366
128.328454,-962.267725,11843.295072,-13713.109414
128.328764,-2072.576638,12213.398043,-11644.651570
128.329073,-444.123565,15248.242405,-12793.794817
128.329382,1480.411884,11991.336260,-14019.547613
128.329692,-962.267725,8216.285956,-10648.727422
128.330001,-1332.370696,2590.720797,-8197.221829
128.330311,-962.267725,-0.000000,-9652.803275
128.330620,-74.020594,4219.173869,-8350.440928
128.330930,1406.391290,9770.718434,-4443.353888
128.331239,1554.432478,13397.727550,-8197.221829
128.331549,148.041188,13471.748144,-11568.042020
128.331858,296.082377,13767.830521,-9499.584175
128.332167,-740.205942,12731.542202,-10801.946522
128.332477,-666.185348,10658.965565,-12947.013916
128.332786,740.205942,9548.656652,-11338.213370
128.333096,-666.185348,8216.285956,-8656.879127
128.333405,-0.000000,7550.100608,-7967.393179
128.333715,-0.000000,8956.491898,-6665.030833
128.334024,-1036.288319,8216.285956,-7967.393179
128.334333,1628.453072,6291.750507,-11184.994271
128.334643,1110.308913,5329.482782,-9039.926876
128.334952,148.041188,5921.647536,-5515.887586
128.335262,-814.226536,6217.729913,-3217.601092
128.335571,666.185348,6291.750507,-5669.106685
128.335881,2812.782580,8808.450710,-6511.811733
128.336190,1110.308913,10436.903782,-5439.278036
128.336500,-296.082377,12731.542202,-2604.724693
128.336809,-740.205942,12953.603985,-5822.325785
128.337118,-296.082377,11991.336260,-9346.365076
128.337428,-3552.988522,10881.027347,-10495.508323
128.337737,-3923.091493,9770.718434,-11568.042020
128.338047,-2590.720797,9992.780217,-15015.471761
128.338356,-2590.720797,12139.377449,-12947.013916
128.338666,-1036.288319,11843.295072,-10572.117872
128.338975,-592.164754,12805.562797,-9882.631924
128.339284,666.185348,12435.459826,-9269.755526
128.339594,-0.000000,13175.665768,-9346.365076
128.339903,222.061783,8512.368333,-8580.269578
128.340213,-666.185348,10510.924376,-12870.404366
128.340522,-1110.308913,9918.759623,-15092.081311
128.340832,1110.308913,8734.430116,-18692.730151
128.341141,2886.803174,8216.285956,-17926.634653
128.341451,4293.194464,6883.915261,-12180.918418
128.341760,3108.864956,4737.318029,-5898.935335
128.342069,7476.080014,9474.636058,-1991.848295
128.342379,-3552.988522,5403.503377,2911.162892
128.342688,888.247130,4367.215058,-7737.564530
128.342998,-2738.761985,6069.688724,-20378.140247
128.343307,-3256.906145,8068.244768,-20301.530697
128.343617,-888.247130,16876.695478,-19612.044749
128.343926,-5181.441594,16876.695478,-20607.968896
128.344235,6883.915261,19245.354492,-25740.808733
128.344545,-370.102971,12435.459826,-13330.061665
128.344854,-0.000000,9548.656652,-4213.525239
128.345164,1480.411884,4737.318029,-1685.410096
128.345473,20429.683999,-2812.782580,-9882.631924
128.345783,-37750.503042,-10881.027347,76.609550
128.346092,8438.347739,6069.688724,-2451.505594
128.346402,16802.674883,23464.528361,-25664.199183
128.346711,15766.386565,24648.857869,-24361.836836
128.347020,-7624.121203,8882.471304,-9959.241474
128.347330,-18875.251521,1702.473667,-5898.935335
128.347639,5551.544565,10436.903782,-21603.893044
128.347949,1110.308913,6587.832884,-13023.623466
128.348258,592.164754,14508.036463,-12257.527968
128.348568,-5773.606348,6883.915261,-7124.688131
128.348877,-6587.832884,12139.377449,-8197.221829
128.349186,7179.997637,15766.386565,-13330.061665
128.349496,666.185348,10066.800811,-21603.893044
128.349805,666.185348,15840.407159,-3600.648841
128.350115,-8808.450710,5329.482782,3753.867940
128.350424,1702.473667,6809.894666,-17926.634653
128.350734,-444.123565,-0.000000,-23212.693589
128.351043,2072.576638,10288.862594,-15628.348159
128.351353,-7550.100608,5995.668130,-11491.432470
128.351662,740.205942,11991.336260,-9039.926876
128.351971,6587.832884,11917.315666,-10189.070123
128.352281,7328.038826,8438.347739,-12947.013916
128.352590,-888.247130,4071.132681,1302.362347
128.352900,-6513.812290,4811.338623,5056.230287
128.353209,4293.194464,8512.368333,-12717.185267
128.353519,8216.285956,11991.336260,-24515.055936
128.353828,-3330.926739,13619.789333,-15475.129060
128.354137,-2516.700203,13249.686362,-10648.727422
128.354447,5403.503377,16654.633695,-15015.471761
128.354756,1998.556043,16062.468941,-9882.631924
128.355066,-3552.988522,10658.965565,-306.438199
128.355375,-1554.432478,6661.853478,-3064.381992
128.355685,1850.514855,6809.894666,-12410.747068
128.355994,-1924.535449,3552.988522,-15321.909960
128.356304,1110.308913,9030.512492,-13789.718964
128.356613,-0.000000,10955.047942,-9422.974625
128.356922,-222.061783,14508.036463,-383.047749
128.357232,-2886.803174,13693.809927,-1378.971896
128.357541,962.267725,13471.748144,-7737.564530
128.357851,-518.144159,9252.574275,-10955.165621
128.358160,-2812.782580,5033.400406,-10112.460574
128.358470,-7105.977043,4145.153275,-9576.193725
128.358779,-2072.576638,6661.853478,-12027.699319
128.359088,-1628.453072,12287.418637,-7507.735880
128.359398,-4219.173869,14063.912898,-7431.126331
128.359707,1850.514855,13101.645173,-10955.165621
128.360017,3478.967927,8142.265362,-7431.126331
128.360326,-2294.638420,7698.141797,-1225.752797
128.360636,-2442.679609,5551.544565,-5439.278036
128.360945,-2442.679609,3478.967927,-12180.918418
128.361255,-2220.617826,12139.377449,-12257.527968
128.361564,1554.432478,11399.171507,-14479.204912
128.361873,1776.494261,14359.995275,-14709.033562
128.362183,-666.185348,18209.066173,-8733.488677
128.362492,-888.247130,10584.944971,-12180.918418
128.362802,-666.185348,7994.224174,-14862.252661
128.363111,4589.276840,9178.553681,-12487.356617
128.363421,-0.000000,4885.359217,-8963.317327
128.363730,740.205942,8290.306550,-3064.381992
128.364039,3701.029710,5995.668130,-5592.497135
128.364349,962.267725,11103.089130,-14479.204912
128.364658,2516.700203,8142.265362,-14555.814462
128.364968,-2960.823768,7031.956449,-9269.755526
128.365277,-148.041188,12953.603985,-8350.440928
128.365587,2442.679609,8956.491898,-16471.053207
128.365896,1924.535449,7105.977043,-14402.595362
128.366206,2812.782580,6069.688724,-7431.126331
128.366515,-2886.803174,5477.523971,-766.095498
128.366824,-592.164754,10140.821405,842.705048
128.367134,4515.256246,12139.377449,-6205.373534
128.367443,4219.173869,14730.098246,-13483.280765
128.367753,666.185348,10288.862594,-11491.432470
128.368062,-5625.565159,11399.171507,-3294.210641
128.368372,-5847.626942,11991.336260,-2528.115143
128.368681,3701.029710,11621.233289,-10801.946522
128.368990,-962.267725,9474.636058,-8810.098227
128.369300,-4811.338623,5699.585753,-995.924147
128.369609,-5033.400406,10732.986159,2451.505594
128.369919,-4663.297435,11325.150913,-4290.134789
128.370228,2368.659014,11843.295072,-7124.688131
128.370538,-2516.700203,12657.521608,-6281.983084
128.370847,-2442.679609,10362.883188,-4979.620737
128.371157,-3849.070898,11843.295072,-4443.353888
128.371466,2146.597232,11029.068536,-10112.460574
128.371775,5699.585753,9326.594869,-8580.269578
128.372085,-1702.473667,7402.059420,1762.019645
128.372394,-1036.288319,6661.853478,10648.727422
128.372704,-6217.729913,10807.006753,5132.839837
128.373013,9030.512492,8660.409521,-7737.564530
128.373323,592.164754,6587.832884,-5669.106685
128.373632,-2220.617826,9474.636058,-3217.601092
128.373941,-1258.350101,10066.800811,-7124.688131
128.374251,4145.153275,13915.871710,-12334.137518
128.374560,4293.194464,9622.677246,-4903.011187
128.374870,-1628.453072,3997.112087,7814.174080
128.375179,-2442.679609,6513.812290,14172.766713
128.375489,2664.741391,1702.473667,6205.373534
128.375798,9252.574275,6957.935855,-4903.011187
128.376108,-2220.617826,4293.194464,0.000000
128.376417,-3849.070898,13693.809927,5132.839837
128.376726,-3404.947333,16432.571912,-2911.162892
128.377036,10288.862594,15174.221811,-11874.480219
128.377345,-2812.782580,14434.015869,-6818.249932
128.377655,-1184.329507,11991.336260,6971.469032
128.377964,-5921.647536,10584.944971,3830.477490
128.378274,4293.194464,9252.574275,-5669.106685
128.378583,4959.379811,10510.924376,-3370.820191
128.378892,-2294.638420,9252.574275,3677.258390
128.379202,-5255.462188,11103.089130,8656.879127
128.379511,-2294.638420,10436.903782,1455.581446
128.379821,5921.647536,15988.448347,-9269.755526
128.380130,222.061783,6143.709319,-5745.716235
128.380440,-7846.182985,7920.203579,7431.126331
128.380749,-7254.018232,9400.615463,3370.820191
128.381059,7402.059420,7254.018232,-10572.117872
128.381368,3849.070898,5329.482782,-8733.488677
128.381677,-3256.906145,6143.709319,8656.879127
128.381987,-10658.965565,8068.244768,11338.213370
128.382296,4737.318029,10066.800811,-2145.067394
128.382606,8364.327145,6957.935855,-5362.668486
128.382915,-1184.329507,3256.906145,76.609550
128.383225,-8438.347739,6735.874072,10418.898773
128.383534,-2738.761985,8290.306550,0.000000
128.383843,10807.006753,10436.903782,-12180.918418
128.384153,-1850.514855,9104.533087,-4979.620737
128.384462,-4885.359217,12435.459826,6281.983084
128.384772,-8956.491898,9992.780217,536.266849
128.385081,11325.150913,14878.139434,-11261.603821
128.385391,5921.647536,7994.224174,-9652.803275
128.385700,-2516.700203,8438.347739,4673.182538
128.386010,-9770.718434,7698.141797,10112.460574
128.386319,7105.977043,9030.512492,-4903.011187
128.386628,8586.388927,8734.430116,-12717.185267
128.386938,-0.000000,10140.821405,0.000000
128.387247,-5773.606348,12509.480420,6052.154434
128.387557,-74.020594,12731.542202,-7048.078582
128.387866,11843.295072,13989.892304,-13176.842566
128.388176,296.082377,5403.503377,-3753.867940
128.388485,-7624.121203,6883.915261,11031.775171
128.388795,-5995.668130,4071.132681,7354.516781
128.389104,10140.821405,10658.965565,-6052.154434
128.389414,1184.329507,6365.771101,-7048.078582
128.389723,-3627.009116,10658.965565,3064.381992
128.390033,-9474.636058,11695.253884,4979.620737
128.390342,5181.441594,14508.036463,-10572.117872
128.390652,4515.256246,11251.130318,-12563.966167
128.390961,-444.123565,10658.965565,1685.410096
128.391271,-8290.306550,7994.224174,8273.831378
128.391580,1036.288319,6957.935855,-2374.896044
128.391890,9918.759623,9178.553681,-9959.241474
128.392199,-740.205942,3849.070898,-1072.533697
128.392509,-6291.750507,8142.265362,10342.289223
128.392818,-4959.379811,9400.615463,1225.752797
128.393128,9696.697840,12583.501014,-10955.165621
128.393437,1702.473667,5921.647536,-4443.353888
128.393747,-3552.988522,7550.100608,7354.516781
128.394056,-8216.285956,6365.771101,6052.154434
128.394366,7254.018232,11843.295072,-9959.241474
128.394675,6883.915261,6809.894666,-9729.412825
128.394985,-2368.659014,6661.853478,4979.620737
128.395294,-6513.812290,10362.883188,11261.603821
128.395604,2294.638420,12065.356855,-3983.696590
128.395913,7476.080014,12805.562797,-7814.174080
128.396223,-518.144159,4959.379811,2681.334243
128.396532,-8290.306550,11103.089130,8273.831378
128.396842,-4367.215058,9918.759623,-1838.629195
128.397151,7476.080014,13841.851115,-11644.651570
