#time,accel_x,accel_y,accel_z
68.076982,296.082377,9104.533087,-2221.676944
68.077292,1924.535449,7179.997637,-2221.676944
68.077602,-148.041188,10140.821405,-1072.533697
68.077911,-148.041188,9992.780217,-306.438199
68.078221,-74.020594,10066.800811,-1378.971896
68.078531,592.164754,9252.574275,-766.095498
68.078840,148.041188,8586.388927,-1225.752797
68.079150,-0.000000,9030.512492,-1072.533697
68.079460,-0.000000,9622.677246,-995.924147
68.079769,296.082377,9770.718434,-1532.190996
68.080079,-888.247130,11917.315666,-1378.971896
68.080389,-370.102971,9844.739029,-689.485948
68.080698,-592.164754,9178.553681,-536.266849
68.081008,-148.041188,9104.533087,-1532.190996
68.081318,1554.432478,9178.553681,-2451.505594
68.081627,-0.000000,9030.512492,-1915.238745
68.081937,740.205942,10436.903782,-306.438199
68.082247,222.061783,9992.780217,-306.438199
68.082556,-0.000000,8142.265362,-612.876398
68.082866,-296.082377,7772.162391,0.000000
68.083176,296.082377,8142.265362,-1915.238745
68.083485,370.102971,9178.553681,-766.095498
68.083795,-0.000000,9400.615463,0.000000
68.084105,740.205942,9104.533087,1072.533697
68.084414,2294.638420,6957.935855,-1608.800546
68.084724,3478.967927,4737.318029,1149.143247
68.085034,2442.679609,6069.688724,7354.516781
68.085343,962.267725,6661.853478,12487.356617
68.085653,148.041188,5107.421000,10648.727422
68.085963,5477.523971,6957.935855,8963.317327
68.086272,5107.421000,6513.812290,4213.525239
68.086582,962.267725,7328.038826,6741.640382
68.086892,-2442.679609,10288.862594,13713.109414
68.087201,1258.350101,14063.912898,8273.831378
68.087511,1110.308913,11843.295072,5209.449386
68.087821,222.061783,12509.480420,8427.050478
68.088130,-1776.494261,13175.665768,10418.898773
68.088440,-4663.297435,12139.377449,8580.269578
68.088750,-2590.720797,16580.613101,9193.145976
68.089059,-5033.400406,15988.448347,10035.851024
68.089369,4441.235652,19911.539840,2604.724693
68.089679,-7476.080014,13027.624579,7048.078582
68.089988,-6217.729913,13767.830521,16624.272307
68.090298,-10362.883188,7994.224174,11491.432470
68.090608,2072.576638,14508.036463,-2221.676944
68.090917,1628.453072,10955.047942,-153.219100
68.091227,-3701.029710,7846.182985,6435.202183
68.091537,-3849.070898,6291.750507,16088.005458
68.091846,-444.123565,3627.009116,12563.966167
68.092156,740.205942,2294.638420,15168.690860
68.092466,-2146.597232,1184.329507,17773.415554
68.092775,-1850.514855,4219.173869,10801.946522
68.093085,-2220.617826,7624.121203,76.609550
68.093395,1332.370696,10510.924376,-5669.106685
68.093704,-1924.535449,14434.015869,-5669.106685
68.094014,592.164754,13619.789333,-919.314598
68.094324,888.247130,12583.501014,9882.631924
68.094633,148.041188,9030.512492,13483.280765
68.094943,1258.350101,6587.832884,17160.539155
68.095253,-814.226536,5921.647536,16011.395908
68.095562,740.205942,7105.977043,4903.011187
68.095872,2368.659014,8734.430116,-6588.421283
68.096182,4441.235652,15840.407159,-12027.699319
68.096491,1850.514855,15322.262999,-6818.249932
68.096801,1850.514855,14804.118840,229.828649
68.097111,-1850.514855,10436.903782,9346.365076
68.097420,-3775.050304,7994.224174,14249.376263
68.097730,-3182.885551,5477.523971,11031.775171
68.098040,1850.514855,7402.059420,-4443.353888
68.098349,7624.121203,7105.977043,-17083.929605
68.098659,5033.400406,11547.212695,-17466.977354
68.098969,2590.720797,10362.883188,-995.924147
68.099278,-2072.576638,9548.656652,11338.213370
68.099588,740.205942,8660.409521,13483.280765
68.099898,-2220.617826,3108.864956,6435.202183
68.100207,-1480.411884,3108.864956,-4213.525239
68.100517,444.123565,4589.276840,-13483.280765
68.100827,3108.864956,12361.439231,-16930.710506
68.101136,1924.535449,17394.839637,-10725.336972
68.101446,-2294.638420,13471.748144,-383.047749
68.101756,-1554.432478,15248.242405,5515.887586
68.102065,2738.761985,10732.986159,-4903.011187
68.102375,-2368.659014,4515.256246,-2911.162892
68.102685,1480.411884,5995.668130,5209.449386
68.102994,6809.894666,4737.318029,306.438199
68.103304,3923.091493,6439.791695,1378.971896
68.103614,444.123565,9400.615463,8963.317327
68.103923,370.102971,9548.656652,1991.848295
68.104233,1110.308913,11547.212695,-8656.879127
68.104543,592.164754,12287.418637,-7660.954980
68.104852,-5477.523971,8364.327145,-842.705048
68.105162,-3627.009116,10732.986159,459.657299
68.105472,-1036.288319,8882.471304,-3677.258390
68.105781,-2368.659014,5181.441594,-6052.154434
68.106091,592.164754,8438.347739,-459.657299
68.106401,4071.132681,11177.109724,536.266849
68.106710,2590.720797,8882.471304,4290.134789
68.107020,518.144159,10510.924376,12717.185267
68.107330,148.041188,10288.862594,8963.317327
68.107639,1184.329507,3404.947333,-6588.421283
68.107949,-2516.700203,3404.947333,-8197.221829
68.108258,-1776.494261,8956.491898,-2451.505594
68.108568,-2220.617826,11621.233289,536.266849
68.108878,-1480.411884,16432.571912,-919.314598
68.109187,-2294.638420,15396.283594,2987.772442
68.109497,-518.144159,13471.748144,-2451.505594
68.109807,2590.720797,9548.656652,-6128.763984
68.110116,-1924.535449,7994.224174,7354.516781
68.110426,-814.226536,11399.171507,9499.584175
68.110736,4663.297435,12879.583391,6818.249932
68.111045,1036.288319,12213.398043,3600.648841
68.111355,-740.205942,10732.986159,4213.525239
68.111665,2072.576638,12657.521608,-2681.334243
68.111974,1924.535449,11103.089130,-9039.926876
68.112284,-4441.235652,9992.780217,-689.485948
68.112594,-4737.318029,10140.821405,5056.230287
68.112903,1554.432478,7179.997637,-6205.373534
68.113213,666.185348,6587.832884,-9652.803275
68.113523,-1110.308913,7624.121203,153.219100
68.113832,-666.185348,7624.121203,7201.297681
68.114142,1998.556043,6661.853478,7354.516781
68.114452,2960.823768,5477.523971,9269.755526
68.114761,518.144159,4811.338623,4366.744339
68.115071,1258.350101,6069.688724,-4979.620737
68.115381,-518.144159,7624.121203,-8503.660028
68.115690,-0.000000,11843.295072,-7354.516781
68.116000,-2664.741391,13101.645173,-1685.410096
68.116310,-4737.318029,12879.583391,-1455.581446
68.116619,-3997.112087,12213.398043,-3524.039291
68.116929,222.061783,9030.512492,-9422.974625
68.117239,666.185348,8142.265362,-8503.660028
68.117548,-1184.329507,9178.553681,1608.800546
68.117858,-1628.453072,10658.965565,7507.735880
68.118168,2960.823768,9252.574275,2374.896044
68.118477,3108.864956,7476.080014,-2681.334243
68.118787,666.185348,9992.780217,-1302.362347
68.119097,518.144159,8808.450710,-3447.429741
68.119406,-0.000000,10066.800811,-4673.182538
68.119716,-2516.700203,11621.233289,-842.705048
68.120026,-1628.453072,9992.780217,-7048.078582
68.120335,1480.411884,6809.894666,-12257.527968
68.120645,148.041188,6069.688724,-9729.412825
68.120955,1776.494261,8068.244768,-766.095498
68.121264,3182.885551,8438.347739,3677.258390
68.121574,3330.926739,11177.109724,6894.859482
68.121884,3034.844362,7698.141797,6741.640382
68.122193,2442.679609,5551.544565,-1225.752797
68.122503,4145.153275,7254.018232,-7507.735880
68.122813,3627.009116,10140.821405,-4290.134789
68.123122,2368.659014,11917.315666,-1072.533697
68.123432,-1628.453072,12953.603985,1838.629195
68.123742,-518.144159,11177.109724,-1149.143247
68.124051,1628.453072,8512.368333,-8197.221829
68.124361,-740.205942,7550.100608,-11721.261119
68.124671,148.041188,10881.027347,-1455.581446
68.124980,1480.411884,8808.450710,3830.477490
68.125290,2368.659014,8882.471304,4060.306139
68.125600,2812.782580,7550.100608,3140.991542
68.125909,-1406.391290,7698.141797,0.000000
68.126219,-0.000000,8290.306550,-1455.581446
68.126529,-814.226536,10510.924376,-1455.581446
68.126838,-2368.659014,12287.418637,-383.047749
68.127148,-2442.679609,9918.759623,-2528.115143
68.127458,-3108.864956,9844.739029,-7737.564530
68.127767,-3108.864956,7994.224174,-10725.336972
68.128077,-1924.535449,8956.491898,-6205.373534
68.128387,-1480.411884,8660.409521,1915.238745
68.128696,-444.123565,6513.812290,12640.575717
68.129006,592.164754,7476.080014,10495.508323
68.129316,-1110.308913,4811.338623,3064.381992
68.129625,-1036.288319,6291.750507,-2374.896044
68.129935,1258.350101,9326.594869,-5669.106685
68.130245,-814.226536,13175.665768,-4826.401637
68.130554,-2664.741391,14211.954086,1762.019645
68.130864,-3478.967927,13101.645173,3983.696590
68.131174,-1998.556043,10658.965565,-2681.334243
68.131483,-296.082377,9474.636058,-11338.213370
68.131793,-1332.370696,8068.244768,-3217.601092
68.132102,888.247130,8438.347739,0.000000
68.132412,1480.411884,9844.739029,4519.963438
68.132721,1332.370696,10436.903782,7124.688131
68.133031,1036.288319,8290.306550,2757.943793
68.133340,592.164754,7920.203579,-612.876398
68.133650,-74.020594,8364.327145,-383.047749
68.133959,-592.164754,11991.336260,-536.266849
68.134269,-3997.112087,11029.068536,-2451.505594
68.134578,-2072.576638,11769.274478,-4749.792088
68.134888,222.061783,10881.027347,-10418.898773
68.135197,888.247130,9474.636058,-12793.794817
68.135507,518.144159,10510.924376,-4290.134789
68.135816,-518.144159,9622.677246,4443.353888
68.136126,2516.700203,7624.121203,8503.660028
68.136435,2516.700203,6365.771101,6665.030833
68.136745,592.164754,4737.318029,1532.190996
68.137054,2368.659014,6069.688724,-5286.058936
68.137363,3552.988522,9104.533087,-9499.584175
68.137673,-296.082377,12805.562797,-4519.963438
68.137982,-3404.947333,13767.830521,2451.505594
68.138292,370.102971,11473.192101,-2374.896044
68.138601,962.267725,10214.842000,-8350.440928
68.138911,-888.247130,7994.224174,-4903.011187
68.139220,-74.020594,8290.306550,1762.019645
68.139530,2886.803174,7920.203579,2528.115143
68.139839,4293.194464,9474.636058,3140.991542
68.140149,2516.700203,8734.430116,6205.373534
68.140458,2590.720797,8364.327145,1378.971896
68.140768,1702.473667,9400.615463,-1685.410096
68.141077,740.205942,11769.274478,-1302.362347
68.141387,-1110.308913,11695.253884,-1149.143247
68.141696,-2072.576638,12287.418637,-1378.971896
68.142006,-1184.329507,10436.903782,-7814.174080
68.142315,296.082377,9400.615463,-12563.966167
68.142625,888.247130,9622.677246,-7814.174080
68.142934,-222.061783,10510.924376,0.000000
68.143244,444.123565,8216.285956,9116.536426
68.143553,1554.432478,6883.915261,10342.289223
68.143863,-0.000000,5033.400406,5975.544884
68.144172,-1184.329507,4811.338623,536.266849
68.144482,1184.329507,9030.512492,-5975.544884
68.144791,-0.000000,10881.027347,-7890.783629
68.145100,-1702.473667,15100.201217,-2451.505594
68.145410,-4737.318029,13249.686362,1455.581446
68.145719,-2886.803174,11399.171507,-6052.154434
68.146029,-296.082377,7846.182985,-7201.297681
68.146338,-2368.659014,8734.430116,-5132.839837
68.146648,-1480.411884,8882.471304,2298.286494
68.146957,-444.123565,8512.368333,5592.497135
68.147267,1332.370696,9252.574275,3370.820191
68.147576,2516.700203,8808.450710,1225.752797
68.147886,-148.041188,9178.553681,-383.047749
68.148195,-1036.288319,9918.759623,-1302.362347
68.148505,-1998.556043,12583.501014,-3830.477490
68.148814,-3108.864956,13841.851115,-3907.087040
68.149124,-2590.720797,11177.109724,-6205.373534
68.149433,-888.247130,8734.430116,-11338.213370
68.149743,-592.164754,8586.388927,-12027.699319
68.150052,2960.823768,8068.244768,-6358.592633
68.150362,296.082377,8068.244768,6818.249932
68.150671,1184.329507,7402.059420,11108.384721
68.150981,3108.864956,7254.018232,7201.297681
68.151290,2146.597232,4737.318029,-1302.362347
68.151600,1850.514855,7105.977043,-7660.954980
68.151909,888.247130,11695.253884,-8197.221829
68.152219,-74.020594,14508.036463,-6128.763984
68.152528,-814.226536,15174.221811,-2298.286494
68.152837,-2664.741391,12287.418637,-1225.752797
68.153147,-1850.514855,10436.903782,-4826.401637
68.153456,592.164754,8734.430116,-7354.516781
68.153766,1850.514855,7550.100608,-4826.401637
68.154075,1480.411884,7698.141797,2987.772442
68.154385,3552.988522,8216.285956,9806.022374
68.154694,3701.029710,7772.162391,3294.210641
68.155004,1998.556043,7624.121203,1302.362347
68.155313,-1184.329507,8290.306550,689.485948
68.155623,-1850.514855,9992.780217,-1455.581446
68.155932,-740.205942,13545.768739,-3600.648841
68.156242,-2590.720797,11917.315666,-6128.763984
68.156551,-814.226536,9844.739029,-10801.946522
68.156861,962.267725,7550.100608,-13100.233016
68.157170,-74.020594,5921.647536,-5898.935335
68.157480,1258.350101,7402.059420,4903.011187
68.157789,592.164754,6513.812290,11568.042020
68.158099,2664.741391,6587.832884,12410.747068
68.158408,1332.370696,4737.318029,5439.278036
68.158718,1628.453072,6809.894666,-6052.154434
68.159027,3627.009116,10288.862594,-9806.022374
68.159337,370.102971,12509.480420,-7737.564530
68.159646,-1924.535449,15988.448347,-1149.143247
68.159956,-4145.153275,14434.015869,0.000000
68.160265,-3108.864956,12435.459826,-1991.848295
68.160574,148.041188,9548.656652,-4060.306139
68.160884,-0.000000,8512.368333,-3907.087040
68.161193,1628.453072,8660.409521,-2068.457845
68.161503,1702.473667,10955.047942,1532.190996
68.161812,2368.659014,9696.697840,6205.373534
68.162122,1776.494261,8142.265362,4290.134789
68.162431,-222.061783,8586.388927,766.095498
68.162741,-1332.370696,7402.059420,0.000000
68.163050,-4219.173869,11621.233289,-3217.601092
68.163360,-2960.823768,12435.459826,-6128.763984
68.163669,-2146.597232,10584.944971,-10801.946522
68.163979,-1998.556043,8882.471304,-13330.061665
68.164288,-2442.679609,5625.565159,-9039.926876
68.164598,-296.082377,6365.771101,-1225.752797
68.164907,-1628.453072,7105.977043,8197.221829
68.165217,592.164754,7105.977043,11184.994271
68.165526,592.164754,4663.297435,4979.620737
68.165836,1554.432478,5033.400406,-3677.258390
68.166145,1628.453072,8586.388927,-7584.345430
68.166455,1406.391290,10732.986159,-8580.269578
68.166764,-1776.494261,13693.809927,-4290.134789
68.167074,-1850.514855,16062.468941,3217.601092
68.167383,-2886.803174,13101.645173,-2604.724693
68.167693,-888.247130,9474.636058,-6588.421283
68.168002,-1480.411884,8734.430116,-5669.106685
68.168311,1036.288319,8660.409521,-2681.334243
68.168621,4589.276840,8364.327145,76.609550
68.168930,2220.617826,10881.027347,5515.887586
68.169240,2442.679609,9770.718434,6971.469032
68.169549,1554.432478,9474.636058,1455.581446
68.169859,-74.020594,10214.842000,-2757.943793
68.170168,-1184.329507,11917.315666,-2145.067394
68.170478,-3330.926739,12805.562797,-4060.306139
68.170787,-3256.906145,11917.315666,-6358.592633
68.171097,-740.205942,9770.718434,-10725.336972
68.171406,592.164754,6291.750507,-12563.966167
68.171716,1184.329507,7105.977043,-5286.058936
68.172025,1258.350101,5995.668130,3294.210641
68.172335,962.267725,4737.318029,10955.165621
68.172644,1332.370696,4663.297435,10955.165621
68.172954,2368.659014,7402.059420,4366.744339
68.173263,1628.453072,6513.812290,-6205.373534
68.173573,2516.700203,9918.759623,-10112.460574
68.173882,148.041188,14063.912898,-6588.421283
68.174192,-2146.597232,16136.489536,2145.067394
68.174501,-2220.617826,15396.283594,1072.533697
68.174811,-1850.514855,11621.233289,-1838.629195
68.175120,444.123565,8068.244768,-6511.811733
68.175430,2220.617826,8956.491898,-6435.202183
68.175739,4811.338623,8216.285956,-995.924147
68.176048,2886.803174,11029.068536,4979.620737
68.176358,3478.967927,10955.047942,8197.221829
68.176667,2220.617826,10066.800811,6281.983084
68.176977,296.082377,8586.388927,2145.067394
68.177286,1554.432478,7698.141797,-1608.800546
68.177596,-74.020594,11103.089130,-4519.963438
68.177905,-3256.906145,11843.295072,-3217.601092
68.178215,-666.185348,10955.047942,-4903.011187
68.178524,1036.288319,9622.677246,-12563.966167
68.178834,-888.247130,7328.038826,-8044.002729
68.179143,-0.000000,7698.141797,2834.553343
68.179453,-148.041188,5329.482782,8273.831378
68.179762,2442.679609,7105.977043,8733.488677
68.180072,1332.370696,4515.256246,6588.421283
68.180381,-74.020594,5329.482782,383.047749
68.180691,962.267725,9178.553681,-6435.202183
68.181000,-518.144159,11695.253884,-7431.126331
68.181310,-1702.473667,15470.304188,-3447.429741
68.181619,-4441.235652,14508.036463,0.000000
68.181929,-3775.050304,13323.706956,-306.438199
68.182238,-814.226536,10066.800811,-5745.716235
68.182548,-0.000000,8216.285956,-7354.516781
68.182857,-1998.556043,8956.491898,1608.800546
68.183167,444.123565,8660.409521,5209.449386
68.183476,2220.617826,9474.636058,5975.544884
68.183785,2590.720797,9474.636058,3217.601092
68.184095,-1258.350101,9696.697840,1532.190996
68.184404,-2960.823768,10140.821405,-766.095498
68.184714,-592.164754,11103.089130,-3983.696590
68.185023,-2442.679609,11473.192101,-5975.544884
68.185333,-4293.194464,11177.109724,-3983.696590
68.185642,-1924.535449,9548.656652,-5975.544884
68.185952,-0.000000,7328.038826,-10725.336972
68.186261,814.226536,6513.812290,-6435.202183
68.186571,-518.144159,7550.100608,3217.601092
68.186880,-1110.308913,5921.647536,9346.365076
68.187190,1184.329507,8808.450710,7048.078582
68.187499,2368.659014,5477.523971,383.047749
68.187809,1702.473667,7772.162391,-6281.983084
68.188118,1924.535449,10807.006753,-7201.297681
68.188428,-148.041188,10510.924376,-5209.449386
68.188737,444.123565,15692.365970,-2221.676944
68.189047,-2368.659014,12583.501014,2221.676944
68.189356,-740.205942,9622.677246,-1455.581446
68.189666,666.185348,7698.141797,-8656.879127
68.189975,-888.247130,8660.409521,-6665.030833
68.190285,4145.153275,9252.574275,-842.705048
68.190594,2368.659014,10140.821405,3753.867940
68.190904,2664.741391,10436.903782,5669.106685
68.191213,1480.411884,8586.388927,4519.963438
68.191522,2220.617826,6365.771101,-1302.362347
68.191832,1406.391290,9474.636058,-3140.991542
68.192141,-518.144159,11695.253884,-3064.381992
68.192451,-1776.494261,11769.274478,-5056.230287
68.192760,-1036.288319,10510.924376,-4903.011187
68.193070,-0.000000,7994.224174,-10801.946522
68.193379,296.082377,6217.729913,-8503.660028
68.193689,1924.535449,7105.977043,-766.095498
68.193998,1110.308913,6957.935855,8044.002729
68.194308,-222.061783,9696.697840,14172.766713
68.194617,1110.308913,6069.688724,6052.154434
68.194927,296.082377,5403.503377,-2298.286494
68.195236,2516.700203,9918.759623,-8656.879127
68.195546,3182.885551,11843.295072,-9806.022374
68.195855,-740.205942,14656.077652,-1302.362347
68.196165,-3849.070898,14952.160028,6741.640382
68.196474,-2442.679609,12509.480420,2528.115143
68.196784,740.205942,7328.038826,-6665.030833
68.197093,962.267725,7624.121203,-8427.050478
68.197403,592.164754,8882.471304,-3064.381992
68.197712,2738.761985,11251.130318,1302.362347
68.198022,2368.659014,11325.150913,5898.935335
68.198331,222.061783,8882.471304,8273.831378
68.198641,-444.123565,8068.244768,4826.401637
68.198950,-1332.370696,7402.059420,-459.657299
68.199259,-1554.432478,11325.150913,-3524.039291
68.199569,-2886.803174,11843.295072,-3983.696590
68.199878,-1702.473667,12583.501014,-5592.497135
68.200188,-1332.370696,8142.265362,-8120.612279
68.200497,-370.102971,7179.997637,-8886.707777
68.200807,-2220.617826,8512.368333,-3524.039291
68.201116,-2368.659014,8512.368333,4673.182538
68.201426,-0.000000,8660.409521,6511.811733
68.201735,1036.288319,7105.977043,4903.011187
68.202045,1110.308913,6587.832884,-1762.019645
68.202354,-0.000000,6735.874072,-4979.620737
68.202664,962.267725,9030.512492,-6588.421283
68.202973,296.082377,11399.171507,-4519.963438
68.203283,-2664.741391,13989.892304,1838.629195
68.203592,-3182.885551,11621.233289,3524.039291
68.203902,-1184.329507,10436.903782,-3983.696590
68.204211,-666.185348,7328.038826,-9576.193725
68.204521,1184.329507,7402.059420,-7660.954980
68.204830,814.226536,10066.800811,76.609550
68.205140,2072.576638,10288.862594,4903.011187
68.205449,2368.659014,10362.883188,6971.469032
68.205759,-888.247130,8586.388927,5286.058936
68.206068,370.102971,8882.471304,0.000000
68.206378,1332.370696,9548.656652,-4519.963438
68.206687,148.041188,11547.212695,-5515.887586
68.206996,-1924.535449,11103.089130,-3524.039291
68.207306,-1258.350101,11029.068536,-5439.278036
68.207615,-1036.288319,7994.224174,-9422.974625
68.207925,740.205942,7254.018232,-7967.393179
68.208234,-296.082377,8586.388927,842.705048
68.208544,-2220.617826,9918.759623,10418.898773
68.208853,1480.411884,6439.791695,5745.716235
68.209163,2442.679609,4959.379811,2528.115143
68.209472,296.082377,4737.318029,-1991.848295
68.209782,1332.370696,7550.100608,-7201.297681
68.210091,2146.597232,11251.130318,-5515.887586
68.210401,518.144159,13101.645173,-1302.362347
68.210710,-518.144159,12435.459826,2451.505594
68.211020,-2072.576638,9696.697840,919.314598
68.211329,-2294.638420,8290.306550,0.000000
68.211639,962.267725,7105.977043,-8273.831378
68.211948,3108.864956,9992.780217,-4826.401637
68.212258,1110.308913,10584.944971,2528.115143
68.212567,2368.659014,10881.027347,7967.393179
68.212877,3182.885551,12731.542202,4903.011187
68.213186,-518.144159,8068.244768,4443.353888
68.213496,666.185348,10066.800811,-842.705048
68.213805,1110.308913,10807.006753,-4749.792088
68.214115,-1480.411884,13545.768739,-4596.572988
68.214424,-2220.617826,12213.398043,-4673.182538
68.214733,-296.082377,10436.903782,-6358.592633
68.215043,-74.020594,8808.450710,-8733.488677
68.215352,-962.267725,8808.450710,-2987.772442
68.215662,-444.123565,5773.606348,4673.182538
68.215971,-0.000000,6513.812290,7507.735880
68.216281,1702.473667,4515.256246,6205.373534
68.216590,-444.123565,4589.276840,2221.676944
68.216900,-0.000000,6069.688724,-2374.896044
68.217209,2442.679609,4737.318029,-6665.030833
68.217519,-0.000000,10658.965565,-3753.867940
68.217828,-3552.988522,14582.057057,2834.553343
68.218138,-3775.050304,11991.336260,2298.286494
68.218447,-1036.288319,9770.718434,-7124.688131
68.218757,-0.000000,9548.656652,-9422.974625
68.219066,-1998.556043,9844.739029,-5209.449386
68.219376,-666.185348,11103.089130,1838.629195
68.219685,1702.473667,12139.377449,4366.744339
68.219995,2886.803174,11991.336260,2528.115143
68.220304,-222.061783,10140.821405,6588.421283
68.220614,-1258.350101,8734.430116,2604.724693
68.220923,740.205942,11029.068536,-3907.087040
68.221233,222.061783,9474.636058,-5592.497135
68.221542,-3552.988522,11991.336260,-2221.676944
68.221852,-74.020594,11843.295072,-4213.525239
68.222161,-962.267725,9030.512492,-9116.536426
68.222471,-444.123565,9178.553681,-6128.763984
68.222780,-1554.432478,9252.574275,4673.182538
68.223089,296.082377,7476.080014,4136.915689
68.223399,1850.514855,7846.182985,5822.325785
68.223708,-0.000000,6809.894666,4673.182538
68.224018,296.082377,4959.379811,-689.485948
68.224327,2516.700203,7031.956449,-5362.668486
68.224637,2664.741391,9696.697840,-6511.811733
68.224946,-888.247130,11621.233289,-1149.143247
68.225256,-3997.112087,13619.789333,2681.334243
68.225565,-2294.638420,11621.233289,153.219100
68.225875,1406.391290,10140.821405,-8427.050478
68.226184,296.082377,9844.739029,-9806.022374
68.226494,444.123565,9474.636058,-3830.477490
68.226803,3108.864956,9696.697840,4136.915689
68.227113,5403.503377,10732.986159,4443.353888
68.227422,2368.659014,10214.842000,8733.488677
68.227732,1036.288319,7772.162391,5822.325785
68.228041,1184.329507,9474.636058,-1915.238745
68.228351,1776.494261,10881.027347,-6741.640382
68.228660,-1406.391290,12065.356855,-5898.935335
68.228970,-3182.885551,13249.686362,-4290.134789
68.229279,-888.247130,11621.233289,-7507.735880
68.229589,1480.411884,8586.388927,-10112.460574
68.229898,-740.205942,8068.244768,-4826.401637
68.230208,-518.144159,8142.265362,4596.572988
68.230517,1036.288319,6069.688724,8197.221829
68.230826,2368.659014,6069.688724,5592.497135
68.231136,2590.720797,3478.967927,1378.971896
68.231445,-518.144159,1850.514855,-6281.983084
68.231755,2072.576638,8216.285956,-5592.497135
68.232064,1110.308913,11325.150913,-4136.915689
68.232374,-1702.473667,13915.871710,766.095498
68.232683,-3849.070898,12361.439231,1149.143247
68.232993,-2886.803174,10214.842000,-6205.373534
68.233302,1036.288319,9696.697840,-11261.603821
68.233612,1628.453072,9252.574275,-8810.098227
68.233921,1184.329507,9918.759623,1455.581446
68.234231,-1480.411884,9400.615463,12793.794817
68.234541,3627.009116,9474.636058,9576.193725
68.234850,1776.494261,7105.977043,6281.983084
68.235160,-1406.391290,7772.162391,2987.772442
68.235469,1110.308913,9696.697840,-2528.115143
68.235779,-1480.411884,13323.706956,-8963.317327
68.236088,-1776.494261,13175.665768,-4596.572988
68.236398,-3108.864956,13101.645173,-5362.668486
68.236708,-1702.473667,9474.636058,-9729.412825
68.237017,-2664.741391,8512.368333,-5592.497135
68.237327,-2812.782580,8290.306550,1838.629195
68.237636,-0.000000,6661.853478,3524.039291
68.237946,2812.782580,6291.750507,6205.373534
68.238255,222.061783,4737.318029,6281.983084
68.238565,-1406.391290,4811.338623,4290.134789
68.238875,666.185348,6957.935855,-3907.087040
68.239184,-296.082377,10955.047942,-4903.011187
68.239494,-592.164754,13619.789333,-3447.429741
68.239803,-3627.009116,13175.665768,-1608.800546
68.240113,-3849.070898,11325.150913,-2911.162892
68.240423,-1110.308913,10732.986159,-9346.365076
68.240732,1776.494261,8586.388927,-10955.165621
68.241042,1332.370696,9400.615463,-3140.991542
68.241351,-444.123565,9918.759623,4749.792088
68.241661,2294.638420,9252.574275,10418.898773
68.241970,3034.844362,8660.409521,6818.249932
68.242280,962.267725,7179.997637,2145.067394
68.242590,1554.432478,9548.656652,-3064.381992
68.242899,3034.844362,9622.677246,-8886.707777
68.243209,-1332.370696,13619.789333,-5209.449386
68.243518,-2220.617826,13545.768739,-2834.553343
68.243828,-2072.576638,11621.233289,-7354.516781
68.244138,-222.061783,8512.368333,-7048.078582
68.244447,-1184.329507,8290.306550,-5439.278036
68.244757,296.082377,7994.224174,1532.190996
68.245066,1776.494261,5921.647536,5439.278036
68.245376,3034.844362,6661.853478,7277.907231
68.245685,1628.453072,5181.441594,459.657299
68.245995,740.205942,4145.153275,-2374.896044
68.246305,666.185348,8290.306550,-3370.820191
68.246614,740.205942,11695.253884,-4136.915689
68.246924,1036.288319,12953.603985,-3907.087040
68.247233,-3997.112087,12509.480420,-1915.238745
68.247543,-3034.844362,11177.109724,-4903.011187
68.247853,222.061783,9474.636058,-9882.631924
68.248162,1776.494261,9474.636058,-7584.345430
68.248472,3701.029710,9548.656652,-1685.410096
68.248781,1480.411884,8734.430116,9652.803275
68.249091,3701.029710,9548.656652,10035.851024
68.249400,1110.308913,7920.203579,4749.792088
68.249710,1406.391290,8512.368333,-1915.238745
68.250020,3701.029710,8290.306550,-5286.058936
68.250329,-2146.597232,12953.603985,-5745.716235
68.250639,-2146.597232,14804.118840,-2911.162892
68.250948,-2072.576638,13323.706956,-4749.792088
68.251258,-2664.741391,10658.965565,-7814.174080
68.251567,-1776.494261,6587.832884,-6358.592633
68.251877,148.041188,6735.874072,-1302.362347
68.252187,-370.102971,5403.503377,4979.620737
68.252496,-0.000000,6365.771101,8810.098227
68.252806,2220.617826,7920.203579,6281.983084
68.253115,1184.329507,4367.215058,-459.657299
68.253425,1036.288319,7179.997637,-2604.724693
68.253735,-1702.473667,11029.068536,-2528.115143
68.254044,-2442.679609,13471.748144,-3524.039291
68.254354,-2960.823768,14211.954086,-2451.505594
68.254663,-3478.967927,13027.624579,-5515.887586
68.254973,-1998.556043,10066.800811,-9652.803275
68.255282,-444.123565,9992.780217,-7507.735880
68.255592,888.247130,9992.780217,0.000000
68.255902,2516.700203,9178.553681,5362.668486
68.256211,1480.411884,7698.141797,10495.508323
68.256521,-148.041188,7179.997637,10801.946522
68.256830,1628.453072,7105.977043,2451.505594
68.257140,-0.000000,8364.327145,-9806.022374
68.257450,-592.164754,10881.027347,-6741.640382
68.257759,-3849.070898,13027.624579,-3294.210641
68.258069,-2812.782580,14804.118840,-5132.839837
68.258378,-370.102971,13027.624579,-8503.660028
68.258688,-1924.535449,9992.780217,-6358.592633
68.258997,-518.144159,6735.874072,-2451.505594
68.259307,814.226536,6365.771101,2374.896044
68.259617,1924.535449,6587.832884,6511.811733
68.259926,2516.700203,7476.080014,8810.098227
68.260236,518.144159,4441.235652,2068.457845
68.260545,1702.473667,6513.812290,-2987.772442
68.260855,518.144159,8364.327145,-6128.763984
68.261165,-1036.288319,12287.418637,-5209.449386
68.261474,-3256.906145,13323.706956,0.000000
68.261784,-2738.761985,12657.521608,-3140.991542
68.262093,-0.000000,10584.944971,-9269.755526
68.262403,296.082377,6661.853478,-9652.803275
68.262712,666.185348,8290.306550,-3294.210641
68.263022,2146.597232,9474.636058,3140.991542
68.263332,4071.132681,9474.636058,6818.249932
68.263641,2812.782580,9474.636058,8580.269578
68.263951,1258.350101,8734.430116,4443.353888
68.264260,2294.638420,9252.574275,-6894.859482
68.264570,2146.597232,11473.192101,-8273.831378
68.264879,-444.123565,12805.562797,-5745.716235
68.265189,-2812.782580,13175.665768,-2221.676944
68.265499,-1702.473667,11695.253884,-4136.915689
68.265808,-1702.473667,12287.418637,-6741.640382
68.266118,296.082377,9252.574275,-7277.907231
68.266427,814.226536,7624.121203,-1608.800546
68.266737,-370.102971,6661.853478,4826.401637
68.267047,3108.864956,7105.977043,4596.572988
68.267356,2146.597232,6365.771101,4673.182538
68.267666,-814.226536,4737.318029,1991.848295
68.267975,740.205942,7328.038826,-1991.848295
68.268285,1850.514855,10510.924376,-7660.954980
68.268594,-1776.494261,11325.150913,-5209.449386
68.268904,-3182.885551,14285.974681,-459.657299
68.269214,-1998.556043,10140.821405,-4673.182538
68.269523,592.164754,9030.512492,-10418.898773
68.269833,-444.123565,7550.100608,-5745.716235
68.270142,-0.000000,7624.121203,2911.162892
68.270452,2072.576638,7031.956449,7354.516781
68.270762,3182.885551,9178.553681,8886.707777
68.271071,1110.308913,8660.409521,7048.078582
68.271381,-0.000000,6069.688724,3600.648841
68.271690,1628.453072,11103.089130,-5745.716235
68.272000,-1258.350101,13101.645173,-7048.078582
68.272309,-1554.432478,13915.871710,-3140.991542
68.272619,-3849.070898,14137.933492,-1455.581446
68.272929,-2368.659014,11843.295072,-4749.792088
68.273238,-296.082377,8808.450710,-7890.783629
68.273548,-2368.659014,7105.977043,-4903.011187
68.273857,-74.020594,8216.285956,2221.676944
68.274167,1554.432478,7031.956449,5515.887586
68.274476,2812.782580,7550.100608,5132.839837
68.274786,-1184.329507,5699.585753,5209.449386
68.275096,-296.082377,5477.523971,-383.047749
68.275405,-962.267725,8364.327145,-6818.249932
68.275715,-1332.370696,11547.212695,-8120.612279
68.276024,-2442.679609,13545.768739,-2528.115143
68.276334,-3923.091493,12287.418637,-3524.039291
68.276644,222.061783,10288.862594,-8197.221829
68.276953,-0.000000,8290.306550,-8120.612279
68.277263,-1110.308913,8882.471304,-1225.752797
68.277572,740.205942,7846.182985,6052.154434
68.277882,1776.494261,8956.491898,7584.345430
68.278191,3404.947333,9770.718434,4903.011187
68.278501,5255.462188,7550.100608,1762.019645
68.278811,1184.329507,9548.656652,-4213.525239
68.279120,-0.000000,10658.965565,-5592.497135
68.279430,518.144159,12657.521608,-4366.744339
68.279739,-2738.761985,12805.562797,-1149.143247
68.280049,-4663.297435,13915.871710,-2834.553343
68.280359,-296.082377,9252.574275,-7354.516781
68.280668,1036.288319,8364.327145,-10112.460574
68.280978,1628.453072,6439.791695,-4136.915689
68.281287,370.102971,6291.750507,4290.134789
68.281597,2442.679609,8586.388927,7814.174080
68.281906,2072.576638,7179.997637,5439.278036
68.282216,740.205942,4737.318029,-1378.971896
68.282526,-444.123565,7402.059420,-3753.867940
68.282835,-1480.411884,9622.677246,-9346.365076
68.283145,148.041188,9918.759623,-6128.763984
68.283454,-740.205942,12509.480420,-4136.915689
68.283764,-1702.473667,9918.759623,-4596.572988
68.284074,-518.144159,9400.615463,-7277.907231
68.284383,-0.000000,8586.388927,-5975.544884
68.284693,740.205942,9252.574275,-383.047749
68.285002,2146.597232,10140.821405,5362.668486
68.285312,2368.659014,10214.842000,6894.859482
68.285621,1850.514855,6365.771101,5439.278036
68.285931,1628.453072,8364.327145,-1532.190996
68.286241,1776.494261,10214.842000,-4979.620737
68.286550,-1036.288319,10807.006753,-3753.867940
68.286860,-1332.370696,13767.830521,0.000000
68.287169,-1924.535449,14508.036463,-2834.553343
68.287479,-2442.679609,11251.130318,-6128.763984
68.287788,-592.164754,8142.265362,-6588.421283
68.288098,-370.102971,7105.977043,-5362.668486
68.288408,1036.288319,8142.265362,3600.648841
68.288717,1554.432478,7328.038826,6971.469032
68.289027,814.226536,7105.977043,8273.831378
68.289336,-888.247130,6217.729913,5286.058936
68.289646,-0.000000,7179.997637,-766.095498
68.289956,2220.617826,6587.832884,-6665.030833
68.290265,-222.061783,10807.006753,-5745.716235
68.290575,-2368.659014,13249.686362,-3447.429741
68.290884,-1184.329507,11917.315666,-4213.525239
68.291194,-1480.411884,10510.924376,-6358.592633
68.291503,-814.226536,9918.759623,-5132.839837
68.291813,-962.267725,8068.244768,1915.238745
68.292123,-148.041188,9104.533087,5439.278036
68.292432,1110.308913,10214.842000,6741.640382
68.292742,518.144159,9474.636058,1685.410096
68.293051,1406.391290,9474.636058,-2681.334243
68.293361,1258.350101,10510.924376,-5592.497135
68.293671,444.123565,11621.233289,-4213.525239
68.293980,-1776.494261,12657.521608,0.000000
68.294290,-888.247130,9252.574275,-919.314598
68.294599,-2886.803174,10362.883188,-1532.190996
68.294909,-1110.308913,9030.512492,-8273.831378
68.295218,592.164754,7698.141797,-10725.336972
68.295528,-74.020594,9548.656652,-3907.087040
68.295838,1850.514855,8438.347739,3294.210641
68.296147,1110.308913,7105.977043,8044.002729
68.296457,592.164754,6587.832884,8044.002729
68.296766,-888.247130,5255.462188,3447.429741
68.297076,74.020594,7550.100608,-1455.581446
68.297385,592.164754,8882.471304,-7584.345430
68.297695,-666.185348,11473.192101,-6128.763984
68.298005,-1110.308913,14137.933492,-2604.724693
68.298314,-0.000000,11695.253884,-5286.058936
68.298624,-962.267725,9918.759623,-7354.516781
68.298933,-1776.494261,9400.615463,-1072.533697
68.299243,-0.000000,9252.574275,3294.210641
68.299553,1702.473667,10214.842000,4136.915689
68.299862,1776.494261,8586.388927,6052.154434
68.300172,1110.308913,6809.894666,2298.286494
68.300481,2664.741391,7031.956449,-3830.477490
68.300791,1776.494261,9770.718434,-4673.182538
68.301100,-0.000000,11029.068536,-612.876398
68.301410,666.185348,12509.480420,306.438199
68.301720,-2738.761985,11843.295072,-1378.971896
68.302029,-1628.453072,10510.924376,-5132.839837
68.302339,-0.000000,7846.182985,-10495.508323
68.302648,1702.473667,7846.182985,-10035.851024
68.302958,888.247130,9030.512492,-383.047749
68.303268,1628.453072,8660.409521,7584.345430
68.303577,740.205942,7772.162391,9193.145976
68.303887,-666.185348,6513.812290,5898.935335
68.304196,444.123565,5403.503377,-459.657299
68.304506,1258.350101,9104.533087,-6818.249932
68.304815,1184.329507,10807.006753,-9116.536426
68.305125,-592.164754,12657.521608,-5209.449386
68.305435,-1998.556043,12213.398043,-2834.553343
68.305744,-222.061783,12139.377449,-5745.716235
68.306054,-1036.288319,9770.718434,-3524.039291
68.306363,-444.123565,9030.512492,1685.410096
68.306673,-0.000000,9400.615463,4519.963438
68.306983,1850.514855,9030.512492,4443.353888
68.307292,4071.132681,7105.977043,2145.067394
68.307602,888.247130,7105.977043,-153.219100
68.307911,888.247130,8734.430116,-1762.019645
68.308221,444.123565,10288.862594,-1302.362347
68.308530,-2368.659014,12435.459826,2911.162892
68.308840,-2960.823768,13471.748144,612.876398
68.309150,-3478.967927,10955.047942,-2987.772442
68.309459,-814.226536,9104.533087,-10648.727422
68.309769,592.164754,8734.430116,-12793.794817
68.310078,-1332.370696,10066.800811,-3983.696590
68.310388,-1110.308913,8290.306550,7277.907231
68.310697,1776.494261,8586.388927,9193.145976
68.311007,740.205942,6661.853478,8273.831378
68.311317,-1406.391290,6661.853478,4290.134789
68.311626,-0.000000,7179.997637,-3217.601092
68.311936,1998.556043,9326.594869,-10112.460574
68.312245,-592.164754,11695.253884,-7431.126331
68.312555,-3775.050304,13915.871710,-2604.724693
68.312865,-2072.576638,11695.253884,-2681.334243
68.313174,-962.267725,11917.315666,-5975.544884
68.313484,-1554.432478,10955.047942,-1838.629195
68.313793,-666.185348,9400.615463,2145.067394
68.314103,1480.411884,7550.100608,2987.772442
68.314412,2146.597232,7179.997637,3064.381992
68.314722,2146.597232,6217.729913,1072.533697
68.315032,1406.391290,7550.100608,-1225.752797
68.315341,1406.391290,9696.697840,-2145.067394
68.315651,-740.205942,12361.439231,-2681.334243
68.315960,-2294.638420,14211.954086,229.828649
68.316270,-3108.864956,11695.253884,-2145.067394
68.316580,-2294.638420,10288.862594,-9346.365076
68.316889,962.267725,9252.574275,-13253.452115
68.317199,814.226536,7179.997637,-9806.022374
68.317508,1480.411884,9844.739029,1378.971896
68.317818,1554.432478,7624.121203,9882.631924
68.318127,1702.473667,6217.729913,11031.775171
68.318437,666.185348,4589.276840,7507.735880
68.318747,518.144159,5477.523971,0.000000
68.319056,2886.803174,9030.512492,-7584.345430
68.319366,1258.350101,12361.439231,-9269.755526
68.319675,-0.000000,15174.221811,-3830.477490
68.319985,-2590.720797,10510.924376,-5975.544884
68.320295,-1258.350101,11843.295072,-6205.373534
68.320604,-2516.700203,10066.800811,-4979.620737
68.320914,-1184.329507,9622.677246,-536.266849
68.321223,2960.823768,10362.883188,1072.533697
68.321533,2960.823768,8660.409521,2757.943793
68.321842,2516.700203,7698.141797,4749.792088
68.322152,888.247130,5551.544565,3064.381992
68.322462,2220.617826,5921.647536,-919.314598
68.322771,-2368.659014,6809.894666,2374.896044
68.323081,-1998.556043,11991.336260,995.924147
68.323390,-1406.391290,12287.418637,0.000000
68.323700,-2738.761985,12953.603985,-6741.640382
68.324009,-814.226536,11177.109724,-13100.233016
68.324319,-814.226536,7846.182985,-12257.527968
68.324629,-444.123565,7846.182985,-4290.134789
68.324938,740.205942,8586.388927,6358.592633
68.325248,2368.659014,7846.182985,11951.089769
68.325557,2146.597232,6587.832884,9116.536426
68.325867,-1406.391290,3775.050304,6052.154434
68.326177,1998.556043,6957.935855,-2987.772442
68.326486,3256.906145,9474.636058,-9576.193725
68.326796,-1036.288319,12139.377449,-6588.421283
68.327105,-2072.576638,15396.283594,1225.752797
68.327415,-1924.535449,13175.665768,-3677.258390
68.327724,-3182.885551,12065.356855,-6358.592633
68.328034,-2368.659014,9844.739029,-2451.505594
68.328344,-666.185348,8586.388927,459.657299
68.328653,3256.906145,9400.615463,2834.553343
68.328963,1776.494261,7624.121203,6358.592633
68.329272,740.205942,7402.059420,4903.011187
68.329582,2146.597232,5329.482782,0.000000
68.329892,296.082377,9770.718434,-612.876398
68.330201,-2294.638420,11547.212695,1072.533697
68.330511,-2220.617826,12361.439231,-383.047749
68.330820,-2738.761985,13619.789333,-5286.058936
68.331130,-2738.761985,12139.377449,-10265.679673
68.331439,-1332.370696,7105.977043,-13559.890315
68.331749,-0.000000,8364.327145,-10112.460574
68.332059,370.102971,9178.553681,995.924147
68.332368,-0.000000,7920.203579,12257.527968
68.332678,3034.844362,5551.544565,9576.193725
68.332987,1554.432478,2812.782580,5669.106685
68.333297,-814.226536,4219.173869,1225.752797
68.333606,2812.782580,9474.636058,-6205.373534
68.333916,1628.453072,11621.233289,-12334.137518
68.334225,-1332.370696,13989.892304,-8810.098227
68.334535,-3182.885551,15026.180623,-842.705048
68.334844,-3108.864956,11917.315666,-3064.381992
68.335154,-370.102971,10658.965565,-5515.887586
68.335463,-592.164754,10881.027347,-1762.019645
68.335773,1628.453072,9992.780217,1149.143247
68.336082,3849.070898,8290.306550,3983.696590
68.336391,3404.947333,6513.812290,3600.648841
68.336701,2442.679609,6291.750507,2451.505594
68.337010,962.267725,9474.636058,1072.533697
68.337320,666.185348,9326.594869,-612.876398
68.337629,-1036.288319,11399.171507,-842.705048
68.337939,-2368.659014,14063.912898,-2068.457845
68.338248,-3034.844362,12139.377449,-7584.345430
68.338558,444.123565,9104.533087,-13023.623466
68.338867,-296.082377,8142.265362,-12563.966167
68.339177,814.226536,7550.100608,-3217.601092
68.339486,1480.411884,7402.059420,7584.345430
68.339796,1776.494261,7698.141797,13176.842566
68.340105,2146.597232,5329.482782,11031.775171
68.340415,740.205942,3849.070898,3447.429741
68.340724,1924.535449,7846.182985,-6435.202183
68.341034,3034.844362,11325.150913,-10955.165621
68.341343,-444.123565,13397.727550,-7584.345430
68.341653,-3182.885551,15692.365970,-1991.848295
68.341962,-1332.370696,13989.892304,-4213.525239
68.342272,-1702.473667,11843.295072,-5975.544884
68.342581,-1110.308913,10807.006753,-1915.238745
68.342891,-0.000000,9992.780217,1149.143247
68.343200,3552.988522,5921.647536,3217.601092
68.343509,4071.132681,6513.812290,4979.620737
68.343819,1332.370696,5921.647536,7048.078582
68.344128,1480.411884,7550.100608,766.095498
68.344438,444.123565,10066.800811,-1608.800546
68.344747,-74.020594,12731.542202,-1302.362347
68.345057,-4367.215058,14211.954086,-919.314598
68.345366,-4219.173869,13323.706956,-5669.106685
68.345676,-1184.329507,11399.171507,-10418.898773
68.345985,-2368.659014,8438.347739,-14555.814462
68.346295,-666.185348,7846.182985,-6281.983084
68.346604,-740.205942,7254.018232,5515.887586
68.346914,1332.370696,6587.832884,11874.480219
68.347223,2146.597232,6069.688724,13176.842566
68.347533,-1628.453072,3404.947333,7967.393179
68.347842,-740.205942,4219.173869,-1915.238745
68.348152,2960.823768,9030.512492,-11414.822920
68.348461,2886.803174,12287.418637,-10342.289223
68.348771,-2960.823768,15026.180623,-2834.553343
68.349080,-3034.844362,15100.201217,0.000000
68.349390,-2442.679609,11843.295072,-4903.011187
68.349699,-1110.308913,10362.883188,-5056.230287
68.350009,-1776.494261,8586.388927,-1455.581446
68.350318,1628.453072,9178.553681,919.314598
68.350627,4071.132681,10066.800811,2987.772442
68.350937,3552.988522,7698.141797,4290.134789
68.351246,3108.864956,7402.059420,153.219100
68.351556,-1184.329507,8142.265362,1762.019645
68.351865,-888.247130,11029.068536,0.000000
68.352175,-888.247130,13545.768739,-3140.991542
68.352484,-2072.576638,13915.871710,-5515.887586
68.352794,-0.000000,10658.965565,-7507.735880
68.353103,-1924.535449,8142.265362,-12793.794817
68.353413,148.041188,5699.585753,-10418.898773
68.353722,-148.041188,7105.977043,-612.876398
68.354032,370.102971,6513.812290,8427.050478
68.354341,3478.967927,5921.647536,13636.499864
68.354651,1702.473667,4589.276840,10189.070123
68.354960,-2590.720797,3923.091493,1991.848295
68.355270,3182.885551,8068.244768,-6741.640382
68.355579,4811.338623,11399.171507,-13483.280765
68.355889,-2664.741391,13101.645173,-7890.783629
68.356198,-2812.782580,15692.365970,2604.724693
68.356508,-3997.112087,13175.665768,-229.828649
68.356817,-962.267725,11029.068536,-7507.735880
68.357127,370.102971,10732.986159,-4979.620737
68.357436,-74.020594,8216.285956,-1225.752797
68.357745,3997.112087,9400.615463,0.000000
68.358055,4293.194464,8438.347739,4673.182538
68.358364,2294.638420,6513.812290,5745.716235
68.358674,1332.370696,7328.038826,2298.286494
68.358983,-296.082377,7402.059420,1685.410096
68.359293,-1776.494261,11843.295072,-689.485948
68.359602,-370.102971,13323.706956,-5362.668486
68.359912,-740.205942,13397.727550,-5209.449386
68.360221,-1184.329507,10214.842000,-10801.946522
68.360531,-1184.329507,7772.162391,-11721.261119
68.360840,592.164754,7328.038826,-5592.497135
68.361150,-518.144159,5921.647536,6052.154434
68.361459,-0.000000,7624.121203,13406.671215
68.361769,2368.659014,6587.832884,11184.994271
68.362078,-0.000000,4811.338623,3677.258390
68.362388,962.267725,6587.832884,-4213.525239
68.362697,4367.215058,9992.780217,-10112.460574
68.363007,-222.061783,11917.315666,-8733.488677
68.363316,-2886.803174,15988.448347,-306.438199
68.363626,-2368.659014,15544.324782,-842.705048
68.363935,-3404.947333,11103.089130,-3447.429741
68.364245,-2072.576638,7179.997637,-3983.696590
68.364554,-222.061783,9178.553681,-1838.629195
68.364863,2664.741391,7698.141797,-2451.505594
68.365173,2590.720797,7920.203579,2681.334243
68.365482,-222.061783,9104.533087,6052.154434
68.365792,370.102971,9770.718434,4903.011187
68.366101,-74.020594,9030.512492,-2374.896044
68.366411,-2442.679609,11547.212695,-2528.115143
68.366720,-2146.597232,11251.130318,-1838.629195
68.367030,-3775.050304,8142.265362,-6971.469032
68.367339,-1702.473667,11991.336260,-9193.145976
68.367649,-1628.453072,8512.368333,-10342.289223
68.367958,-370.102971,7402.059420,-8580.269578
68.368268,-148.041188,8438.347739,-766.095498
68.368577,-814.226536,9474.636058,8580.269578
68.368887,888.247130,7624.121203,11644.651570
68.369196,740.205942,5773.606348,4136.915689
68.369506,-0.000000,5329.482782,-1991.848295
68.369815,2368.659014,9104.533087,-8503.660028
68.370125,1480.411884,11917.315666,-11951.089769
68.370434,-592.164754,13249.686362,-3677.258390
68.370744,-2590.720797,15396.283594,3830.477490
68.371053,-1554.432478,11103.089130,-536.266849
68.371362,-592.164754,7772.162391,-5439.278036
68.371672,-1998.556043,10066.800811,-2757.943793
68.371981,3034.844362,7994.224174,-3217.601092
68.372291,5329.482782,10362.883188,-2374.896044
68.372600,1480.411884,9400.615463,4979.620737
68.372910,-0.000000,5551.544565,8656.879127
68.373219,1110.308913,8216.285956,1838.629195
68.373529,1036.288319,9770.718434,-2298.286494
68.373838,-370.102971,10732.986159,-995.924147
68.374148,1406.391290,11843.295072,-7354.516781
68.374457,-1850.514855,10807.006753,-8273.831378
68.374767,-1110.308913,10807.006753,-9269.755526
68.375076,-592.164754,8142.265362,-10189.070123
68.375386,666.185348,7624.121203,-7048.078582
68.375695,-2442.679609,9474.636058,3677.258390
68.376005,1110.308913,6735.874072,12180.918418
68.376314,2886.803174,5773.606348,6894.859482
68.376624,518.144159,4589.276840,1455.581446
68.376933,1332.370696,6661.853478,-3064.381992
68.377243,4367.215058,9030.512492,-9269.755526
68.377552,1998.556043,12657.521608,-8656.879127
68.377862,-1480.411884,14952.160028,612.876398
68.378171,-2294.638420,14582.057057,2374.896044
68.378480,-1480.411884,14434.015869,-3830.477490
68.378790,-1406.391290,10436.903782,-5745.716235
68.379099,518.144159,9178.553681,-3753.867940
68.379409,2368.659014,9770.718434,-1991.848295
68.379718,2886.803174,9178.553681,3830.477490
68.380028,2368.659014,8216.285956,8810.098227
68.380337,444.123565,8364.327145,5975.544884
68.380647,444.123565,7772.162391,1378.971896
68.380956,-814.226536,9400.615463,-689.485948
68.381266,-2516.700203,11843.295072,-3524.039291
68.381575,-1110.308913,11695.253884,-7584.345430
68.381885,-2664.741391,11251.130318,-8963.317327
68.382194,-2886.803174,8734.430116,-8273.831378
68.382504,-222.061783,8364.327145,-6818.249932
68.382813,-1628.453072,9104.533087,689.485948
68.383123,-0.000000,7105.977043,10112.460574
68.383432,296.082377,7031.956449,10648.727422
68.383742,962.267725,5181.441594,3217.601092
68.384051,666.185348,4219.173869,-4903.011187
68.384361,1258.350101,7624.121203,-8886.707777
68.384670,1110.308913,10140.821405,-8963.317327
68.384980,-0.000000,12657.521608,-2221.676944
68.385289,-3182.885551,13545.768739,3217.601092
68.385598,-4737.318029,13027.624579,-3140.991542
68.385908,-888.247130,10807.006753,-5209.449386
68.386217,444.123565,10436.903782,-7431.126331
68.386527,2886.803174,9474.636058,-3983.696590
68.386836,2590.720797,9918.759623,612.876398
68.387146,2886.803174,10362.883188,4979.620737
68.387455,148.041188,9474.636058,7048.078582
68.387765,-370.102971,9770.718434,3370.820191
68.388074,1480.411884,9844.739029,-2068.457845
68.388384,-148.041188,10881.027347,-4366.744339
68.388693,-1480.411884,10436.903782,-2528.115143
68.389003,-666.185348,11695.253884,-4979.620737
68.389312,-2516.700203,9696.697840,-9193.145976
68.389622,-592.164754,8364.327145,-9806.022374
68.389931,-1480.411884,8882.471304,-5132.839837
68.390241,518.144159,8068.244768,3370.820191
68.390550,1184.329507,7402.059420,8273.831378
68.390860,666.185348,5477.523971,7890.783629
68.391169,-518.144159,3775.050304,1072.533697
68.391479,2442.679609,4811.338623,-6741.640382
68.391788,1924.535449,8734.430116,-9499.584175
68.392098,1332.370696,12213.398043,-4673.182538
68.392407,-2146.597232,12731.542202,2145.067394
68.392716,-2886.803174,13989.892304,-766.095498
68.393026,-1480.411884,12287.418637,-2834.553343
68.393335,222.061783,9844.739029,-8427.050478
68.393645,1702.473667,9474.636058,-8810.098227
68.393954,2886.803174,11029.068536,-3217.601092
68.394264,2072.576638,10732.986159,1991.848295
68.394573,2664.741391,10584.944971,7890.783629
68.394883,888.247130,9252.574275,6818.249932
68.395192,-74.020594,7772.162391,2681.334243
68.395502,2368.659014,10140.821405,689.485948
68.395811,518.144159,11843.295072,-5439.278036
68.396121,-740.205942,11177.109724,-5056.230287
68.396430,-2738.761985,11399.171507,-6741.640382
68.396740,-2294.638420,9622.677246,-8427.050478
68.397049,-1998.556043,10066.800811,-4826.401637
68.397359,-1480.411884,9326.594869,-995.924147
68.397668,-0.000000,6291.750507,6128.763984
68.397978,518.144159,6069.688724,9269.755526
68.398287,962.267725,4441.235652,4443.353888
68.398597,1628.453072,3256.906145,-3524.039291
68.398906,-370.102971,5403.503377,-4826.401637
68.399216,-0.000000,10362.883188,-3983.696590
68.399525,-0.000000,12657.521608,-1685.410096
68.399834,-74.020594,15396.283594,2834.553343
68.400144,-3849.070898,13471.748144,-1072.533697
68.400453,-1628.453072,10288.862594,-6818.249932
68.400763,1036.288319,8808.450710,-7660.954980
68.401072,-222.061783,10510.924376,-2757.943793
68.401382,1628.453072,8586.388927,3830.477490
68.401691,3182.885551,10140.821405,6281.983084
68.402001,-148.041188,8808.450710,6588.421283
68.402310,444.123565,9622.677246,3830.477490
68.402620,1702.473667,10658.965565,-1991.848295
68.402929,1480.411884,10955.047942,-5745.716235
68.403239,-1184.329507,11473.192101,-2757.943793
68.403548,-3330.926739,11991.336260,-2451.505594
68.403858,-1702.473667,12287.418637,-8197.221829
68.404167,-0.000000,9252.574275,-10725.336972
68.404477,-1258.350101,8882.471304,-4366.744339
68.404786,-666.185348,6957.935855,3140.991542
68.405096,1406.391290,5847.626942,7201.297681
68.405405,1480.411884,5403.503377,5822.325785
68.405715,888.247130,2664.741391,1915.238745
68.406024,-518.144159,4367.215058,-1378.971896
68.406334,-0.000000,9844.739029,-3677.258390
68.406643,962.267725,11917.315666,-4826.401637
68.406952,-2368.659014,14508.036463,-7354.516781
68.407262,-3478.967927,13767.830521,-459.657299
68.407571,-1776.494261,10807.006753,-4979.620737
68.407881,-370.102971,10288.862594,-9806.022374
68.408190,592.164754,10288.862594,-5745.716235
68.408500,3256.906145,9844.739029,2451.505594
68.408809,888.247130,8586.388927,6971.469032
68.409119,2368.659014,8068.244768,9652.803275
68.409428,1184.329507,6957.935855,4903.011187
68.409738,2368.659014,7846.182985,459.657299
68.410047,1702.473667,8882.471304,-3447.429741
68.410357,-444.123565,11621.233289,-5056.230287
68.410666,-1036.288319,14434.015869,-5439.278036
68.410976,-2590.720797,13619.789333,-6052.154434
68.411285,-4737.318029,11991.336260,-6894.859482
68.411595,-74.020594,9992.780217,-8120.612279
68.411904,1258.350101,8512.368333,-1991.848295
68.412214,814.226536,7031.956449,6741.640382
68.412523,2812.782580,6217.729913,9193.145976
68.412833,1332.370696,4589.276840,5745.716235
68.413142,814.226536,3330.926739,919.314598
68.413451,296.082377,6883.915261,-3524.039291
68.413761,1184.329507,10288.862594,-7048.078582
68.414070,518.144159,15322.262999,-4060.306139
68.414380,-2146.597232,15174.221811,-689.485948
68.414689,-2294.638420,13767.830521,-2068.457845
68.414999,-1924.535449,9696.697840,-6741.640382
68.415308,-0.000000,9844.739029,-5592.497135
68.415618,3108.864956,10288.862594,-1838.629195
68.415927,3330.926739,8142.265362,3524.039291
68.416237,1110.308913,8364.327145,8427.050478
68.416546,2146.597232,7698.141797,8656.879127
68.416856,2516.700203,7476.080014,1532.190996
68.417165,666.185348,8586.388927,-2911.162892
68.417475,-1628.453072,11473.192101,-1915.238745
68.417784,-2220.617826,14211.954086,-3064.381992
68.418094,-2442.679609,12879.583391,-7201.297681
68.418403,-740.205942,12139.377449,-9882.631924
68.418713,-1406.391290,9400.615463,-7967.393179
68.419022,222.061783,8512.368333,-4290.134789
68.419332,296.082377,8142.265362,3753.867940
68.419641,148.041188,5921.647536,9882.631924
68.419951,1480.411884,5181.441594,9116.536426
68.420260,222.061783,3923.091493,2068.457845
68.420569,222.061783,4293.194464,-2757.943793
68.420879,1184.329507,8956.491898,-6281.983084
68.421188,444.123565,12657.521608,-4136.915689
68.421498,-2220.617826,15100.201217,-1225.752797
68.421807,-3404.947333,13471.748144,-2834.553343
68.422117,-2368.659014,11621.233289,-8427.050478
68.422426,-1036.288319,11177.109724,-8810.098227
68.422736,-1332.370696,10140.821405,-7124.688131
68.423045,2368.659014,7846.182985,536.266849
68.423355,2960.823768,7920.203579,8044.002729
68.423664,1406.391290,7254.018232,11338.213370
68.423974,1332.370696,6587.832884,6052.154434
68.424283,2812.782580,6735.874072,-2451.505594
68.424593,962.267725,10658.965565,-5056.230287
68.424902,-2368.659014,13693.809927,-4749.792088
68.425212,-3552.988522,13323.706956,-3600.648841
68.425521,-888.247130,13175.665768,-8120.612279
68.425831,-518.144159,11621.233289,-12027.699319
68.426140,-1406.391290,9844.739029,-7048.078582
68.426450,-0.000000,8364.327145,1685.410096
68.426759,2442.679609,6291.750507,6128.763984
68.427069,2886.803174,5625.565159,6052.154434
68.427378,-0.000000,2516.700203,9576.193725
68.427687,-1184.329507,3108.864956,4749.792088
68.427997,1776.494261,7550.100608,-5898.935335
68.428306,3552.988522,11843.295072,-7814.174080
68.428616,-1406.391290,15618.345376,-4979.620737
68.428925,-4145.153275,13323.706956,-1149.143247
68.429235,-2368.659014,12287.418637,-4366.744339
68.429544,-1184.329507,10955.047942,-9729.412825
68.429854,-74.020594,9474.636058,-12947.013916
68.430163,1258.350101,8438.347739,-1302.362347
68.430473,3108.864956,8956.491898,6205.373534
68.430782,3923.091493,8586.388927,8350.440928
68.431092,3256.906145,6735.874072,8656.879127
68.431401,962.267725,6587.832884,4443.353888
68.431711,814.226536,8808.450710,-1225.752797
68.432020,1110.308913,12879.583391,-6435.202183
68.432330,-1776.494261,13989.892304,-7431.126331
68.432639,-4959.379811,15100.201217,-9193.145976
68.432949,-2368.659014,13545.768739,-9269.755526
68.433258,-222.061783,9548.656652,-10648.727422
68.433568,296.082377,7772.162391,-3983.696590
68.433877,296.082377,7179.997637,5286.058936
68.434187,1480.411884,7179.997637,9116.536426
68.434496,3256.906145,4811.338623,8886.707777
68.434805,1110.308913,2960.823768,3830.477490
68.435124,222.061783,4219.173869,-842.705048
68.435434,1850.514855,8956.491898,-4366.744339
68.435743,-888.247130,11769.274478,-5975.544884
68.436053,-1850.514855,15840.407159,-3677.258390
68.436363,-2590.720797,13323.706956,-4213.525239
68.436672,-2294.638420,11325.150913,-8656.879127
68.436982,-1628.453072,11177.109724,-9039.926876
68.437291,-1110.308913,9696.697840,-3140.991542
68.437601,2738.761985,9252.574275,2374.896044
68.437910,3701.029710,6439.791695,8044.002729
68.438220,1184.329507,7550.100608,10495.508323
68.438530,592.164754,6291.750507,4979.620737
68.438839,2590.720797,7328.038826,-1072.533697
68.439149,814.226536,10140.821405,-5822.325785
68.439458,-2590.720797,14434.015869,-4749.792088
68.439768,-2960.823768,14878.139434,-4979.620737
68.440078,-2886.803174,15618.345376,-9269.755526
68.440387,-1332.370696,12435.459826,-11108.384721
68.440697,-962.267725,8882.471304,-7584.345430
68.441006,370.102971,6809.894666,0.000000
68.441316,518.144159,6957.935855,7584.345430
68.441625,1110.308913,4959.379811,11644.651570
68.441935,1776.494261,3404.947333,8963.317327
68.442245,444.123565,4515.256246,0.000000
68.442554,1184.329507,7846.182985,-5439.278036
68.442864,592.164754,13397.727550,-6511.811733
68.443173,-148.041188,13841.851115,-6511.811733
68.443483,-2442.679609,15026.180623,-3907.087040
68.443793,-4293.194464,12731.542202,-3064.381992
68.444102,-2368.659014,7254.018232,-4366.744339
68.444412,-222.061783,9326.594869,-6281.983084
68.444721,1850.514855,8364.327145,-1302.362347
68.445031,2368.659014,7179.997637,6052.154434
68.445340,3997.112087,6883.915261,8810.098227
68.445650,-74.020594,8882.471304,6435.202183
68.445960,1332.370696,7624.121203,2451.505594
68.446269,1702.473667,10510.924376,-2911.162892
68.446579,-0.000000,12435.459826,-6205.373534
68.446888,-3256.906145,14804.118840,-2604.724693
68.447198,-3330.926739,15618.345376,-3983.696590
68.447508,-1702.473667,11843.295072,-9576.193725
68.447817,-222.061783,9844.739029,-10648.727422
68.448127,-0.000000,8364.327145,-4290.134789
68.448436,1184.329507,5181.441594,-2681.334243
68.448746,2664.741391,6661.853478,7201.297681
68.449055,1850.514855,5921.647536,9269.755526
68.449365,296.082377,3923.091493,5132.839837
68.449675,1036.288319,3923.091493,-1149.143247
68.449984,1258.350101,7624.121203,-7201.297681
68.450294,444.123565,13027.624579,-6358.592633
68.450603,-2146.597232,12953.603985,-2987.772442
68.450913,-3552.988522,12435.459826,-2604.724693
68.451223,-1406.391290,11399.171507,-6971.469032
68.451532,-962.267725,9622.677246,-8656.879127
68.451842,-1554.432478,9326.594869,-3907.087040
68.452151,2368.659014,8586.388927,2681.334243
68.452461,4219.173869,8068.244768,6435.202183
68.452770,2812.782580,7402.059420,8427.050478
68.453080,-444.123565,7179.997637,6741.640382
68.453390,222.061783,7698.141797,0.000000
68.453699,2368.659014,10362.883188,-6281.983084
68.454009,-814.226536,12805.562797,-8120.612279
68.454318,-4737.318029,15322.262999,-2451.505594
68.454628,-2664.741391,13175.665768,-5286.058936
68.454938,-592.164754,10510.924376,-10342.289223
68.455247,-1554.432478,7476.080014,-6741.640382
68.455557,-3182.885551,8438.347739,1685.410096
68.455866,1480.411884,7254.018232,5515.887586
68.456176,2368.659014,5329.482782,7354.516781
68.456485,888.247130,5033.400406,6588.421283
68.456795,-962.267725,5033.400406,2068.457845
68.457105,2886.803174,8734.430116,-4290.134789
68.457414,1110.308913,11843.295072,-7890.783629
68.457724,-1850.514855,13323.706956,-6052.154434
68.458033,-2442.679609,13471.748144,-2604.724693
68.458343,-4589.276840,11177.109724,-9882.631924
68.458653,-2220.617826,9844.739029,-6665.030833
68.458962,1332.370696,8808.450710,-6052.154434
68.459272,1628.453072,6809.894666,-1915.238745
68.459581,1702.473667,7328.038826,6205.373534
68.459891,1332.370696,9474.636058,8580.269578
68.460200,2886.803174,7698.141797,4903.011187
68.460510,1924.535449,8364.327145,-1149.143247
68.460820,-0.000000,10732.986159,-3064.381992
68.461129,-1036.288319,11103.089130,-3753.867940
68.461439,-1036.288319,12879.583391,-4443.353888
68.461748,-2368.659014,15174.221811,-4366.744339
68.462058,-2886.803174,11547.212695,-5975.544884
68.462368,-1332.370696,9696.697840,-7814.174080
68.462677,74.020594,8956.491898,-7201.297681
68.462987,2294.638420,7179.997637,766.095498
68.463296,1924.535449,8216.285956,6052.154434
68.463606,222.061783,5255.462188,8963.317327
68.463916,296.082377,4441.235652,4443.353888
68.464225,-1258.350101,7402.059420,-4213.525239
68.464535,1702.473667,9770.718434,-6128.763984
68.464844,1628.453072,11325.150913,-5592.497135
68.465154,-1924.535449,13545.768739,-3370.820191
68.465463,-1998.556043,11991.336260,-1608.800546
68.465773,-2442.679609,11325.150913,-4903.011187
68.466083,-666.185348,9696.697840,-7431.126331
68.466392,-0.000000,8438.347739,-3907.087040
68.466702,3108.864956,9400.615463,1915.238745
68.467011,1258.350101,9622.677246,3524.039291
68.467321,1924.535449,7179.997637,6358.592633
68.467631,-0.000000,7402.059420,4903.011187
68.467940,962.267725,9326.594869,-1302.362347
68.468250,3404.947333,10584.944971,-6205.373534
68.468559,-666.185348,13175.665768,-5439.278036
68.468869,-3923.091493,14285.974681,-536.266849
68.469178,-2368.659014,13841.851115,-4136.915689
68.469488,-888.247130,10732.986159,-10495.508323
68.469798,1184.329507,6809.894666,-4826.401637
68.470107,-518.144159,7624.121203,-995.924147
68.470417,1554.432478,7254.018232,5056.230287
68.470726,3627.009116,6809.894666,7354.516781
68.471036,666.185348,4737.318029,6588.421283
68.471346,-2886.803174,8142.265362,4826.401637
68.471655,222.061783,7254.018232,-2451.505594
68.471965,1110.308913,10066.800811,-7354.516781
68.472274,1628.453072,14063.912898,-6665.030833
68.472584,-2886.803174,12953.603985,-1685.410096
68.472893,-4737.318029,13471.748144,-3524.039291
68.473203,-1554.432478,9622.677246,-6741.640382
68.473513,-0.000000,8290.306550,-5975.544884
68.473822,-0.000000,9178.553681,1225.752797
68.474132,1554.432478,11251.130318,7890.783629
68.474441,2664.741391,8734.430116,5745.716235
68.474751,1998.556043,7624.121203,1608.800546
68.475061,1258.350101,7031.956449,-1532.190996
68.475370,666.185348,8956.491898,-1915.238745
68.475680,-888.247130,11177.109724,-3217.601092
68.475989,-222.061783,12361.439231,-3830.477490
68.476299,-2442.679609,12361.439231,-3064.381992
68.476608,-4441.235652,10807.006753,-4826.401637
68.476918,-1036.288319,10214.842000,-7660.954980
68.477228,2442.679609,8808.450710,-8044.002729
68.477537,1184.329507,8068.244768,-1302.362347
68.477847,518.144159,7550.100608,8197.221829
68.478156,666.185348,5847.626942,10342.289223
68.478466,-148.041188,7698.141797,2757.943793
68.478776,888.247130,6587.832884,-2528.115143
68.479085,1036.288319,8512.368333,-4903.011187
68.479395,-1110.308913,11473.192101,-5669.106685
68.479704,-1184.329507,13915.871710,-3677.258390
68.480014,-1406.391290,13397.727550,-4213.525239
68.480323,-2368.659014,12583.501014,-5132.839837
68.480633,-2664.741391,10436.903782,-4519.963438
68.480943,1110.308913,7846.182985,-2451.505594
68.481252,2960.823768,7105.977043,1762.019645
68.481562,1258.350101,7328.038826,5669.106685
68.481871,1258.350101,6809.894666,7507.735880
68.482181,518.144159,6661.853478,2604.724693
68.482491,2294.638420,7698.141797,-3677.258390
68.482800,2368.659014,9918.759623,-5209.449386
68.483110,-2146.597232,12879.583391,-1685.410096
68.483419,-1480.411884,13323.706956,-2451.505594
68.483729,-2072.576638,11769.274478,-6205.373534
68.484038,-2886.803174,10140.821405,-10878.556072
68.484348,-296.082377,7920.203579,-5745.716235
68.484658,814.226536,8364.327145,-1915.238745
68.484967,3108.864956,7772.162391,3294.210641
68.485277,2664.741391,7179.997637,6435.202183
68.485586,592.164754,6365.771101,4979.620737
68.485896,-592.164754,6069.688724,3294.210641
68.486206,1702.473667,7994.224174,-3600.648841
68.486515,1776.494261,11621.233289,-7737.564530
68.486825,-1332.370696,13471.748144,-3677.258390
68.487134,-3330.926739,13841.851115,-1072.533697
68.487444,-2960.823768,12879.583391,-5056.230287
68.487753,222.061783,11547.212695,-8427.050478
68.488063,518.144159,9326.594869,-6588.421283
68.488373,-518.144159,7772.162391,-1455.581446
68.488682,2442.679609,7550.100608,6281.983084
68.488992,2442.679609,6587.832884,7737.564530
68.489301,1036.288319,5921.647536,5592.497135
68.489611,814.226536,7031.956449,2374.896044
68.489921,-148.041188,9252.574275,-2757.943793
68.490230,2072.576638,11695.253884,-5286.058936
68.490540,-1332.370696,13175.665768,-3447.429741
68.490849,-4441.235652,13545.768739,-2681.334243
68.491159,-2442.679609,12361.439231,-3064.381992
68.491469,-518.144159,10288.862594,-10725.336972
68.491778,-1184.329507,9696.697840,-5975.544884
68.492088,592.164754,9030.512492,2528.115143
68.492397,3330.926739,7031.956449,6052.154434
68.492707,1110.308913,3034.844362,7660.954980
68.493016,-0.000000,4737.318029,6665.030833
68.493326,-518.144159,5477.523971,1149.143247
68.493636,2664.741391,7105.977043,-5056.230287
68.493945,222.061783,12953.603985,-5286.058936
68.494255,-3404.947333,13841.851115,-3447.429741
68.494564,-2738.761985,14285.974681,-4519.963438
68.494874,-2220.617826,12583.501014,-9729.412825
68.495184,-74.020594,10807.006753,-10342.289223
68.495493,-74.020594,9770.718434,-4213.525239
68.495803,1258.350101,9474.636058,4749.792088
68.496112,2886.803174,8068.244768,6741.640382
68.496422,2294.638420,7105.977043,6358.592633
68.496731,666.185348,6587.832884,4060.306139
68.497041,444.123565,9474.636058,-995.924147
68.497351,1998.556043,10066.800811,-6358.592633
68.497660,-666.185348,12139.377449,-4903.011187
68.497970,-3182.885551,12805.562797,-1302.362347
68.498279,-4959.379811,11917.315666,-612.876398
68.498589,-2590.720797,11621.233289,-10418.898773
68.498899,592.164754,9104.533087,-10418.898773
68.499208,962.267725,8216.285956,-3370.820191
68.499518,2146.597232,7624.121203,4903.011187
68.499827,2442.679609,4663.297435,10572.117872
68.500137,962.267725,5773.606348,8733.488677
68.500446,-0.000000,5181.441594,4903.011187
68.500756,-0.000000,6809.894666,-1455.581446
68.501066,2664.741391,11843.295072,-7584.345430
68.501375,592.164754,12287.418637,-7354.516781
68.501685,-3552.988522,14434.015869,-2911.162892
68.501994,-3478.967927,11843.295072,-3447.429741
68.502304,-740.205942,10881.027347,-8273.831378
68.502614,-74.020594,11695.253884,-5515.887586
68.502923,-222.061783,9326.594869,995.924147
68.503233,2590.720797,7846.182985,5132.839837
68.503542,3404.947333,6365.771101,5515.887586
68.503852,1850.514855,6069.688724,4673.182538
68.504161,888.247130,4515.256246,4443.353888
68.504471,888.247130,7994.224174,-1455.581446
68.504781,1036.288319,11843.295072,-2987.772442
68.505090,-3034.844362,13101.645173,-1378.971896
68.505400,-3404.947333,14211.954086,-3753.867940
68.505709,-2072.576638,12287.418637,-9882.631924
68.506019,-0.000000,10658.965565,-12410.747068
68.506329,592.164754,8364.327145,-6894.859482
68.506638,666.185348,8068.244768,2221.676944
68.506948,4959.379811,7402.059420,9346.365076
68.507257,2220.617826,5181.441594,11108.384721
68.507567,-0.000000,3182.885551,7660.954980
68.507876,592.164754,5107.421000,1608.800546
68.508186,1110.308913,9474.636058,-4903.011187
68.508496,2738.761985,13249.686362,-7737.564530
68.508805,-2368.659014,14211.954086,-3370.820191
68.509115,-3034.844362,13767.830521,-2604.724693
68.509424,-3923.091493,13175.665768,-5898.935335
68.509734,-0.000000,10881.027347,-11568.042020
68.510044,1036.288319,9992.780217,-2374.896044
68.510353,518.144159,8808.450710,1455.581446
68.510663,2368.659014,7031.956449,5286.058936
68.510972,1776.494261,6217.729913,6205.373534
68.511282,-148.041188,8586.388927,4903.011187
68.511591,740.205942,8290.306550,1838.629195
68.511901,148.041188,10214.842000,-1608.800546
68.512211,-666.185348,11695.253884,-3600.648841
68.512520,-4367.215058,12213.398043,-2987.772442
68.512830,-4663.297435,12805.562797,-7967.393179
68.513139,-1554.432478,10362.883188,-14325.985813
68.513449,-518.144159,9770.718434,-12027.699319
68.513759,1406.391290,8290.306550,-1685.410096
68.514068,1554.432478,5699.585753,6588.421283
68.514378,1480.411884,4811.338623,10418.898773
68.514687,370.102971,4293.194464,11261.603821
68.514997,-888.247130,3552.988522,4903.011187
68.515306,2368.659014,7846.182985,-5056.230287
68.515616,2368.659014,12361.439231,-8044.002729
68.515926,-2146.597232,14508.036463,-7431.126331
68.516235,-3997.112087,16136.489536,-3830.477490
68.516545,-3108.864956,14878.139434,-5745.716235
68.516854,-0.000000,13027.624579,-6511.811733
68.517164,-1332.370696,9104.533087,-4213.525239
68.517474,518.144159,8364.327145,2757.943793
68.517783,1850.514855,6661.853478,6588.421283
68.518093,3478.967927,6069.688724,6052.154434
68.518402,1554.432478,5995.668130,4903.011187
68.518712,740.205942,5921.647536,1225.752797
68.519022,444.123565,9326.594869,-2221.676944
68.519331,518.144159,11251.130318,-3753.867940
68.519641,-1776.494261,13397.727550,-2528.115143
68.519950,-5107.421000,13101.645173,-3140.991542
68.520260,-4811.338623,12213.398043,-9039.926876
68.520569,222.061783,10584.944971,-11951.089769
68.520879,1480.411884,8586.388927,-9652.803275
68.521189,4367.215058,7846.182985,-1685.410096
68.521498,2220.617826,6957.935855,10648.727422
68.521808,2516.700203,4515.256246,10418.898773
68.522117,-74.020594,2368.659014,6894.859482
68.522427,-814.226536,5329.482782,2757.943793
68.522737,2072.576638,12953.603985,-4749.792088
68.523046,3627.009116,13915.871710,-11261.603821
68.523356,-1554.432478,15248.242405,-7048.078582
68.523665,-4737.318029,14878.139434,-2298.286494
68.523975,-962.267725,12065.356855,-9193.145976
68.524284,-0.000000,11251.130318,-6894.859482
68.524594,-0.000000,9400.615463,766.095498
68.524904,1184.329507,7328.038826,5286.058936
68.525213,3034.844362,6291.750507,6818.249932
68.525523,4737.318029,6439.791695,7584.345430
68.525832,2146.597232,6587.832884,4366.744339
68.526142,1406.391290,7624.121203,-766.095498
68.526452,-0.000000,10436.903782,-1991.848295
68.526761,-1628.453072,12213.398043,-1685.410096
68.527071,-5329.482782,14508.036463,-4596.572988
68.527380,-4441.235652,14211.954086,-7354.516781
68.527690,-2442.679609,12139.377449,-10265.679673
68.527999,-1924.535449,8808.450710,-9652.803275
68.528309,1406.391290,5551.544565,-3064.381992
68.528619,2664.741391,3701.029710,6511.811733
68.528928,1184.329507,3701.029710,11261.603821
68.529238,-370.102971,2812.782580,12257.527968
68.529547,814.226536,4071.132681,5209.449386
68.529857,-0.000000,7254.018232,-7584.345430
68.530167,1480.411884,11177.109724,-7967.393179
68.530476,-1628.453072,14359.995275,-6741.640382
68.530786,-3478.967927,14137.933492,-5286.058936
68.531095,-2590.720797,14063.912898,-6435.202183
68.531405,-740.205942,12953.603985,-8197.221829
68.531714,-444.123565,11325.150913,-5132.839837
68.532024,518.144159,8956.491898,2681.334243
68.532334,1702.473667,7772.162391,7201.297681
68.532643,2738.761985,5107.421000,6128.763984
68.532953,2368.659014,6661.853478,4596.572988
68.533262,2146.597232,7994.224174,-229.828649
68.533572,148.041188,10807.006753,-3370.820191
68.533882,-0.000000,13101.645173,-5515.887586
68.534191,-3701.029710,13619.789333,-4060.306139
68.534501,-4441.235652,14359.995275,-4519.963438
68.534810,-2516.700203,11177.109724,-8733.488677
68.535120,-1480.411884,7550.100608,-11797.870669
68.535429,2368.659014,4811.338623,-995.924147
68.535739,1702.473667,5329.482782,2528.115143
68.536049,2886.803174,3627.009116,7660.954980
68.536358,2368.659014,3997.112087,10955.165621
68.536668,-1554.432478,3108.864956,9116.536426
68.536977,296.082377,5625.565159,3217.601092
68.537287,2294.638420,9992.780217,-7124.688131
68.537597,666.185348,12657.521608,-9806.022374
68.537906,-1628.453072,15544.324782,-6894.859482
68.538216,-3627.009116,15248.242405,-4979.620737
68.538525,-2886.803174,12435.459826,-7814.174080
68.538835,592.164754,10436.903782,-7277.907231
68.539145,-0.000000,9474.636058,-689.485948
68.539454,1554.432478,8068.244768,5362.668486
68.539764,2072.576638,5625.565159,6435.202183
68.540073,3997.112087,7031.956449,6281.983084
68.540383,1776.494261,7031.956449,3753.867940
68.540692,1850.514855,8808.450710,-995.924147
68.541002,666.185348,10066.800811,-3983.696590
68.541312,-1036.288319,11769.274478,-3524.039291
68.541621,-2516.700203,14211.954086,-4443.353888
68.541931,-3627.009116,13693.809927,-6435.202183
68.542240,-1924.535449,11325.150913,-9882.631924
68.542550,1406.391290,8364.327145,-9652.803275
68.542860,2294.638420,7402.059420,-1915.238745
68.543169,740.205942,4959.379811,9116.536426
68.543479,1776.494261,3256.906145,13100.233016
68.543788,1332.370696,2886.803174,8733.488677
68.544098,-444.123565,4959.379811,229.828649
68.544407,-148.041188,9104.533087,-2911.162892
68.544717,1184.329507,12287.418637,-7431.126331
68.545027,370.102971,14508.036463,-7660.954980
68.545336,-2664.741391,13915.871710,-2221.676944
68.545646,-3404.947333,14285.974681,-995.924147
68.545955,-3330.926739,10658.965565,-5439.278036
68.546265,740.205942,9696.697840,-4443.353888
68.546575,1776.494261,9400.615463,-229.828649
68.546884,3627.009116,9178.553681,6052.154434
68.547194,2146.597232,7994.224174,8733.488677
68.547503,1850.514855,7550.100608,5898.935335
68.547813,1480.411884,8660.409521,306.438199
68.548123,962.267725,10732.986159,-2451.505594
68.548432,-2072.576638,10658.965565,-3524.039291
68.548742,-2590.720797,12213.398043,-4673.182538
68.549051,-2072.576638,12805.562797,-5056.230287
68.549361,-3849.070898,11843.295072,-8197.221829
68.549670,-1332.370696,8512.368333,-11951.089769
68.549980,370.102971,7402.059420,-4903.011187
68.550290,2146.597232,6587.832884,2911.162892
68.550599,1628.453072,6217.729913,7814.174080
68.550909,148.041188,4885.359217,8656.879127
68.551218,-296.082377,5255.462188,2757.943793
68.551528,962.267725,6809.894666,-3064.381992
68.551838,2146.597232,11473.192101,-7967.393179
68.552147,-0.000000,12213.398043,-6971.469032
68.552457,-2368.659014,14211.954086,-4136.915689
68.552766,-4441.235652,14804.118840,-4290.134789
68.553076,-3256.906145,12287.418637,-5056.230287
68.553385,-518.144159,10140.821405,-6588.421283
68.553695,1110.308913,9104.533087,-3524.039291
68.554005,1554.432478,6883.915261,2604.724693
68.554314,3404.947333,9474.636058,6052.154434
68.554624,2738.761985,6587.832884,4596.572988
68.554933,1776.494261,6587.832884,3064.381992
68.555243,-222.061783,9474.636058,689.485948
68.555553,-1036.288319,8438.347739,-6894.859482
68.555862,-1110.308913,12361.439231,-5286.058936
68.556172,-3701.029710,13027.624579,-3983.696590
68.556481,-2516.700203,12139.377449,-6588.421283
68.556791,-1998.556043,10288.862594,-10035.851024
68.557101,888.247130,9252.574275,-8963.317327
68.557410,2590.720797,7624.121203,-3217.601092
68.557720,592.164754,5551.544565,4979.620737
68.558029,592.164754,5773.606348,10418.898773
68.558339,1332.370696,2516.700203,12563.966167
68.558648,2072.576638,6143.709319,0.000000
68.558958,1554.432478,7994.224174,-5975.544884
68.559268,2294.638420,10140.821405,-7814.174080
68.559577,814.226536,12953.603985,-4979.620737
68.559887,-2738.761985,13841.851115,-383.047749
68.560196,-2368.659014,11991.336260,-995.924147
68.560506,-1850.514855,10807.006753,-3907.087040
68.560816,1406.391290,11177.109724,-5898.935335
68.561125,3330.926739,8512.368333,-1149.143247
68.561435,2664.741391,9400.615463,4749.792088
68.561744,1702.473667,8364.327145,6894.859482
68.562054,1628.453072,8438.347739,5592.497135
68.562363,296.082377,8438.347739,2604.724693
68.562673,-888.247130,11695.253884,3447.429741
68.562983,-0.000000,12139.377449,-2834.553343
68.563292,-2072.576638,11621.233289,-2911.162892
68.563602,-4441.235652,12287.418637,-2757.943793
68.563911,-2368.659014,12287.418637,-6435.202183
68.564221,-888.247130,9622.677246,-9346.365076
68.564531,148.041188,6513.812290,-4903.011187
68.564840,296.082377,7105.977043,4136.915689
68.565150,666.185348,5995.668130,7660.954980
68.565459,2368.659014,4515.256246,5439.278036
68.565769,-1184.329507,6291.750507,4979.620737
68.566079,-222.061783,6291.750507,-2451.505594
68.566388,2960.823768,8364.327145,-8810.098227
68.566698,222.061783,11843.295072,-6511.811733
68.567007,-518.144159,9178.553681,-1455.581446
68.567317,-3182.885551,12953.603985,-612.876398
68.567626,-2812.782580,11917.315666,-4673.182538
68.567936,1776.494261,11177.109724,-6665.030833
68.568246,-296.082377,9844.739029,-5822.325785
68.568555,1850.514855,8438.347739,383.047749
68.568865,2516.700203,8882.471304,5898.935335
68.569174,1924.535449,9252.574275,5592.497135
68.569484,1924.535449,8364.327145,2068.457845
68.569794,962.267725,9326.594869,-3217.601092
68.570103,296.082377,10658.965565,-1685.410096
68.570413,-1110.308913,11843.295072,-3524.039291
68.570722,-2368.659014,13693.809927,-4136.915689
68.571032,-3034.844362,12731.542202,-5975.544884
68.571341,-1036.288319,10214.842000,-8963.317327
68.571651,592.164754,8660.409521,-9193.145976
68.571961,962.267725,7550.100608,-1915.238745
68.572270,-74.020594,5329.482782,5592.497135
68.572580,-1998.556043,4737.318029,9193.145976
68.572889,-1554.432478,4811.338623,6894.859482
68.573199,-222.061783,5107.421000,229.828649
68.573509,2146.597232,7105.977043,-6588.421283
68.573818,1776.494261,10066.800811,-8656.879127
68.574128,-962.267725,11843.295072,-5362.668486
68.574437,-2886.803174,13619.789333,-1532.190996
68.574747,-1998.556043,11769.274478,-2068.457845
68.575057,-1406.391290,9992.780217,-4979.620737
68.575366,444.123565,11473.192101,-8503.660028
68.575676,2960.823768,9548.656652,-2451.505594
68.575985,3034.844362,8956.491898,1532.190996
68.576295,3182.885551,9252.574275,4749.792088
68.576604,518.144159,8586.388927,5209.449386
68.576914,-518.144159,11991.336260,1455.581446
68.577224,1924.535449,11325.150913,-1302.362347
68.577533,-666.185348,10436.903782,-3600.648841
68.577843,-2664.741391,12287.418637,-1455.581446
68.578152,-2738.761985,12953.603985,-4443.353888
68.578462,-1850.514855,9992.780217,-9959.241474
68.578772,222.061783,11103.089130,-10112.460574
68.579081,444.123565,8956.491898,-3830.477490
68.579391,-0.000000,6883.915261,2604.724693
68.579700,1332.370696,4811.338623,6818.249932
68.580010,1184.329507,3627.009116,8656.879127
68.580319,-888.247130,4145.153275,4673.182538
68.580629,518.144159,5995.668130,-689.485948
68.580939,888.247130,7476.080014,-5439.278036
68.581248,962.267725,10362.883188,-5515.887586
68.581558,-1184.329507,13027.624579,-2528.115143
68.581867,-5181.441594,12509.480420,-689.485948
68.582177,-3182.885551,12657.521608,-3753.867940
68.582487,444.123565,11621.233289,-6741.640382
68.582796,814.226536,11251.130318,-4443.353888
68.583106,592.164754,9474.636058,2068.457845
68.583415,2442.679609,9178.553681,6741.640382
68.583725,2664.741391,7698.141797,5822.325785
68.584035,370.102971,8660.409521,4979.620737
68.584344,666.185348,8956.491898,1455.581446
68.584654,-814.226536,8882.471304,-1762.019645
68.584963,-962.267725,12361.439231,-3217.601092
68.585273,-2590.720797,13471.748144,-4903.011187
68.585582,-1628.453072,13471.748144,-8733.488677
68.585892,-2220.617826,10881.027347,-9806.022374
68.586202,-592.164754,9474.636058,-7354.516781
68.586511,1258.350101,8216.285956,-2298.286494
68.586821,2960.823768,6217.729913,6818.249932
68.587130,888.247130,3330.926739,9729.412825
68.587440,-814.226536,4441.235652,7507.735880
68.587750,370.102971,5329.482782,459.657299
68.588059,2220.617826,6883.915261,-5439.278036
68.588369,-296.082377,12139.377449,-2528.115143
68.588678,-2072.576638,11991.336260,-3677.258390
68.588988,-3997.112087,12879.583391,-1532.190996
68.589297,-2590.720797,13841.851115,-4826.401637
68.589607,-1332.370696,10732.986159,-8350.440928
68.589917,-666.185348,9696.697840,-7201.297681
68.590226,740.205942,9252.574275,0.000000
68.590536,3108.864956,8290.306550,4519.963438
68.590845,3034.844362,7402.059420,7124.688131
68.591155,2146.597232,6587.832884,8197.221829
68.591465,1554.432478,7920.203579,3524.039291
68.591774,1332.370696,10214.842000,-3140.991542
68.592084,-148.041188,12879.583391,-5439.278036
68.592393,-3034.844362,13101.645173,-3370.820191
68.592703,-3552.988522,13767.830521,-5209.449386
68.593013,-222.061783,12361.439231,-10648.727422
68.593322,-666.185348,9770.718434,-11491.432470
68.593632,-888.247130,9326.594869,-4136.915689
68.593941,1110.308913,6735.874072,4136.915689
68.594251,1554.432478,5625.565159,5822.325785
68.594560,1480.411884,3330.926739,8810.098227
68.594870,740.205942,3627.009116,6128.763984
68.595180,1702.473667,5921.647536,-383.047749
68.595489,740.205942,9400.615463,-8120.612279
68.595799,518.144159,11177.109724,-5209.449386
68.596108,-2220.617826,13101.645173,-2757.943793
68.596418,-5551.544565,13619.789333,-3447.429741
68.596728,-2146.597232,13693.809927,-7660.954980
68.597037,2072.576638,11547.212695,-12870.404366
68.597347,1924.535449,9474.636058,-6588.421283
68.597656,1036.288319,9030.512492,4903.011187
68.597966,3108.864956,7402.059420,10342.289223
68.598275,2738.761985,7846.182985,11338.213370
68.598585,666.185348,6069.688724,7354.516781
68.598895,592.164754,7698.141797,2987.772442
68.599204,888.247130,10140.821405,-4213.525239
68.599514,296.082377,13027.624579,-5669.106685
68.599823,-1850.514855,12657.521608,-1608.800546
68.600133,-2886.803174,13693.809927,-7737.564530
68.600443,-1110.308913,12139.377449,-11031.775171
68.600752,-1924.535449,9622.677246,-7890.783629
68.601062,814.226536,7402.059420,-76.609550
68.601371,-0.000000,4071.132681,6281.983084
68.601681,1110.308913,5033.400406,11338.213370
68.601991,1480.411884,3478.967927,8656.879127
68.602300,518.144159,4589.276840,1608.800546
68.602610,-296.082377,9474.636058,-1302.362347
68.602919,740.205942,10584.944971,-6128.763984
68.603229,-1554.432478,13397.727550,-5745.716235
68.603538,-3997.112087,14359.995275,-5209.449386
68.603848,-4367.215058,13989.892304,-5898.935335
68.604158,-518.144159,11621.233289,-8580.269578
68.604467,592.164754,9474.636058,-6894.859482
68.604777,2220.617826,8142.265362,-306.438199
68.605086,2146.597232,7105.977043,5975.544884
68.605396,1480.411884,6291.750507,6588.421283
68.605706,1998.556043,6439.791695,7354.516781
68.606015,740.205942,8364.327145,2681.334243
68.606325,1406.391290,11621.233289,-3294.210641
68.606634,-296.082377,13323.706956,-5132.839837
68.606944,-1332.370696,13619.789333,-7124.688131
68.607253,-2738.761985,15100.201217,-7431.126331
68.607563,-2812.782580,13323.706956,-9959.241474
68.607873,-888.247130,11029.068536,-9652.803275
68.608182,370.102971,7920.203579,-5286.058936
68.608492,444.123565,5699.585753,3983.696590
68.608801,1850.514855,4219.173869,10955.165621
68.609111,444.123565,3627.009116,10035.851024
68.609421,2442.679609,2886.803174,4136.915689
68.609730,2664.741391,5033.400406,-5286.058936
68.610040,1406.391290,8956.491898,-4443.353888
68.610349,666.185348,12879.583391,-7277.907231
68.610659,-3478.967927,14063.912898,-5669.106685
68.610969,-3034.844362,13027.624579,-4903.011187
68.611278,-3997.112087,13175.665768,-8503.660028
68.611588,-74.020594,10584.944971,-8656.879127
68.611897,1480.411884,9252.574275,-3907.087040
68.612207,2516.700203,7550.100608,3830.477490
68.612516,3182.885551,5773.606348,8120.612279
68.612826,2368.659014,5699.585753,9116.536426
68.613136,1702.473667,6809.894666,5898.935335
68.613445,740.205942,8734.430116,-689.485948
68.613755,1776.494261,12213.398043,-4596.572988
68.614064,-74.020594,16506.592507,-2451.505594
68.614374,-3849.070898,15840.407159,-6128.763984
68.614684,-1924.535449,15396.283594,-7737.564530
68.614993,-2442.679609,12583.501014,-9729.412825
68.615303,-370.102971,9770.718434,-7967.393179
68.615612,1554.432478,5255.462188,153.219100
68.615922,1924.535449,5255.462188,7814.174080
68.616231,1924.535449,2886.803174,11568.042020
68.616541,1258.350101,3627.009116,9499.584175
68.616851,2368.659014,4515.256246,4979.620737
68.617160,2516.700203,8364.327145,-2834.553343
68.617470,962.267725,10510.924376,-6052.154434
68.617779,-2738.761985,13915.871710,-5439.278036
68.618089,-2664.741391,14508.036463,-6128.763984
68.618399,-4441.235652,14137.933492,-10495.508323
68.618708,-2442.679609,12287.418637,-7354.516781
68.619018,148.041188,8586.388927,-2911.162892
68.619327,3256.906145,6883.915261,1149.143247
68.619637,2072.576638,7476.080014,4290.134789
68.619946,592.164754,7179.997637,13406.671215
68.620256,2072.576638,5921.647536,6971.469032
68.620566,2368.659014,6883.915261,-612.876398
68.620875,1628.453072,10955.047942,-3217.601092
68.621185,-2812.782580,13101.645173,-5439.278036
68.621494,-2220.617826,14434.015869,-6358.592633
68.621804,-2812.782580,14359.995275,-6511.811733
68.622114,-4145.153275,12065.356855,-7507.735880
68.622423,-444.123565,8808.450710,-8044.002729
68.622733,592.164754,8364.327145,-3447.429741
68.623042,1332.370696,6291.750507,3370.820191
68.623352,2146.597232,5403.503377,7890.783629
68.623662,2220.617826,4737.318029,7814.174080
68.623971,296.082377,5995.668130,2681.334243
68.624281,444.123565,6291.750507,-459.657299
68.624590,962.267725,10436.903782,-5592.497135
68.624900,-888.247130,12435.459826,-6205.373534
68.625209,-3256.906145,13693.809927,-5209.449386
68.625519,-3552.988522,14656.077652,-8273.831378
68.625829,-2146.597232,12361.439231,-9806.022374
68.626138,-1332.370696,9326.594869,-8120.612279
68.626448,1480.411884,7920.203579,-1608.800546
68.626757,2960.823768,6069.688724,5286.058936
68.627067,2664.741391,5403.503377,10572.117872
68.627377,1258.350101,5773.606348,11108.384721
68.627686,1184.329507,7179.997637,5439.278036
68.627996,1702.473667,9326.594869,-3753.867940
68.628305,2220.617826,13619.789333,-10418.898773
68.628615,-1628.453072,14359.995275,-5745.716235
68.628924,-4663.297435,15618.345376,-4826.401637
68.629234,-2368.659014,15174.221811,-7277.907231
68.629544,-1554.432478,11251.130318,-9882.631924
68.629853,-814.226536,10807.006753,-6588.421283
68.630163,740.205942,7105.977043,689.485948
68.630472,2812.782580,4737.318029,6281.983084
68.630782,3775.050304,4589.276840,8580.269578
68.631092,1554.432478,3034.844362,5669.106685
68.631401,-0.000000,4811.338623,4673.182538
68.631711,888.247130,8512.368333,-2451.505594
68.632020,1924.535449,10140.821405,-9652.803275
68.632330,-2146.597232,13323.706956,-8120.612279
68.632640,-5699.585753,16284.530724,-2145.067394
68.632949,-3775.050304,13323.706956,-5745.716235
68.633259,296.082377,11177.109724,-9269.755526
68.633568,1258.350101,9474.636058,-5822.325785
68.633878,888.247130,6365.771101,2834.553343
68.634187,2960.823768,5773.606348,9116.536426
68.634497,2294.638420,5551.544565,9806.022374
68.634807,1110.308913,6883.915261,6741.640382
68.635116,1036.288319,7402.059420,2298.286494
68.635426,2590.720797,11917.315666,-1838.629195
68.635735,-370.102971,14211.954086,-7354.516781
68.636045,-2072.576638,13545.768739,-4673.182538
68.636354,-3849.070898,14878.139434,-4673.182538
68.636664,-2812.782580,13619.789333,-7890.783629
68.636973,222.061783,9696.697840,-8656.879127
68.637283,-518.144159,7254.018232,-2221.676944
68.637592,1036.288319,6217.729913,4366.744339
68.637902,3182.885551,5181.441594,9346.365076
68.638211,2294.638420,5107.421000,11108.384721
68.638521,148.041188,6957.935855,2987.772442
68.638830,592.164754,7624.121203,-1915.238745
68.639139,518.144159,9770.718434,-6205.373534
68.639449,-444.123565,11843.295072,-7431.126331
68.639758,-2368.659014,14137.933492,-4749.792088
68.640068,-4145.153275,12953.603985,-4290.134789
68.640377,-2442.679609,12139.377449,-5822.325785
68.640687,740.205942,8438.347739,-6358.592633
68.640996,1184.329507,5847.626942,-536.266849
68.641306,1406.391290,6809.894666,6052.154434
68.641615,1776.494261,6291.750507,7967.393179
68.641925,2220.617826,7179.997637,5975.544884
68.642234,814.226536,8586.388927,995.924147
68.642543,-0.000000,11325.150913,-4903.011187
68.642853,1702.473667,12805.562797,-6665.030833
68.643162,-518.144159,13841.851115,-6894.859482
68.643472,-3330.926739,14952.160028,-2528.115143
68.643781,-4219.173869,13027.624579,-2911.162892
68.644091,-2368.659014,13027.624579,-9269.755526
68.644400,1332.370696,7254.018232,-8580.269578
68.644710,296.082377,6439.791695,-1225.752797
68.645019,1406.391290,6439.791695,6205.373534
68.645328,2590.720797,5995.668130,6818.249932
68.645638,2738.761985,5329.482782,4826.401637
68.645947,-1406.391290,6661.853478,2911.162892
68.646257,666.185348,7476.080014,-1838.629195
68.646566,1036.288319,8734.430116,-6358.592633
68.646876,-518.144159,10584.944971,-9039.926876
68.647185,-3182.885551,13841.851115,-3370.820191
68.647495,-3923.091493,11695.253884,-5286.058936
68.647804,-592.164754,10732.986159,-9116.536426
68.648113,1258.350101,10288.862594,-5592.497135
68.648423,2960.823768,9474.636058,383.047749
68.648732,2294.638420,7105.977043,6358.592633
68.649042,740.205942,6439.791695,9116.536426
68.649351,1332.370696,7031.956449,6665.030833
68.649661,2516.700203,9474.636058,919.314598
68.649970,1332.370696,11177.109724,-6052.154434
68.650280,1332.370696,13101.645173,-6052.154434
68.650589,-2664.741391,14359.995275,-4826.401637
68.650899,-2664.741391,14137.933492,-4213.525239
68.651208,-1924.535449,10510.924376,-5745.716235
68.651517,-2368.659014,9030.512492,-5745.716235
68.651827,1406.391290,6883.915261,-2604.724693
68.652136,3627.009116,5625.565159,995.924147
68.652446,2664.741391,4811.338623,5975.544884
68.652755,740.205942,5921.647536,8427.050478
68.653065,-444.123565,5847.626942,5898.935335
68.653374,370.102971,7920.203579,-536.266849
68.653684,1702.473667,10288.862594,-6358.592633
68.653993,-1776.494261,11991.336260,-5286.058936
68.654302,-2368.659014,14359.995275,-4366.744339
68.654612,-3256.906145,13841.851115,-7048.078582
68.654921,-1702.473667,11473.192101,-8427.050478
68.655231,444.123565,8808.450710,-4290.134789
68.655540,-74.020594,7254.018232,919.314598
68.655850,2072.576638,6661.853478,6588.421283
68.656159,1702.473667,6587.832884,8656.879127
68.656469,-0.000000,8068.244768,6052.154434
68.656778,666.185348,8142.265362,-2604.724693
68.657087,1332.370696,10807.006753,-5132.839837
68.657397,1258.350101,11251.130318,-7201.297681
68.657706,-1554.432478,12213.398043,-3983.696590
68.658016,-4293.194464,13619.789333,-842.705048
68.658325,-3330.926739,12509.480420,-1685.410096
68.658635,148.041188,9252.574275,-7048.078582
68.658944,1036.288319,9252.574275,-7201.297681
68.659254,1406.391290,7402.059420,-2145.067394
68.659563,2590.720797,6587.832884,3907.087040
68.659873,2368.659014,5181.441594,6358.592633
68.660182,-740.205942,6883.915261,6128.763984
68.660491,-740.205942,6883.915261,2987.772442
68.660801,-0.000000,8512.368333,-3217.601092
68.661110,1184.329507,9770.718434,-5975.544884
68.661420,-666.185348,13619.789333,-5592.497135
68.661729,-3997.112087,12953.603985,-3907.087040
68.662039,-2442.679609,12065.356855,-6128.763984
68.662348,296.082377,10658.965565,-7967.393179
68.662658,-0.000000,7105.977043,-4060.306139
68.662967,444.123565,9030.512492,2681.334243
68.663276,1110.308913,7402.059420,7584.345430
68.663586,814.226536,8142.265362,7354.516781
68.663895,1036.288319,7920.203579,2221.676944
68.664205,814.226536,7846.182985,-2604.724693
68.664514,1554.432478,9622.677246,-6588.421283
68.664824,370.102971,11843.295072,-4213.525239
68.665133,-2072.576638,13323.706956,-1685.410096
68.665443,-1628.453072,11547.212695,842.705048
68.665752,-3330.926739,10955.047942,-4290.134789
68.666061,-74.020594,8956.491898,-8120.612279
68.666371,1110.308913,7402.059420,-7354.516781
68.666680,2738.761985,7846.182985,-612.876398
68.666990,592.164754,5921.647536,7431.126331
68.667299,666.185348,7031.956449,8963.317327
68.667609,296.082377,7254.018232,6205.373534
68.667918,-0.000000,7846.182985,612.876398
68.668228,2738.761985,9178.553681,-7277.907231
68.668537,592.164754,12139.377449,-7354.516781
68.668847,-2590.720797,12805.562797,-4903.011187
68.669156,-3775.050304,13101.645173,-4519.963438
68.669465,-1628.453072,11325.150913,-7507.735880
68.669775,2146.597232,9474.636058,-8963.317327
68.670084,1184.329507,8364.327145,-766.095498
68.670394,1480.411884,7624.121203,5286.058936
68.670703,2738.761985,8364.327145,7584.345430
68.671013,1258.350101,7402.059420,6435.202183
68.671322,592.164754,6809.894666,1302.362347
68.671632,1702.473667,9178.553681,-2757.943793
68.671941,2072.576638,9548.656652,-4979.620737
68.672250,-1110.308913,11769.274478,-3217.601092
68.672560,-5921.647536,13471.748144,0.000000
68.672869,-3923.091493,11917.315666,-3447.429741
68.673179,-1850.514855,10881.027347,-8120.612279
68.673488,888.247130,9474.636058,-8886.707777
68.673798,740.205942,7179.997637,-3217.601092
68.674107,1850.514855,5847.626942,4749.792088
68.674417,2368.659014,7846.182985,7431.126331
68.674726,-0.000000,5107.421000,7967.393179
68.675036,-1332.370696,6513.812290,5209.449386
68.675345,2146.597232,8734.430116,459.657299
68.675654,1628.453072,9918.759623,-6205.373534
68.675964,-1924.535449,12583.501014,-6818.249932
68.676273,-3182.885551,13989.892304,-6435.202183
68.676583,-1998.556043,12657.521608,-8427.050478
68.676892,-740.205942,13027.624579,-9806.022374
68.677202,1110.308913,9770.718434,-4826.401637
68.677511,740.205942,7772.162391,3064.381992
68.677821,1850.514855,6809.894666,8886.707777
68.678130,814.226536,5699.585753,8197.221829
68.678439,592.164754,6735.874072,4290.134789
68.678749,1110.308913,7772.162391,-1991.848295
68.679058,2220.617826,10955.047942,-7814.174080
68.679368,1036.288319,11991.336260,-6741.640382
68.679677,-2812.782580,13249.686362,-3983.696590
68.679987,-5773.606348,13693.809927,-1225.752797
68.680296,-1184.329507,12509.480420,-6511.811733
68.680606,370.102971,9474.636058,-10418.898773
68.680915,296.082377,8142.265362,-5592.497135
68.681224,1406.391290,7698.141797,766.095498
68.681534,2072.576638,5477.523971,5592.497135
68.681843,814.226536,6143.709319,7814.174080
68.682153,-370.102971,5921.647536,6971.469032
68.682462,-74.020594,7402.059420,4596.572988
68.682772,1554.432478,8734.430116,-4213.525239
68.683081,1184.329507,12065.356855,-6358.592633
68.683391,-2812.782580,12657.521608,-5898.935335
68.683700,-3404.947333,13397.727550,-5592.497135
68.684010,-2812.782580,9252.574275,-3983.696590
68.684319,-592.164754,10658.965565,-7507.735880
68.684628,2442.679609,9474.636058,-2451.505594
68.684938,888.247130,8956.491898,4979.620737
68.685247,740.205942,7624.121203,9499.584175
68.685557,1110.308913,6217.729913,7890.783629
68.685866,1702.473667,5477.523971,1302.362347
68.686176,2072.576638,7994.224174,-3294.210641
68.686485,1554.432478,9548.656652,-4136.915689
68.686795,-1184.329507,12879.583391,-1915.238745
68.687104,-4441.235652,14137.933492,-2528.115143
68.687413,-3256.906145,13915.871710,-5822.325785
68.687723,-962.267725,11547.212695,-10189.070123
68.688032,814.226536,9326.594869,-9729.412825
68.688342,-0.000000,7179.997637,-2374.896044
68.688651,2368.659014,4885.359217,5975.544884
68.688961,1776.494261,4885.359217,10495.508323
68.689270,740.205942,4219.173869,10725.336972
68.689580,1110.308913,6217.729913,5132.839837
68.689889,962.267725,9104.533087,-2451.505594
68.690198,1554.432478,10584.944971,-7124.688131
68.690508,-1998.556043,13693.809927,-5592.497135
68.690817,-4737.318029,15914.427753,-5592.497135
68.691127,-370.102971,11843.295072,-10112.460574
68.691436,-74.020594,12435.459826,-9729.412825
68.691746,-814.226536,9918.759623,-4136.915689
68.692055,1110.308913,8956.491898,3983.696590
68.692365,2812.782580,6513.812290,8733.488677
68.692674,222.061783,5551.544565,9193.145976
68.692984,1924.535449,5995.668130,5669.106685
68.693293,1628.453072,6957.935855,383.047749
68.693602,2664.741391,8660.409521,-4826.401637
68.693912,-740.205942,11621.233289,-4673.182538
68.694221,-4737.318029,14730.098246,-2451.505594
68.694531,-4737.318029,13249.686362,-5592.497135
68.694840,-2220.617826,11843.295072,-10418.898773
68.695150,-222.061783,10881.027347,-10878.556072
68.695459,3997.112087,7994.224174,-6665.030833
68.695769,888.247130,8290.306550,1532.190996
68.696078,2960.823768,4737.318029,9806.022374
68.696387,1332.370696,4663.297435,10265.679673
68.696697,-370.102971,6217.729913,7737.564530
68.697006,1332.370696,7476.080014,306.438199
68.697316,2146.597232,9622.677246,-7507.735880
68.697625,370.102971,13471.748144,-10265.679673
68.697935,-3108.864956,13027.624579,-6281.983084
68.698244,-5255.462188,12065.356855,-5132.839837
68.698554,-1554.432478,12731.542202,-7354.516781
68.698863,518.144159,9844.739029,-6741.640382
68.699172,592.164754,8364.327145,-919.314598
68.699482,888.247130,7402.059420,7201.297681
68.699791,1110.308913,7402.059420,7277.907231
68.700101,518.144159,4737.318029,6358.592633
68.700410,2516.700203,7031.956449,1838.629195
68.700720,1110.308913,9326.594869,-2911.162892
68.701029,666.185348,10807.006753,-5286.058936
68.701339,-2812.782580,12361.439231,-2068.457845
68.701648,-5477.523971,13249.686362,-1991.848295
68.701958,-4071.132681,14434.015869,-6665.030833
68.702267,-1036.288319,11769.274478,-11874.480219
68.702576,-1258.350101,11325.150913,-15015.471761
68.702886,1924.535449,7550.100608,-2834.553343
68.703195,2516.700203,4515.256246,5975.544884
68.703505,2368.659014,5255.462188,11261.603821
68.703814,1036.288319,3923.091493,12180.918418
68.704124,370.102971,6587.832884,7048.078582
68.704433,1480.411884,7994.224174,-2374.896044
68.704743,1924.535449,11177.109724,-9193.145976
68.705052,-666.185348,13619.789333,-9193.145976
68.705361,-5625.565159,15766.386565,-11031.775171
68.705671,-2442.679609,15692.365970,-7277.907231
68.705980,-592.164754,12509.480420,-7277.907231
68.706290,592.164754,10140.821405,-2221.676944
68.706599,1332.370696,8808.450710,5362.668486
68.706909,3923.091493,6069.688724,10342.289223
68.707218,2368.659014,5403.503377,9346.365076
68.707528,1702.473667,5477.523971,5898.935335
68.707837,1702.473667,7624.121203,-383.047749
68.708147,962.267725,10066.800811,-3447.429741
68.708456,-1332.370696,11399.171507,-3830.477490
68.708765,-4219.173869,13619.789333,-2528.115143
68.709075,-5255.462188,15248.242405,-4903.011187
68.709384,-3404.947333,14434.015869,-9729.412825
68.709694,740.205942,10658.965565,-10725.336972
68.710003,1110.308913,6809.894666,-5898.935335
68.710313,2146.597232,4737.318029,2834.553343
68.710622,1998.556043,4219.173869,10342.289223
68.710932,1110.308913,3701.029710,12947.013916
68.711241,1776.494261,5551.544565,10112.460574
68.711550,1110.308913,5847.626942,459.657299
68.711860,962.267725,8660.409521,-5898.935335
68.712169,666.185348,13619.789333,-9269.755526
68.712479,-2738.761985,14285.974681,-11644.651570
68.712788,-3256.906145,14656.077652,-8656.879127
68.713098,-3034.844362,14285.974681,-7507.735880
68.713407,444.123565,10807.006753,-4826.401637
68.713717,1332.370696,9474.636058,1072.533697
68.714026,-0.000000,8364.327145,4903.011187
68.714335,3108.864956,7105.977043,8427.050478
68.714645,2220.617826,6217.729913,5056.230287
68.714954,2072.576638,6957.935855,0.000000
68.715264,2220.617826,9030.512492,-3983.696590
68.715573,-1332.370696,11399.171507,-4290.134789
68.715883,-2590.720797,13397.727550,-3677.258390
68.716192,-4737.318029,13471.748144,-3677.258390
68.716502,-4441.235652,13323.706956,-7354.516781
68.716811,-1850.514855,8290.306550,-10189.070123
68.717121,1924.535449,8438.347739,-9422.974625
68.717430,1480.411884,4515.256246,-1608.800546
68.717739,1332.370696,4663.297435,7814.174080
68.718049,2294.638420,4663.297435,12104.308868
68.718358,962.267725,3775.050304,6971.469032
68.718668,-888.247130,5033.400406,3983.696590
68.718977,518.144159,8882.471304,-2681.334243
68.719287,1628.453072,11325.150913,-9959.241474
68.719596,296.082377,14878.139434,-9269.755526
68.719906,-5773.606348,17098.757260,-6052.154434
68.720215,-1998.556043,15100.201217,-7507.735880
68.720524,-222.061783,11769.274478,-8273.831378
68.720834,296.082377,11029.068536,-2451.505594
68.721143,1332.370696,8364.327145,4519.963438
68.721453,3330.926739,5699.585753,8273.831378
68.721762,3552.988522,6587.832884,7890.783629
68.722072,1776.494261,5403.503377,4903.011187
68.722381,1998.556043,7105.977043,536.266849
68.722691,1036.288319,9104.533087,-4903.011187
68.723000,-518.144159,12879.583391,-6128.763984
68.723309,-2368.659014,14582.057057,-2757.943793
68.723619,-5255.462188,15174.221811,-3907.087040
68.723928,-2812.782580,13841.851115,-3677.258390
68.724238,1036.288319,9770.718434,-10495.508323
68.724547,1554.432478,6291.750507,-6588.421283
68.724857,2072.576638,6735.874072,2451.505594
68.725166,2220.617826,5255.462188,9652.803275
68.725476,592.164754,4737.318029,12027.699319
68.725785,888.247130,5329.482782,8044.002729
68.726095,-222.061783,6587.832884,1608.800546
68.726404,1184.329507,8956.491898,-6741.640382
68.726713,1406.391290,12139.377449,-6894.859482
68.727023,-1998.556043,13027.624579,-6281.983084
68.727332,-4663.297435,13915.871710,-4290.134789
68.727642,-2738.761985,14434.015869,-4903.011187
68.727951,666.185348,11325.150913,-5745.716235
68.728261,3404.947333,9992.780217,1991.848295
68.728570,1850.514855,8068.244768,5132.839837
68.728880,2442.679609,6883.915261,8120.612279
68.729189,1628.453072,6957.935855,6665.030833
68.729498,1480.411884,6809.894666,2834.553343
68.729808,1628.453072,8882.471304,-3064.381992
68.730117,740.205942,9474.636058,-5286.058936
68.730427,-518.144159,13175.665768,-4749.792088
68.730736,-4589.276840,12509.480420,-3447.429741
68.731046,-3552.988522,11103.089130,-6588.421283
68.731355,-1554.432478,10955.047942,-8810.098227
68.731665,1628.453072,7994.224174,-9269.755526
68.731974,3256.906145,6957.935855,-4366.744339
68.732284,1702.473667,4515.256246,5669.106685
68.732593,-74.020594,4737.318029,12563.966167
68.732902,222.061783,6217.729913,10189.070123
68.733212,-0.000000,6883.915261,2451.505594
68.733521,2294.638420,9178.553681,-6281.983084
68.733831,1258.350101,11251.130318,-6052.154434
68.734140,-2442.679609,14211.954086,-7507.735880
68.734450,-3627.009116,14063.912898,-3600.648841
68.734759,-3182.885551,13397.727550,-3600.648841
68.735069,-518.144159,11695.253884,-5439.278036
68.735378,-148.041188,10658.965565,-2374.896044
68.735687,2664.741391,7402.059420,1225.752797
68.735997,1776.494261,6439.791695,4979.620737
68.736306,2146.597232,5699.585753,7048.078582
68.736616,814.226536,6217.729913,4136.915689
68.736925,1110.308913,9178.553681,-1302.362347
68.737234,1332.370696,9696.697840,-3907.087040
68.737544,-296.082377,11917.315666,-3677.258390
68.737853,-2960.823768,12509.480420,-919.314598
68.738163,-8068.244768,16062.468941,-2834.553343
68.738472,-1702.473667,11325.150913,-7584.345430
68.738781,814.226536,11103.089130,-11951.089769
68.739091,2146.597232,8438.347739,-8580.269578
68.739400,2146.597232,6809.894666,1685.410096
68.739710,-1110.308913,7105.977043,11184.994271
68.740019,1110.308913,5773.606348,10801.946522
68.740329,-222.061783,5403.503377,7354.516781
68.740638,370.102971,7254.018232,76.609550
68.740947,2368.659014,9474.636058,-8427.050478
68.741257,1776.494261,11251.130318,-8733.488677
68.741566,-2146.597232,13471.748144,-4060.306139
68.741876,-4293.194464,12953.603985,-1455.581446
68.742185,-2442.679609,12065.356855,-2987.772442
68.742494,-74.020594,10955.047942,-5898.935335
68.742804,1480.411884,9326.594869,-2757.943793
68.743113,3330.926739,7994.224174,2451.505594
68.743423,1924.535449,5329.482782,6665.030833
68.743732,888.247130,7550.100608,7354.516781
68.744042,3775.050304,7476.080014,3064.381992
68.744351,1036.288319,8660.409521,-306.438199
68.744660,-1110.308913,11547.212695,-1225.752797
68.744970,-2146.597232,13767.830521,-2298.286494
68.745279,-4219.173869,12583.501014,-76.609550
68.745589,-3182.885551,12953.603985,-6588.421283
68.745898,-1480.411884,12213.398043,-9576.193725
68.746207,1184.329507,8512.368333,-8963.317327
68.746517,1184.329507,6143.709319,-2068.457845
68.746826,1110.308913,2368.659014,7201.297681
68.747136,666.185348,4885.359217,10955.165621
68.747445,296.082377,5551.544565,9422.974625
68.747754,-444.123565,6365.771101,2145.067394
68.748064,3034.844362,8586.388927,-6818.249932
68.748373,1036.288319,10140.821405,-9652.803275
68.748683,-962.267725,11843.295072,-4903.011187
68.748992,-3256.906145,12731.542202,-2604.724693
68.749302,-2886.803174,12953.603985,-4903.011187
68.749611,222.061783,11843.295072,-3907.087040
68.749920,962.267725,9474.636058,-4290.134789
68.750230,2072.576638,8290.306550,-1072.533697
68.750539,2812.782580,6809.894666,3524.039291
68.750849,666.185348,7476.080014,6511.811733
68.751158,-222.061783,8438.347739,4519.963438
68.751467,1110.308913,9104.533087,0.000000
68.751777,1110.308913,10288.862594,-4366.744339
68.752086,-74.020594,11917.315666,-4826.401637
68.752396,-814.226536,12139.377449,-459.657299
68.752705,-5033.400406,13249.686362,-2911.162892
68.753015,-2368.659014,11991.336260,-6588.421283
68.753324,740.205942,9400.615463,-10955.165621
68.753633,1184.329507,7105.977043,-7967.393179
68.753943,-0.000000,6661.853478,1302.362347
68.754252,1184.329507,6365.771101,8044.002729
68.754562,-370.102971,5551.544565,10035.851024
68.754871,-0.000000,5699.585753,6358.592633
68.755180,296.082377,6661.853478,-2298.286494
68.755490,3775.050304,9770.718434,-8656.879127
68.755799,1480.411884,12065.356855,-8273.831378
68.756109,-2442.679609,13249.686362,-3753.867940
68.756418,-4071.132681,13767.830521,-1532.190996
68.756727,-1998.556043,12065.356855,-2451.505594
68.757037,444.123565,12065.356855,-5669.106685
68.757346,2368.659014,10066.800811,-4903.011187
68.757656,1850.514855,8660.409521,459.657299
68.757965,1628.453072,6809.894666,6205.373534
68.758275,2886.803174,4293.194464,7890.783629
68.758584,1480.411884,8512.368333,3064.381992
68.758893,888.247130,8660.409521,-689.485948
68.759203,1924.535449,10584.944971,-3294.210641
68.759512,-1406.391290,11621.233289,-2068.457845
68.759822,-4589.276840,12879.583391,-1608.800546
68.760131,-3627.009116,12731.542202,-4826.401637
68.760440,-1184.329507,11177.109724,-10112.460574
68.760750,962.267725,8956.491898,-9806.022374
68.761059,-296.082377,5847.626942,-5209.449386
68.761369,444.123565,6439.791695,5286.058936
68.761678,-0.000000,6069.688724,10801.946522
68.761987,666.185348,4959.379811,10265.679673
68.762297,-666.185348,5329.482782,3983.696590
68.762606,962.267725,6069.688724,-2681.334243
68.762916,2146.597232,9548.656652,-8197.221829
68.763225,814.226536,12509.480420,-7277.907231
68.763535,-3997.112087,13619.789333,-1532.190996
68.763844,-2220.617826,12953.603985,2068.457845
68.764153,-296.082377,13175.665768,-5898.935335
68.764463,3034.844362,11473.192101,-8273.831378
68.764772,1480.411884,9252.574275,-2298.286494
68.765082,444.123565,7772.162391,5669.106685
68.765391,-814.226536,8734.430116,6894.859482
68.765700,2664.741391,7698.141797,4903.011187
68.766010,2368.659014,8660.409521,459.657299
68.766319,296.082377,9252.574275,-919.314598
68.766629,296.082377,10214.842000,-2068.457845
68.766938,-2590.720797,12213.398043,-2528.115143
68.767248,-3552.988522,13619.789333,-5362.668486
68.767557,-3404.947333,11991.336260,-7967.393179
68.767866,-370.102971,9474.636058,-10572.117872
68.768176,3552.988522,8068.244768,-7584.345430
68.768485,2738.761985,6291.750507,0.000000
68.768795,-0.000000,5551.544565,8733.488677
68.769104,-1036.288319,5107.421000,11568.042020
68.769413,814.226536,5255.462188,6511.811733
68.769723,1850.514855,7105.977043,-1838.629195
68.770032,2368.659014,8882.471304,-7507.735880
68.770342,-222.061783,10881.027347,-8120.612279
68.770651,-2368.659014,13175.665768,-4979.620737
68.770960,-4293.194464,13619.789333,-6435.202183
68.771270,-2146.597232,13471.748144,-6435.202183
68.771579,-148.041188,12657.521608,-5898.935335
68.771889,2368.659014,10807.006753,-2987.772442
68.772198,2812.782580,7624.121203,842.705048
68.772508,1776.494261,3552.988522,4903.011187
68.772817,148.041188,5255.462188,8350.440928
68.773126,814.226536,6661.853478,4749.792088
68.773436,3182.885551,8660.409521,-2221.676944
68.773745,1776.494261,10955.047942,-5132.839837
68.774055,-1924.535449,12879.583391,-2451.505594
68.774364,-4441.235652,13989.892304,-2068.457845
68.774673,-3701.029710,13915.871710,-6052.154434
68.774983,-814.226536,13101.645173,-11644.651570
68.775292,2072.576638,9400.615463,-11414.822920
68.775602,888.247130,7476.080014,-4979.620737
68.775911,2442.679609,4737.318029,4903.011187
68.776221,666.185348,4663.297435,10265.679673
68.776530,-74.020594,4737.318029,11951.089769
68.776839,-1184.329507,4441.235652,6971.469032
68.777149,2886.803174,6883.915261,-4596.572988
68.777458,3701.029710,9400.615463,-9346.365076
68.777768,-1702.473667,11991.336260,-5439.278036
68.778077,-3775.050304,13989.892304,459.657299
68.778386,-3775.050304,14508.036463,-4213.525239
68.778696,-888.247130,13989.892304,-7660.954980
68.779005,148.041188,11843.295072,-6971.469032
68.779315,1924.535449,9104.533087,-1455.581446
68.779624,1628.453072,7624.121203,3524.039291
68.779933,1628.453072,7105.977043,9806.022374
68.780243,1258.350101,7105.977043,9193.145976
68.780552,2072.576638,6291.750507,3677.258390
68.780862,1406.391290,8586.388927,-229.828649
68.781171,666.185348,11547.212695,-3677.258390
68.781481,-2664.741391,13175.665768,-3753.867940
68.781790,-5255.462188,15692.365970,-4749.792088
68.782099,-3256.906145,14508.036463,-8273.831378
68.782409,-518.144159,11251.130318,-14096.157163
68.782718,592.164754,8586.388927,-8503.660028
68.783028,518.144159,6217.729913,2374.896044
68.783337,370.102971,3478.967927,9499.584175
68.783646,1480.411884,4219.173869,12257.527968
68.783956,-2516.700203,1850.514855,12487.356617
68.784265,740.205942,5181.441594,2451.505594
68.784575,2960.823768,7772.162391,-6128.763984
68.784884,296.082377,9918.759623,-8656.879127
68.785193,-3997.112087,14285.974681,-4213.525239
68.785503,-4811.338623,16358.551318,-4903.011187
68.785812,-3182.885551,15100.201217,-10648.727422
68.786122,-444.123565,12139.377449,-9806.022374
68.786431,2294.638420,9770.718434,-4136.915689
68.786741,1406.391290,8068.244768,0.000000
68.787050,2146.597232,7402.059420,9576.193725
68.787359,1184.329507,6365.771101,11184.994271
68.787669,1924.535449,5995.668130,4290.134789
68.787978,3034.844362,8660.409521,-1225.752797
68.788288,2738.761985,9474.636058,-4443.353888
68.788597,-370.102971,12435.459826,-5362.668486
68.788906,-4737.318029,14211.954086,-4136.915689
68.789216,-4885.359217,14656.077652,-6665.030833
68.789525,-1554.432478,11325.150913,-13406.671215
68.789835,1776.494261,9400.615463,-12257.527968
68.790144,1406.391290,7105.977043,-4903.011187
68.790454,1110.308913,5329.482782,5056.230287
68.790763,666.185348,3256.906145,11951.089769
68.791072,962.267725,1184.329507,12257.527968
68.791382,2072.576638,5181.441594,5515.887586
68.791691,1554.432478,8068.244768,-3524.039291
68.792001,2442.679609,10881.027347,-9039.926876
68.792310,-1332.370696,11917.315666,-7890.783629
68.792619,-4737.318029,15026.180623,-4903.011187
68.792929,-4515.256246,14730.098246,-5209.449386
68.793238,-2146.597232,15100.201217,-8886.707777
68.793548,1628.453072,10658.965565,-8886.707777
68.793857,-0.000000,7994.224174,-4136.915689
68.794166,2590.720797,5921.647536,5975.544884
68.794476,1184.329507,4219.173869,10418.898773
68.794785,222.061783,6143.709319,10189.070123
68.795095,1924.535449,7624.121203,4213.525239
68.795404,3330.926739,9844.739029,-4749.792088
68.795714,2516.700203,11621.233289,-7354.516781
68.796023,-3404.947333,13841.851115,-4519.963438
68.796332,-5255.462188,15766.386565,-4596.572988
68.796642,-3478.967927,14730.098246,-4290.134789
68.796951,444.123565,11547.212695,-10035.851024
68.797261,814.226536,7698.141797,-6588.421283
68.797570,1184.329507,5551.544565,1685.410096
68.797879,1258.350101,2738.761985,9269.755526
68.798189,888.247130,5477.523971,11568.042020
68.798498,814.226536,5403.503377,10035.851024
68.798808,962.267725,6883.915261,1532.190996
68.799117,2886.803174,8956.491898,-6128.763984
68.799427,814.226536,11621.233289,-6971.469032
68.799736,-4737.318029,13397.727550,-3907.087040
68.800045,-6439.791695,16136.489536,-3524.039291
68.800355,-2220.617826,15100.201217,-8120.612279
68.800664,-296.082377,10807.006753,-9039.926876
68.800974,592.164754,11547.212695,-153.219100
68.801283,1998.556043,6439.791695,2298.286494
68.801592,2146.597232,5181.441594,9422.974625
68.801902,370.102971,5403.503377,12640.575717
68.802211,1850.514855,6513.812290,7124.688131
68.802521,1110.308913,8216.285956,0.000000
68.802830,1850.514855,9252.574275,-5286.058936
68.803139,-1332.370696,12139.377449,-5669.106685
68.803449,-4737.318029,13989.892304,-5132.839837
68.803758,-3775.050304,16136.489536,-7048.078582
68.804068,-3256.906145,12065.356855,-10495.508323
68.804377,1924.535449,10881.027347,-10418.898773
68.804687,2146.597232,7698.141797,-3294.210641
68.804996,1332.370696,4811.338623,6052.154434
68.805305,296.082377,6513.812290,12027.699319
68.805615,2294.638420,3923.091493,10418.898773
68.805924,1258.350101,4515.256246,3830.477490
68.806234,666.185348,8808.450710,-2987.772442
68.806543,1258.350101,11547.212695,-8886.707777
68.806852,-1702.473667,13249.686362,-9346.365076
68.807162,-4145.153275,16062.468941,-5822.325785
68.807471,-3997.112087,13915.871710,-6741.640382
68.807781,-740.205942,13767.830521,-8580.269578
68.808090,3701.029710,7846.182985,-8044.002729
68.808399,740.205942,6217.729913,0.000000
68.808709,3256.906145,3330.926739,7584.345430
68.809018,666.185348,3552.988522,12257.527968
68.809328,1776.494261,7179.997637,9882.631924
68.809637,-1332.370696,6365.771101,766.095498
68.809947,2072.576638,11177.109724,-6588.421283
68.810256,-0.000000,12879.583391,-7354.516781
68.810565,-3552.988522,15396.283594,-5975.544884
68.810875,-5847.626942,16802.674883,-6588.421283
68.811184,-2368.659014,15174.221811,-7660.954980
68.811494,888.247130,11695.253884,-10801.946522
68.811803,1036.288319,8068.244768,-6818.249932
68.812112,2664.741391,5551.544565,3600.648841
68.812422,2960.823768,3701.029710,9882.631924
68.812731,1924.535449,3849.070898,12104.308868
68.813041,1628.453072,4663.297435,6741.640382
68.813350,888.247130,6365.771101,-1225.752797
68.813660,1776.494261,9474.636058,-8503.660028
68.813969,1258.350101,10955.047942,-8427.050478
68.814278,-3108.864956,14211.954086,-4443.353888
68.814588,-5107.421000,15174.221811,-2604.724693
68.814897,-2072.576638,14137.933492,-6128.763984
68.815207,666.185348,11177.109724,-9729.412825
68.815516,1776.494261,8882.471304,-3677.258390
68.815825,2738.761985,6587.832884,3064.381992
68.816135,2072.576638,5403.503377,8580.269578
68.816444,962.267725,6291.750507,10878.556072
68.816754,814.226536,8290.306550,5515.887586
68.817063,2516.700203,9030.512492,-1072.533697
68.817372,1776.494261,9770.718434,-4903.011187
68.817682,-2738.761985,12583.501014,-4596.572988
68.817991,-4589.276840,13027.624579,-3830.477490
68.818301,-4219.173869,13619.789333,-5515.887586
68.818610,-1036.288319,13915.871710,-10035.851024
68.818920,222.061783,9770.718434,-8810.098227
68.819229,1554.432478,6661.853478,-2298.286494
68.819538,3330.926739,4811.338623,7431.126331
68.819848,1998.556043,4441.235652,12257.527968
68.820157,888.247130,3997.112087,11108.384721
68.820467,-0.000000,5921.647536,4673.182538
68.820776,1776.494261,7328.038826,-3830.477490
68.821085,4367.215058,8734.430116,-8810.098227
68.821395,-2368.659014,13545.768739,-7967.393179
68.821704,-4737.318029,14730.098246,-3447.429741
68.822014,-4737.318029,14508.036463,-4443.353888
68.822323,-518.144159,13693.809927,-8733.488677
68.822633,3404.947333,10140.821405,-8350.440928
68.822942,962.267725,6513.812290,-459.657299
68.823251,1036.288319,4219.173869,8044.002729
68.823561,2146.597232,5625.565159,10878.556072
68.823870,444.123565,7105.977043,7277.907231
68.824180,1036.288319,9030.512492,2451.505594
68.824489,1850.514855,10140.821405,-5286.058936
68.824798,888.247130,11843.295072,-8273.831378
68.825108,-3627.009116,14137.933492,-4903.011187
68.825417,-4959.379811,16062.468941,-4749.792088
68.825727,-1924.535449,13989.892304,-8656.879127
68.826036,-1036.288319,9770.718434,-9116.536426
68.826345,1480.411884,7254.018232,-4213.525239
68.826655,2294.638420,4293.194464,2911.162892
68.826964,888.247130,3627.009116,7660.954980
68.827274,444.123565,4737.318029,12180.918418
68.827583,1480.411884,6439.791695,5822.325785
68.827893,1332.370696,8660.409521,-3294.210641
68.828202,-814.226536,10658.965565,-7431.126331
68.828511,444.123565,10807.006753,-8120.612279
68.828821,-2960.823768,13397.727550,-4596.572988
68.829130,-4737.318029,14137.933492,-1685.410096
68.829440,-2886.803174,13323.706956,-4443.353888
68.829749,1924.535449,10140.821405,-8350.440928
68.830058,2220.617826,7105.977043,-4213.525239
68.830368,1924.535449,6661.853478,3140.991542
68.830677,1850.514855,6957.935855,7277.907231
68.830987,444.123565,7698.141797,10112.460574
68.831296,1628.453072,9326.594869,3907.087040
68.831605,2368.659014,9844.739029,-3370.820191
68.831915,1998.556043,9622.677246,-6665.030833
68.832224,-1998.556043,11843.295072,-3064.381992
68.832534,-5477.523971,13323.706956,-1685.410096
68.832843,-4145.153275,13619.789333,-4519.963438
68.833153,370.102971,12213.398043,-8350.440928
68.833462,518.144159,8438.347739,-8580.269578
68.833771,3256.906145,6587.832884,-5669.106685
68.834081,1628.453072,5995.668130,4060.306139
68.834390,-0.000000,4885.359217,9806.022374
68.834700,148.041188,5107.421000,11031.775171
68.835009,666.185348,5551.544565,4519.963438
68.835318,-222.061783,6513.812290,3217.601092
68.835628,1998.556043,10066.800811,-6665.030833
68.835937,-2886.803174,11843.295072,-5209.449386
68.836247,-4367.215058,14508.036463,-3064.381992
68.836556,-2664.741391,14211.954086,-4290.134789
68.836866,-1406.391290,13175.665768,-7201.297681
68.837175,2072.576638,10140.821405,-5975.544884
68.837484,518.144159,6957.935855,689.485948
68.837794,1036.288319,5329.482782,7354.516781
68.838103,962.267725,8512.368333,6435.202183
68.838413,1110.308913,6883.915261,5286.058936
68.838722,1628.453072,7550.100608,-612.876398
68.839032,2738.761985,9474.636058,-5669.106685
68.839341,444.123565,10658.965565,-5209.449386
68.839651,-4811.338623,13471.748144,-536.266849
68.839960,-4219.173869,14878.139434,-3294.210641
68.840270,-1036.288319,12953.603985,-8656.879127
68.840579,962.267725,10066.800811,-10572.117872
68.840889,-518.144159,7402.059420,-4136.915689
68.841198,2368.659014,5995.668130,1072.533697
68.841508,814.226536,5329.482782,7660.954980
68.841817,222.061783,6587.832884,11338.213370
68.842127,814.226536,7179.997637,6818.249932
68.842436,814.226536,8808.450710,-4903.011187
68.842746,2294.638420,8660.409521,-8733.488677
68.843055,-1850.514855,10881.027347,-5975.544884
68.843365,-3256.906145,12953.603985,-3217.601092
68.843674,-3404.947333,14359.995275,-5132.839837
68.843984,-518.144159,14952.160028,-7660.954980
68.844293,444.123565,10066.800811,-6205.373534
68.844603,1258.350101,9030.512492,-2451.505594
68.844912,1702.473667,6957.935855,3294.210641
68.845222,74.020594,5477.523971,10189.070123
68.845531,222.061783,7179.997637,7124.688131
68.845841,2590.720797,6439.791695,842.705048
68.846150,2294.638420,9030.512492,-4673.182538
68.846460,592.164754,10436.903782,-5439.278036
68.846769,-2960.823768,10510.924376,-1685.410096
68.847079,-5181.441594,13841.851115,-536.266849
68.847388,-2590.720797,13471.748144,-5515.887586
68.847698,962.267725,12435.459826,-10572.117872
68.848007,814.226536,9104.533087,-9499.584175
68.848317,1924.535449,7698.141797,-3064.381992
68.848626,1184.329507,5255.462188,3983.696590
68.848936,1332.370696,4811.338623,9116.536426
68.849245,444.123565,6143.709319,10265.679673
68.849555,888.247130,8586.388927,2987.772442
68.849864,1998.556043,8142.265362,-4290.134789
68.850174,740.205942,9696.697840,-6588.421283
68.850483,-2072.576638,12139.377449,-3983.696590
68.850793,-4145.153275,14137.933492,-3217.601092
68.851102,-1850.514855,15396.283594,-9193.145976
68.851412,296.082377,13175.665768,-9576.193725
68.851721,1332.370696,11325.150913,-6281.983084
68.852031,962.267725,7846.182985,1378.971896
68.852340,-666.185348,7624.121203,10035.851024
68.852650,370.102971,6143.709319,9959.241474
68.852959,2368.659014,5773.606348,6052.154434
68.853269,2146.597232,5995.668130,1072.533697
68.853578,1332.370696,8882.471304,-2604.724693
68.853888,-888.247130,10955.047942,-2911.162892
68.854197,-4071.132681,13101.645173,-1378.971896
68.854507,-3552.988522,15174.221811,-2221.676944
68.854816,-1110.308913,13249.686362,-8350.440928
68.855126,-888.247130,11843.295072,-11491.432470
68.855435,-0.000000,8882.471304,-7967.393179
68.855745,740.205942,6069.688724,76.609550
68.856054,1924.535449,5921.647536,6128.763984
68.856364,-0.000000,6587.832884,11031.775171
68.856673,2590.720797,7772.162391,6894.859482
68.856983,2220.617826,5181.441594,-459.657299
68.857292,2368.659014,8290.306550,-6128.763984
68.857602,-370.102971,9696.697840,-4290.134789
68.857911,-4737.318029,12879.583391,-3677.258390
68.858221,-2812.782580,14434.015869,-9116.536426
68.858530,-74.020594,13175.665768,-9652.803275
68.858840,-0.000000,11991.336260,-8810.098227
68.859149,444.123565,8364.327145,-3370.820191
68.859459,592.164754,6069.688724,5898.935335
68.859768,1258.350101,5847.626942,8503.660028
68.860078,1036.288319,6069.688724,8044.002729
68.860387,1850.514855,7105.977043,3370.820191
68.860697,2960.823768,9770.718434,-2987.772442
68.861006,1702.473667,9178.553681,-3677.258390
68.861316,-2294.638420,11769.274478,-2987.772442
68.861625,-4145.153275,14063.912898,-1762.019645
68.861935,-3182.885551,14211.954086,-6511.811733
68.862244,-518.144159,14137.933492,-11031.775171
68.862554,370.102971,9770.718434,-10418.898773
68.862863,814.226536,6587.832884,-3677.258390
68.863173,1110.308913,5329.482782,3907.087040
68.863482,962.267725,4959.379811,9652.803275
68.863792,1628.453072,4663.297435,12793.794817
68.864101,1554.432478,5773.606348,3524.039291
68.864411,2294.638420,7402.059420,-2451.505594
68.864720,1924.535449,9326.594869,-5669.106685
68.865030,-2220.617826,12509.480420,-4903.011187
68.865339,-4885.359217,13989.892304,-2757.943793
68.865649,-2516.700203,14878.139434,-7431.126331
68.865958,-814.226536,12953.603985,-10725.336972
