#time,accel_x,accel_y,accel_z
167.584436,444.123565,9622.677246,-995.924147
167.584746,-0.000000,9178.553681,-1072.533697
167.585056,-0.000000,9400.615463,-995.924147
167.585366,-148.041188,8586.388927,-612.876398
167.585676,-0.000000,9178.553681,-1455.581446
167.585986,-370.102971,10214.842000,-306.438199
167.586295,-74.020594,10140.821405,-459.657299
167.586605,-2590.720797,9548.656652,-1072.533697
167.586915,814.226536,8882.471304,-2221.676944
167.587225,-740.205942,8586.388927,-1685.410096
167.587535,296.082377,9696.697840,-229.828649
167.587845,-0.000000,10362.883188,-306.438199
167.588154,-370.102971,9030.512492,-1455.581446
167.588464,740.205942,9474.636058,-1378.971896
167.588774,-0.000000,9030.512492,-1915.238745
167.589084,-0.000000,9178.553681,-689.485948
167.589394,-1184.329507,10288.862594,-76.609550
167.589704,1036.288319,8734.430116,766.095498
167.590013,1702.473667,7698.141797,536.266849
167.590323,4811.338623,6957.935855,612.876398
167.590633,1998.556043,6365.771101,7124.688131
167.590943,-222.061783,7402.059420,13176.842566
167.591253,148.041188,5773.606348,10725.336972
167.591563,6587.832884,8512.368333,5975.544884
167.591872,4515.256246,5773.606348,3524.039291
167.592182,-444.123565,9178.553681,9116.536426
167.592492,-888.247130,11399.171507,13713.109414
167.592802,1480.411884,11325.150913,7660.954980
167.593112,888.247130,11547.212695,5362.668486
167.593421,-296.082377,11695.253884,10189.070123
167.593731,-5033.400406,12953.603985,10265.679673
167.594041,-6883.915261,25167.002028,0.000000
167.594351,13619.789333,5847.626942,-1762.019645
167.594661,-0.000000,9844.739029,14709.033562
167.594971,-16210.510130,9474.636058,32865.496864
167.595280,4811.338623,20133.601622,6128.763984
167.595590,-2368.659014,3478.967927,-4903.011187
167.595900,962.267725,11399.171507,2374.896044
167.596210,-13619.789333,3404.947333,12793.794817
167.596520,1480.411884,13841.851115,1915.238745
167.596830,-0.000000,6365.771101,4213.525239
167.597139,-7105.977043,5107.421000,14862.252661
167.597449,6365.771101,5033.400406,12947.013916
167.597759,-6439.791695,-1258.350101,10878.556072
167.598069,3256.906145,8068.244768,14709.033562
167.598379,-4737.318029,5107.421000,14096.157163
167.598689,740.205942,8808.450710,612.876398
167.598998,-888.247130,8956.491898,5056.230287
167.599308,-0.000000,14359.995275,1608.800546
167.599618,3256.906145,11325.150913,-1149.143247
167.599928,1332.370696,12805.562797,12870.404366
167.600238,2220.617826,10584.944971,22446.598091
167.600548,814.226536,3552.988522,19152.387450
167.600857,3404.947333,8364.327145,9499.584175
167.601167,-3108.864956,5181.441594,10955.165621
167.601477,3404.947333,14211.954086,1685.410096
167.601787,6217.729913,15396.283594,-4903.011187
167.602097,2960.823768,17172.777854,1608.800546
167.602407,-3627.009116,15618.345376,14709.033562
167.602716,-7105.977043,10881.027347,18386.291952
167.603026,666.185348,11917.315666,8503.660028
167.603336,4441.235652,7994.224174,-4749.792088
167.603646,4293.194464,7994.224174,-4979.620737
167.603956,-1480.411884,8438.347739,11261.603821
167.604266,-74.020594,12065.356855,16394.443657
167.604575,296.082377,8364.327145,10342.289223
167.604885,5181.441594,6143.709319,4826.401637
167.605195,-1406.391290,3997.112087,6435.202183
167.605505,-6365.771101,2368.659014,6052.154434
167.605815,-4145.153275,6735.874072,4826.401637
167.606124,5181.441594,9030.512492,-4979.620737
167.606434,7476.080014,9770.718434,-5209.449386
167.606744,-1554.432478,8364.327145,11491.432470
167.607054,-8512.368333,8660.409521,23519.131789
167.607364,-370.102971,11621.233289,12257.527968
167.607674,7031.956449,9474.636058,-4060.306139
167.607983,148.041188,9474.636058,-1685.410096
167.608293,-7994.224174,13249.686362,5822.325785
167.608603,-148.041188,12805.562797,-3140.991542
167.608913,9622.677246,14211.954086,-9499.584175
167.609223,2368.659014,11769.274478,8273.831378
167.609533,-5995.668130,7476.080014,26813.342430
167.609842,2220.617826,5773.606348,21220.845295
167.610152,6069.688724,4589.276840,6052.154434
167.610462,-148.041188,4811.338623,7354.516781
167.610772,-0.000000,6661.853478,9652.803275
167.611082,4367.215058,4367.215058,-2451.505594
167.611392,2590.720797,8068.244768,3064.381992
167.611701,-4367.215058,13323.706956,18309.682402
167.612011,-6069.688724,18283.086767,22523.207641
167.612321,13693.809927,11103.089130,1608.800546
167.612631,4293.194464,4293.194464,3753.867940
167.612941,-1258.350101,7920.203579,-2451.505594
167.613251,-5403.503377,3627.009116,10265.679673
167.613560,13915.871710,19689.478057,5515.887586
167.613870,3034.844362,12805.562797,3753.867940
167.614180,-6587.832884,14804.118840,21374.064394
167.614490,-3627.009116,12435.459826,20684.578446
167.614800,-1850.514855,5329.482782,459.657299
167.615110,8216.285956,15396.283594,-3447.429741
167.615419,-1628.453072,8808.450710,5669.106685
167.615729,-3627.009116,9844.739029,4290.134789
167.616039,3478.967927,15174.221811,10265.679673
167.616349,740.205942,15322.262999,9576.193725
167.616659,4293.194464,8734.430116,612.876398
167.616969,-2812.782580,9548.656652,16394.443657
167.617278,-4515.256246,9844.739029,25204.541884
167.617588,2146.597232,3552.988522,10035.851024
167.617898,9770.718434,6513.812290,2374.896044
167.618208,-3478.967927,740.205942,11414.822920
167.618518,2442.679609,6809.894666,11184.994271
167.618827,1924.535449,9770.718434,7431.126331
167.619137,-6587.832884,10362.883188,13330.061665
167.619447,4811.338623,13693.809927,11108.384721
167.619757,1036.288319,8216.285956,3524.039291
167.620067,-1998.556043,6809.894666,4979.620737
167.620377,-7254.018232,8216.285956,13789.718964
167.620686,-4219.173869,11695.253884,9729.412825
167.620996,2516.700203,13471.748144,2911.162892
167.621306,5699.585753,13545.768739,2681.334243
167.621616,-2886.803174,13027.624579,11951.089769
167.621926,-7920.203579,13027.624579,14096.157163
167.622236,666.185348,13767.830521,3140.991542
167.622545,3108.864956,8438.347739,-1915.238745
167.622855,3034.844362,7846.182985,-2145.067394
167.623165,-5847.626942,5625.565159,8733.488677
167.623475,-444.123565,8290.306550,14019.547613
167.623785,1850.514855,5403.503377,8963.317327
167.624095,6069.688724,3034.844362,7584.345430
167.624404,-3256.906145,4441.235652,12640.575717
167.624714,-7846.182985,1184.329507,12487.356617
167.625024,6291.750507,9696.697840,1532.190996
167.625334,6883.915261,9844.739029,-6741.640382
167.625644,3034.844362,10955.047942,3983.696590
167.625954,-2738.761985,12657.521608,19152.387450
167.626263,1554.432478,5551.544565,19458.825649
167.626573,3849.070898,11325.150913,2604.724693
167.626883,-4145.153275,2294.638420,11797.870669
167.627193,-666.185348,11917.315666,8886.707777
167.627503,-814.226536,12139.377449,-4903.011187
167.627813,4737.318029,16358.551318,-13713.109414
167.628122,962.267725,11399.171507,1608.800546
167.628432,-1702.473667,16210.510130,16011.395908
167.628742,7328.038826,9992.780217,7507.735880
167.629052,2442.679609,7772.162391,8350.440928
167.629362,-4959.379811,7402.059420,19612.044749
167.629672,-1702.473667,4663.297435,10189.070123
167.629981,13767.830521,2812.782580,-6358.592633
167.630291,962.267725,5255.462188,-2987.772442
167.630601,-1110.308913,6661.853478,12104.308868
167.630911,-3701.029710,5995.668130,17543.586904
167.631221,5107.421000,6735.874072,8580.269578
167.631530,-3923.091493,4811.338623,10648.727422
167.631840,-8438.347739,7550.100608,10648.727422
167.632150,3034.844362,12139.377449,-5515.887586
167.632460,-2664.741391,7105.977043,-8350.440928
167.632770,1924.535449,18949.272115,459.657299
167.633080,-4737.318029,14582.057057,5975.544884
167.633389,-4959.379811,13619.789333,4290.134789
167.633699,-10362.883188,15988.448347,12793.794817
167.634009,-2368.659014,18505.148550,536.266849
167.634319,4959.379811,12879.583391,-14096.157163
167.634629,-4589.276840,5773.606348,-1532.190996
167.634939,1184.329507,12287.418637,9806.022374
167.635248,2294.638420,3108.864956,-995.924147
167.635558,5699.585753,1554.432478,229.828649
167.635868,-4145.153275,4811.338623,17390.367805
167.636178,-3552.988522,592.164754,9499.584175
167.636488,9326.594869,2960.823768,-5898.935335
167.636798,-3330.926739,1110.308913,-842.705048
167.637107,2072.576638,4145.153275,7737.564530
167.637417,6143.709319,5033.400406,2451.505594
167.637727,-4737.318029,8882.471304,7431.126331
167.638037,-3775.050304,16358.551318,16471.053207
167.638347,1036.288319,11843.295072,-3600.648841
167.638656,5625.565159,16284.530724,-15858.176809
167.638966,1332.370696,20873.807564,-4136.915689
167.639276,-3256.906145,14582.057057,6205.373534
167.639585,-2516.700203,15618.345376,3294.210641
167.639895,-2072.576638,12879.583391,2221.676944
167.640205,6809.894666,11991.336260,-3064.381992
167.640514,1776.494261,9548.656652,-3830.477490
167.640824,-3256.906145,12657.521608,0.000000
167.641134,2368.659014,11843.295072,7048.078582
167.641443,7698.141797,8142.265362,-689.485948
167.641753,2146.597232,5699.585753,766.095498
167.642063,-10288.862594,2960.823768,10342.289223
167.642372,-6143.709319,7994.224174,4903.011187
167.642682,3404.947333,7254.018232,-14479.204912
167.642992,2886.803174,11621.233289,-12257.527968
167.643301,-2294.638420,14285.974681,3294.210641
167.643611,296.082377,7698.141797,5439.278036
167.643921,-4737.318029,6143.709319,5286.058936
167.644230,-5107.421000,4663.297435,6205.373534
167.644540,4589.276840,5403.503377,-7354.516781
167.644850,1998.556043,11399.171507,-12717.185267
167.645159,-8512.368333,9918.759623,5592.497135
167.645469,1110.308913,12361.439231,3140.991542
167.645779,5107.421000,7105.977043,-6205.373534
167.646088,3034.844362,7624.121203,-2221.676944
167.646398,-4589.276840,4293.194464,8350.440928
167.646708,-814.226536,-666.185348,8810.098227
167.647017,5477.523971,7698.141797,2374.896044
167.647327,2368.659014,15322.262999,7201.297681
167.647637,9918.759623,9400.615463,3294.210641
167.647946,-666.185348,11917.315666,1532.190996
167.648256,-8290.306550,15396.283594,2068.457845
167.648566,7402.059420,15988.448347,-10572.117872
167.648876,4441.235652,17468.860231,-16624.272307
167.649185,-3923.091493,20503.704593,2221.676944
167.649495,-2886.803174,13841.851115,5056.230287
167.649805,518.144159,4293.194464,-1685.410096
167.650114,-2220.617826,10510.924376,-3217.601092
167.650424,-5477.523971,8734.430116,5439.278036
167.650734,6069.688724,2738.761985,-7814.174080
167.651043,1628.453072,8216.285956,-10801.946522
167.651353,-1480.411884,11917.315666,8273.831378
167.651663,1110.308913,296.082377,9882.631924
167.651972,296.082377,1628.453072,-3447.429741
167.652282,-10732.986159,-2072.576638,10265.679673
167.652592,-3775.050304,5773.606348,8963.317327
167.652901,3256.906145,13989.892304,-18769.339701
167.653211,-962.267725,12065.356855,-22829.645840
167.653521,-1480.411884,21095.869347,-1685.410096
167.653830,-5551.544565,12287.418637,-4979.620737
167.654140,-3256.906145,8068.244768,-4903.011187
167.654450,-2886.803174,11177.109724,9882.631924
167.654759,-148.041188,4959.379811,2757.943793
167.655069,7698.141797,4959.379811,-14249.376263
167.655379,-0.000000,10066.800811,842.705048
167.655688,1184.329507,6291.750507,9422.974625
167.655998,9918.759623,7920.203579,-6281.983084
167.656308,-518.144159,5403.503377,-1072.533697
167.656617,-4737.318029,4145.153275,16547.662757
167.656927,-0.000000,10510.924376,-1378.971896
167.657237,370.102971,4071.132681,-17773.415554
167.657546,6809.894666,17394.839637,-4213.525239
167.657856,-10066.800811,16432.571912,-766.095498
167.658166,-2738.761985,11991.336260,-9193.145976
167.658475,4515.256246,18505.148550,-1762.019645
167.658785,-814.226536,11029.068536,-153.219100
167.659095,-444.123565,12805.562797,-536.266849
167.659404,-518.144159,14878.139434,9499.584175
167.659714,3701.029710,5403.503377,-1685.410096
167.660024,7476.080014,6513.812290,-10725.336972
167.660333,-7698.141797,3552.988522,5439.278036
167.660643,-4219.173869,4145.153275,8273.831378
167.660953,2516.700203,8364.327145,-13330.061665
167.661263,4589.276840,9104.533087,-11874.480219
167.661572,-5551.544565,10288.862594,10112.460574
167.661882,-2812.782580,10658.965565,4749.792088
167.662192,-222.061783,4589.276840,-5362.668486
167.662501,4441.235652,11769.274478,-766.095498
167.662811,1406.391290,5625.565159,0.000000
167.663121,2812.782580,12879.583391,-7584.345430
167.663430,-1776.494261,14359.995275,4749.792088
167.663740,2886.803174,11473.192101,7890.783629
167.664050,4441.235652,10066.800811,-6971.469032
167.664359,-10362.883188,8142.265362,3370.820191
167.664669,-8142.265362,7624.121203,9882.631924
167.664979,9622.677246,8586.388927,-18845.949251
167.665288,7254.018232,9844.739029,-22216.769442
167.665598,-3330.926739,11177.109724,12180.918418
167.665908,-5625.565159,10584.944971,16394.443657
167.666217,4737.318029,2442.679609,-2374.896044
167.666527,9104.533087,6069.688724,2221.676944
167.666837,-5255.462188,6365.771101,10955.165621
167.667146,-3775.050304,6587.832884,-842.705048
167.667456,9696.697840,17542.880825,-12257.527968
167.667766,-962.267725,8586.388927,-7584.345430
167.668075,-148.041188,16802.674883,-2757.943793
167.668385,-9992.780217,12583.501014,7277.907231
167.668695,-4737.318029,10066.800811,1915.238745
167.669004,592.164754,15322.262999,-11797.870669
167.669314,-6513.812290,9326.594869,-7201.297681
167.669624,1924.535449,14359.995275,-5362.668486
167.669933,-1998.556043,8734.430116,-7354.516781
167.670243,-1480.411884,7920.203579,-2451.505594
167.670553,-1184.329507,1628.453072,4443.353888
167.670862,1184.329507,3701.029710,4213.525239
167.671172,1480.411884,4071.132681,4903.011187
167.671482,-1998.556043,6957.935855,11644.651570
167.671791,2368.659014,6587.832884,-2451.505594
167.672101,-74.020594,4959.379811,-12257.527968
167.672411,-2960.823768,11695.253884,-2451.505594
167.672720,-7920.203579,8734.430116,-2374.896044
167.673030,888.247130,12435.459826,-15858.176809
167.673340,888.247130,18209.066173,-7048.078582
167.673650,962.267725,14952.160028,2068.457845
167.673959,3330.926739,13471.748144,-2451.505594
167.674269,-666.185348,7772.162391,2298.286494
167.674579,1332.370696,9252.574275,8427.050478
167.674888,1406.391290,11399.171507,-2757.943793
167.675198,5255.462188,6513.812290,-8273.831378
167.675508,3182.885551,12731.542202,-2834.553343
167.675817,-1850.514855,8586.388927,76.609550
167.676127,1628.453072,9326.594869,-3064.381992
167.676437,1110.308913,9326.594869,0.000000
167.676746,962.267725,-0.000000,-383.047749
167.677056,-0.000000,5921.647536,-536.266849
167.677366,-3404.947333,7920.203579,4903.011187
167.677675,-74.020594,8660.409521,-459.657299
167.677985,8956.491898,16432.571912,-11644.651570
167.678295,296.082377,12583.501014,-6894.859482
167.678604,-5995.668130,11103.089130,4673.182538
167.678914,-4145.153275,16358.551318,-766.095498
167.679224,296.082377,9844.739029,-11338.213370
167.679533,4737.318029,9400.615463,-2451.505594
167.679843,-5847.626942,10732.986159,3217.601092
167.680153,-9326.594869,3552.988522,3907.087040
167.680462,12731.542202,10140.821405,-7354.516781
167.680772,2812.782580,-1554.432478,-5592.497135
167.681082,-3849.070898,7698.141797,7277.907231
167.681391,1480.411884,8364.327145,12257.527968
167.681701,2072.576638,2516.700203,-4903.011187
167.682011,6513.812290,13027.624579,-3064.381992
167.682320,-7402.059420,6957.935855,7737.564530
167.682630,-0.000000,11991.336260,-1608.800546
167.682940,6883.915261,17542.880825,-14555.814462
167.683249,-1702.473667,15988.448347,-4673.182538
167.683559,962.267725,17172.777854,2068.457845
167.683869,-1406.391290,13693.809927,-3524.039291
167.684178,-3404.947333,11991.336260,-1225.752797
167.684488,4219.173869,13619.789333,-1072.533697
167.684798,1332.370696,3923.091493,-7201.297681
167.685107,-3478.967927,6291.750507,6894.859482
167.685417,740.205942,11399.171507,9806.022374
167.685727,5477.523971,-2220.617826,-4826.401637
167.686037,5033.400406,6661.853478,-6665.030833
167.686346,-6661.853478,5181.441594,12640.575717
167.686656,-3108.864956,7254.018232,5439.278036
167.686966,3552.988522,9474.636058,-11031.775171
167.687275,-2146.597232,7105.977043,-5515.887586
167.687585,-3256.906145,12361.439231,459.657299
167.687895,-4293.194464,11325.150913,-7354.516781
167.688204,-592.164754,15100.201217,-5362.668486
167.688514,4515.256246,13101.645173,-6435.202183
167.688824,-2294.638420,7328.038826,-4826.401637
167.689133,-4663.297435,13101.645173,7660.954980
167.689443,2368.659014,11547.212695,7124.688131
167.689753,6513.812290,5329.482782,-8733.488677
167.690062,1998.556043,7031.956449,-8580.269578
167.690372,-7476.080014,8438.347739,9806.022374
167.690682,-962.267725,7550.100608,1762.019645
167.690991,6365.771101,7550.100608,-15628.348159
167.691301,1998.556043,9474.636058,-6435.202183
167.691611,-7402.059420,11473.192101,9193.145976
167.691920,-5995.668130,7624.121203,3217.601092
167.692230,3478.967927,11843.295072,-7124.688131
167.692540,7920.203579,12657.521608,-7124.688131
167.692849,-3034.844362,10214.842000,-2911.162892
167.693159,-2664.741391,9104.533087,5515.887586
167.693469,2072.576638,16580.613101,-153.219100
167.693778,5551.544565,9622.677246,-13636.499864
167.694088,-888.247130,10584.944971,-919.314598
167.694398,-9104.533087,11547.212695,12334.137518
167.694707,-370.102971,6217.729913,-6435.202183
167.695017,9104.533087,7698.141797,-18769.339701
167.695327,-5255.462188,11103.089130,-2681.334243
167.695636,-2664.741391,4959.379811,6205.373534
167.695946,2738.761985,7994.224174,-4673.182538
167.696256,1332.370696,4737.318029,-1532.190996
167.696565,-3256.906145,8512.368333,15015.471761
167.696875,-4811.338623,7624.121203,2451.505594
167.697185,7994.224174,8290.306550,-8810.098227
167.697494,6365.771101,14359.995275,-8656.879127
167.697804,-4293.194464,6661.853478,-1915.238745
167.698114,-2812.782580,8660.409521,5056.230287
167.698424,-1406.391290,13841.851115,1608.800546
167.698733,-2368.659014,12583.501014,-9806.022374
167.699043,1924.535449,13693.809927,-8656.879127
167.699353,-962.267725,12065.356855,2145.067394
167.699662,1480.411884,9844.739029,-7201.297681
167.699972,1406.391290,8438.347739,-4903.011187
167.700282,-666.185348,7920.203579,4136.915689
167.700591,4441.235652,4589.276840,-1838.629195
167.700901,-296.082377,6365.771101,-1532.190996
167.701211,-3478.967927,11769.274478,9959.241474
167.701520,4293.194464,9178.553681,2374.896044
167.701830,8956.491898,7254.018232,-10495.508323
167.702140,1850.514855,10807.006753,-2528.115143
167.702449,-4737.318029,8364.327145,4443.353888
167.702759,-2664.741391,6735.874072,-3907.087040
167.703069,296.082377,16728.654289,-7124.688131
167.703378,-2738.761985,14211.954086,-2451.505594
167.703688,666.185348,12509.480420,-8350.440928
167.703998,-4737.318029,11843.295072,-8963.317327
167.704307,-2664.741391,9474.636058,-766.095498
167.704617,7550.100608,7994.224174,-4826.401637
167.704927,-0.000000,1184.329507,-4213.525239
167.705236,-5773.606348,6439.791695,12257.527968
167.705546,2516.700203,7402.059420,10189.070123
167.705856,5477.523971,1924.535449,-7048.078582
167.706165,-2442.679609,7254.018232,-536.266849
167.706475,-7402.059420,11547.212695,9959.241474
167.706785,-1110.308913,6069.688724,-10112.460574
167.707094,3923.091493,14878.139434,-22369.988542
167.707404,-370.102971,18801.230927,-8273.831378
167.707714,-4219.173869,6143.709319,7354.516781
167.708023,-1998.556043,14137.933492,1915.238745
167.708333,-1332.370696,14359.995275,766.095498
167.708643,8438.347739,10214.842000,-383.047749
167.708952,-814.226536,10436.903782,-995.924147
167.709262,-5921.647536,9696.697840,1838.629195
167.709572,8586.388927,9252.574275,-4060.306139
167.709881,3552.988522,9104.533087,-9806.022374
167.710191,-10362.883188,10955.047942,4826.401637
167.710501,-0.000000,10807.006753,6894.859482
167.710811,5181.441594,2368.659014,-14096.157163
167.711120,5921.647536,11843.295072,-10342.289223
167.711430,-5995.668130,8734.430116,13789.718964
167.711740,-4811.338623,3330.926739,9959.241474
167.712049,4663.297435,11029.068536,-11108.384721
167.712359,1702.473667,10214.842000,-9806.022374
167.712669,-3108.864956,8808.450710,-1149.143247
167.712978,-4219.173869,15544.324782,-3294.210641
167.713288,888.247130,14137.933492,-383.047749
167.713598,10584.944971,11621.233289,-3217.601092
167.713907,-3627.009116,9178.553681,-2068.457845
167.714217,-5033.400406,3552.988522,9346.365076
167.714527,1332.370696,6957.935855,3217.601092
167.714836,2738.761985,5255.462188,-13406.671215
167.715146,3478.967927,10066.800811,-12334.137518
167.715456,-888.247130,14508.036463,-1685.410096
167.715765,-0.000000,3404.947333,-4060.306139
167.716075,4219.173869,9030.512492,-4060.306139
167.716385,-5107.421000,11547.212695,8273.831378
167.716694,-1850.514855,3997.112087,8733.488677
167.717004,7550.100608,13323.706956,-3524.039291
167.717314,814.226536,9918.759623,-3140.991542
167.717623,3775.050304,9474.636058,-2911.162892
167.717933,-962.267725,14582.057057,-5898.935335
167.718243,-5699.585753,9326.594869,-2374.896044
167.718552,5699.585753,11547.212695,-1072.533697
167.718862,-4071.132681,15100.201217,-7124.688131
167.719172,-1628.453072,11325.150913,-6588.421283
167.719481,3256.906145,12361.439231,-4366.744339
167.719791,740.205942,7550.100608,-5745.716235
167.720101,-2146.597232,6217.729913,-689.485948
167.720410,3330.926739,7994.224174,2987.772442
167.720720,3849.070898,-0.000000,-5056.230287
167.721030,-740.205942,4737.318029,995.924147
167.721339,-962.267725,9548.656652,10955.165621
167.721649,296.082377,8068.244768,-229.828649
167.721959,5699.585753,10436.903782,-6511.811733
167.722268,74.020594,5107.421000,6511.811733
167.722578,-7179.997637,9252.574275,1532.190996
167.722888,-3034.844362,12805.562797,-7201.297681
167.723197,2664.741391,11177.109724,-14479.204912
167.723507,1554.432478,16876.695478,-12487.356617
167.723817,-3552.988522,12731.542202,-919.314598
167.724127,-5773.606348,14211.954086,3907.087040
167.724436,5181.441594,9030.512492,0.000000
167.724746,1998.556043,2294.638420,-229.828649
167.725056,-3182.885551,4515.256246,9039.926876
167.725365,-3775.050304,3849.070898,8656.879127
167.725675,7846.182985,5773.606348,-7048.078582
167.725985,4515.256246,7105.977043,-8273.831378
167.726294,-6587.832884,4737.318029,5209.449386
167.726604,-4071.132681,11251.130318,3907.087040
167.726914,1110.308913,12435.459826,-8580.269578
167.727223,444.123565,9844.739029,-11491.432470
167.727533,-2146.597232,13989.892304,1838.629195
167.727843,-7179.997637,9770.718434,6588.421283
167.728152,1998.556043,13027.624579,-2757.943793
167.728462,7179.997637,14804.118840,-10725.336972
167.728772,-2886.803174,3404.947333,-2374.896044
167.729081,-3034.844362,8586.388927,9652.803275
167.729391,-0.000000,10658.965565,4903.011187
167.729701,4589.276840,10436.903782,-8733.488677
167.730010,-1850.514855,9030.512492,-4060.306139
167.730320,-2590.720797,3256.906145,6818.249932
167.730630,5255.462188,6587.832884,-1149.143247
167.730939,5403.503377,10807.006753,-9959.241474
167.731249,-296.082377,-518.144159,1838.629195
167.731559,-444.123565,6661.853478,11568.042020
167.731868,-4293.194464,7624.121203,5286.058936
167.732178,-444.123565,11251.130318,-5822.325785
167.732488,8734.430116,15322.262999,-5515.887586
167.732797,-3182.885551,10584.944971,-6128.763984
167.733107,1480.411884,15766.386565,2451.505594
167.733417,-592.164754,17542.880825,3907.087040
167.733726,3478.967927,11473.192101,-3140.991542
167.734036,-3849.070898,11843.295072,-3600.648841
167.734346,-4293.194464,9622.677246,3294.210641
167.734655,2368.659014,7179.997637,-4749.792088
167.734965,9252.574275,6809.894666,-9039.926876
167.735275,-5773.606348,7402.059420,7201.297681
167.735584,-222.061783,3478.967927,13483.280765
167.735894,518.144159,4145.153275,1455.581446
167.736204,1480.411884,5995.668130,-6894.859482
167.736514,5255.462188,9696.697840,-2221.676944
167.736823,296.082377,7254.018232,-1532.190996
167.737133,370.102971,14137.933492,-229.828649
167.737320,2442.679609,15618.345376,5286.058936
167.737630,-1850.514855,6365.771101,4903.011187
167.737939,-4737.318029,15026.180623,-459.657299
167.738249,-1554.432478,13101.645173,-1838.629195
167.738559,3404.947333,11325.150913,-7277.907231
167.738868,2664.741391,19467.416275,-14479.204912
167.739178,-1332.370696,9030.512492,-8044.002729
167.739487,-148.041188,8660.409521,1838.629195
167.739797,-6957.935855,6069.688724,5669.106685
167.740107,-3404.947333,7105.977043,5822.325785
167.740416,7105.977043,7402.059420,-1532.190996
167.740726,4219.173869,8364.327145,-7507.735880
167.741036,3330.926739,5921.647536,-1685.410096
167.741345,1924.535449,4737.318029,4979.620737
167.741655,-1850.514855,1258.350101,4519.963438
167.741965,3108.864956,8216.285956,5056.230287
167.742274,-1036.288319,9178.553681,7354.516781
167.742584,-9400.615463,10214.842000,-536.266849
167.742893,4071.132681,14434.015869,-10955.165621
167.743203,2738.761985,14285.974681,-17160.539155
167.743513,-1332.370696,12953.603985,-10418.898773
167.743822,-3997.112087,17542.880825,1685.410096
167.744132,-4367.215058,13841.851115,4826.401637
167.744442,7254.018232,13101.645173,-6052.154434
167.744751,1850.514855,7179.997637,919.314598
167.745061,-592.164754,5625.565159,14555.814462
167.745371,2516.700203,5033.400406,4060.306139
167.745680,8364.327145,592.164754,-4443.353888
167.745990,-814.226536,6809.894666,842.705048
167.746299,-7698.141797,7402.059420,6358.592633
167.746609,-3256.906145,5847.626942,-1378.971896
167.746919,8068.244768,14952.160028,-13942.938064
167.747228,-444.123565,10807.006753,-11414.822920
167.747538,-5107.421000,6661.853478,7814.174080
167.747848,-3627.009116,13175.665768,6665.030833
167.748157,1332.370696,10288.862594,-3907.087040
167.748467,3701.029710,12139.377449,-2604.724693
167.748776,-2516.700203,16136.489536,1685.410096
167.749086,-2072.576638,10436.903782,-4519.963438
167.749396,11325.150913,9474.636058,-7201.297681
167.749705,-5255.462188,8216.285956,0.000000
167.750015,-5033.400406,8216.285956,6971.469032
167.750325,-0.000000,5551.544565,2374.896044
167.750634,592.164754,2442.679609,-5898.935335
167.750944,2886.803174,6291.750507,-4903.011187
167.751254,-0.000000,1554.432478,1378.971896
167.751563,888.247130,4737.318029,2145.067394
167.751873,-444.123565,10510.924376,2068.457845
167.752182,1406.391290,8068.244768,2451.505594
167.752492,-1036.288319,9400.615463,2298.286494
167.752802,-1184.329507,14730.098246,1072.533697
167.753111,4293.194464,18357.107362,-4519.963438
167.753421,5403.503377,15618.345376,-9806.022374
167.753731,-222.061783,13101.645173,-6741.640382
167.754040,-9400.615463,12139.377449,3294.210641
167.754350,1480.411884,12509.480420,459.657299
167.754660,3627.009116,5107.421000,-6052.154434
167.754969,-0.000000,10066.800811,3600.648841
167.755279,-0.000000,7402.059420,10725.336972
167.755588,-1258.350101,370.102971,6128.763984
167.755898,1258.350101,7550.100608,-3217.601092
167.756208,-1184.329507,7772.162391,-5132.839837
167.756517,1776.494261,6365.771101,-2834.553343
167.756827,2146.597232,11843.295072,-5439.278036
167.757137,-1998.556043,13101.645173,-1378.971896
167.757446,6735.874072,9696.697840,4366.744339
167.757756,-4219.173869,7254.018232,1685.410096
167.758066,-5699.585753,9622.677246,5515.887586
167.758375,-1702.473667,8438.347739,4366.744339
167.758685,1332.370696,10955.047942,-10418.898773
167.758994,2442.679609,16358.551318,-18769.339701
167.759304,962.267725,13323.706956,-4673.182538
167.759614,-4293.194464,9252.574275,306.438199
167.759923,1554.432478,10584.944971,-995.924147
167.760233,148.041188,7920.203579,5822.325785
167.760543,-1110.308913,3330.926739,9959.241474
167.760852,1554.432478,6957.935855,2911.162892
167.761162,5255.462188,3478.967927,-3217.601092
167.761471,4219.173869,8364.327145,-3217.601092
167.761781,1554.432478,8956.491898,-2451.505594
167.762091,-1036.288319,10288.862594,-2604.724693
167.762400,-3701.029710,13027.624579,5822.325785
167.762710,-4737.318029,8364.327145,2987.772442
167.763020,-1554.432478,15618.345376,-6281.983084
167.763329,3256.906145,19541.436869,-9422.974625
167.763639,-740.205942,8882.471304,-6665.030833
167.763949,-74.020594,10066.800811,-5439.278036
167.764258,296.082377,10362.883188,995.924147
167.764568,-2368.659014,6439.791695,6052.154434
167.764877,-3108.864956,7328.038826,5745.716235
167.765187,-962.267725,3701.029710,2068.457845
167.765497,3256.906145,5033.400406,-3217.601092
167.765806,-3849.070898,9474.636058,-1991.848295
167.766116,-6143.709319,3701.029710,2221.676944
167.766426,6883.915261,7328.038826,-4136.915689
167.766735,1998.556043,5921.647536,-9806.022374
167.767045,-2516.700203,8512.368333,1838.629195
167.767355,-4663.297435,10214.842000,10112.460574
167.767664,-1184.329507,5403.503377,2528.115143
167.767974,4589.276840,12065.356855,-3294.210641
167.768283,-370.102971,11769.274478,-2221.676944
167.768593,-6957.935855,13693.809927,-1685.410096
167.768903,2590.720797,12953.603985,-7507.735880
167.769212,6809.894666,11547.212695,-9806.022374
167.769522,296.082377,13471.748144,-5056.230287
167.769832,-7698.141797,11843.295072,8273.831378
167.770141,-0.000000,9178.553681,9193.145976
167.770451,8734.430116,6217.729913,-4596.572988
167.770760,2368.659014,3849.070898,-6128.763984
167.771070,-2516.700203,1702.473667,7967.393179
167.771380,-222.061783,5995.668130,3830.477490
167.771689,-444.123565,4293.194464,-5209.449386
167.771999,-148.041188,13101.645173,-3524.039291
167.772309,-888.247130,12287.418637,-1302.362347
167.772618,-2294.638420,9104.533087,-1685.410096
167.772928,-1036.288319,15766.386565,2221.676944
167.773238,3627.009116,13767.830521,-1072.533697
167.773547,2368.659014,9548.656652,-6971.469032
167.773857,222.061783,11473.192101,-1378.971896
167.774166,-2072.576638,7254.018232,4673.182538
167.774476,2812.782580,11843.295072,-1378.971896
167.774786,-1332.370696,9474.636058,-3753.867940
167.775095,-5255.462188,4737.318029,2068.457845
167.775405,5403.503377,8438.347739,-1685.410096
167.775715,1480.411884,4367.215058,-9346.365076
167.776024,-6735.874072,6661.853478,766.095498
167.776334,2590.720797,11695.253884,3524.039291
167.776644,5403.503377,2590.720797,-4979.620737
167.776953,3552.988522,11991.336260,-766.095498
167.777263,-2516.700203,6217.729913,14709.033562
167.777572,-3701.029710,7772.162391,5056.230287
167.777882,2886.803174,17320.819043,-7890.783629
167.778192,3108.864956,12879.583391,-7967.393179
167.778501,-4441.235652,13693.809927,-5669.106685
167.778811,-3997.112087,17616.901420,-7431.126331
167.779121,2072.576638,12139.377449,-7124.688131
167.779430,740.205942,11621.233289,-3447.429741
167.779740,-7254.018232,10140.821405,4903.011187
167.780050,-4367.215058,6735.874072,8273.831378
167.780359,7698.141797,6143.709319,-4060.306139
167.780669,4071.132681,-962.267725,-9882.631924
167.780978,-4293.194464,5625.565159,7737.564530
167.781288,1036.288319,4663.297435,12257.527968
167.781598,-4071.132681,3330.926739,-1225.752797
167.781907,-1258.350101,13841.851115,-919.314598
167.782217,-5033.400406,9770.718434,-3140.991542
167.782527,2146.597232,10955.047942,-15628.348159
167.782836,2812.782580,14952.160028,-10189.070123
167.783146,-3997.112087,14730.098246,4366.744339
167.783455,-74.020594,12139.377449,5745.716235
167.783765,-4737.318029,11843.295072,3524.039291
167.784075,-4441.235652,9474.636058,1532.190996
167.784384,4219.173869,12361.439231,-11261.603821
167.784694,7698.141797,7550.100608,-16624.272307
167.785004,-7994.224174,7328.038826,229.828649
167.785313,3701.029710,10955.047942,9806.022374
167.785623,3330.926739,1406.391290,-1762.019645
167.785933,888.247130,4663.297435,536.266849
167.786242,-5699.585753,2442.679609,14479.204912
167.786552,-1628.453072,6735.874072,-995.924147
167.786861,10066.800811,14730.098246,-16854.100956
167.787171,-2960.823768,9992.780217,-6511.811733
167.787481,-4811.338623,16284.530724,536.266849
167.787790,-9474.636058,15544.324782,-7507.735880
167.788100,2960.823768,13841.851115,-10265.679673
167.788410,5773.606348,16506.592507,-9422.974625
167.788719,-962.267725,9622.677246,-2145.067394
167.789029,-5995.668130,10436.903782,9269.755526
167.789339,1628.453072,6513.812290,6358.592633
167.789648,5551.544565,-962.267725,-3983.696590
167.789958,-2146.597232,4737.318029,1072.533697
167.790267,-1332.370696,6439.791695,3524.039291
167.790577,-2220.617826,5551.544565,-5822.325785
167.790887,962.267725,8586.388927,-7048.078582
167.791196,-2886.803174,8882.471304,-2298.286494
167.791506,1406.391290,12657.521608,-1225.752797
167.791816,-3552.988522,9400.615463,1302.362347
167.792125,74.020594,11695.253884,-2451.505594
167.792435,7698.141797,9548.656652,-3677.258390
167.792744,-74.020594,7772.162391,-2757.943793
167.793054,-6217.729913,14508.036463,4060.306139
167.793364,4663.297435,15988.448347,-383.047749
167.793673,5181.441594,9030.512492,-8886.707777
167.793983,-3552.988522,10584.944971,0.000000
167.794293,-2812.782580,10214.842000,8963.317327
167.794602,-1628.453072,5995.668130,-2451.505594
167.794912,888.247130,9696.697840,-11491.432470
167.795222,2442.679609,8290.306550,-7124.688131
167.795531,666.185348,9992.780217,-3677.258390
167.795841,-4219.173869,9696.697840,459.657299
167.796150,-1924.535449,8660.409521,7277.907231
167.796460,10584.944971,10140.821405,-2221.676944
167.796770,740.205942,4737.318029,-6128.763984
167.797079,-4737.318029,7476.080014,9116.536426
167.797389,2738.761985,9474.636058,7354.516781
167.797699,2738.761985,6957.935855,-8044.002729
167.798008,-2368.659014,13101.645173,1149.143247
167.798318,-5847.626942,15026.180623,4979.620737
167.798628,-1184.329507,13397.727550,-11261.603821
167.798937,2294.638420,16802.674883,-17620.196454
167.799247,-5995.668130,13989.892304,-8197.221829
167.799556,-3775.050304,9696.697840,-2145.067394
167.799866,-962.267725,8512.368333,-2451.505594
167.800176,740.205942,3997.112087,2451.505594
167.800485,4885.359217,4663.297435,4826.401637
167.800795,5255.462188,-148.041188,6358.592633
167.801105,-4441.235652,1776.494261,11414.822920
167.801414,4737.318029,6069.688724,12487.356617
167.801724,3256.906145,6217.729913,-4749.792088
167.802033,2294.638420,13101.645173,-13023.623466
167.802343,-3256.906145,10658.965565,-612.876398
167.802653,-10362.883188,11325.150913,-766.095498
167.802962,-666.185348,16580.613101,-9806.022374
167.803272,4071.132681,16876.695478,-13942.938064
167.803582,-7846.182985,13323.706956,-5592.497135
167.803891,-7846.182985,14508.036463,5209.449386
167.804201,5033.400406,11399.171507,-2145.067394
167.804511,9252.574275,9918.759623,-9576.193725
167.804820,-1924.535449,7105.977043,8197.221829
167.805130,-4515.256246,4663.297435,17007.320056
167.805439,9474.636058,3849.070898,-2145.067394
167.805749,7031.956449,-3552.988522,-8273.831378
167.806059,-9178.553681,1628.453072,8273.831378
167.806368,-5773.606348,4293.194464,10878.556072
167.806678,-1332.370696,8660.409521,-12180.918418
167.806988,3627.009116,12583.501014,-19612.044749
167.807297,-740.205942,12287.418637,-9652.803275
167.807607,-4737.318029,13249.686362,-995.924147
167.807917,-5403.503377,17172.777854,1302.362347
167.808226,2368.659014,12657.521608,3140.991542
167.808536,3552.988522,11103.089130,-4443.353888
167.808845,-1036.288319,10955.047942,229.828649
167.809155,518.144159,7031.956449,2604.724693
167.809465,8364.327145,7402.059420,-8886.707777
167.809774,-1110.308913,7624.121203,-3600.648841
167.810084,-7476.080014,13027.624579,9116.536426
167.810394,2220.617826,6661.853478,-3140.991542
167.810703,2738.761985,1406.391290,-12563.966167
167.811013,-3256.906145,9030.512492,-1532.190996
167.811323,1480.411884,4737.318029,2681.334243
167.811632,2072.576638,4293.194464,-5286.058936
167.811942,-1332.370696,8586.388927,5132.839837
167.812251,-2738.761985,9030.512492,14172.766713
167.812561,1332.370696,13027.624579,-2298.286494
167.812871,222.061783,16580.613101,-6818.249932
167.813180,-3997.112087,14359.995275,-1378.971896
167.813490,2960.823768,15470.304188,-7124.688131
167.813800,2220.617826,16284.530724,-10495.508323
167.814109,-6439.791695,12805.562797,-2374.896044
167.814419,2294.638420,10584.944971,-3370.820191
167.814728,370.102971,-0.000000,-8503.660028
167.815038,-6661.853478,1776.494261,7048.078582
167.815348,-1850.514855,4811.338623,9959.241474
167.815657,8364.327145,-1184.329507,-8197.221829
167.815967,4737.318029,4367.215058,-6588.421283
167.816277,-1702.473667,4515.256246,7201.297681
167.816586,-9992.780217,8660.409521,8044.002729
167.816896,6365.771101,11103.089130,-7814.174080
167.817206,6883.915261,10510.924376,-13176.842566
167.817515,-3034.844362,14730.098246,-1378.971896
167.817825,-8364.327145,16802.674883,3524.039291
167.818134,-666.185348,14656.077652,-4903.011187
167.818444,1554.432478,13545.768739,-10418.898773
167.818754,1258.350101,13101.645173,-4749.792088
167.819063,-5773.606348,11621.233289,689.485948
167.819373,5551.544565,9992.780217,-6971.469032
167.819683,1406.391290,3775.050304,-4673.182538
167.819992,-5107.421000,9548.656652,7967.393179
167.820302,-222.061783,9474.636058,7354.516781
167.820612,4145.153275,3552.988522,-2834.553343
167.820921,4663.297435,4071.132681,-8197.221829
167.821231,5551.544565,8290.306550,-2528.115143
167.821540,-2368.659014,8142.265362,3370.820191
167.821850,-3627.009116,7105.977043,9729.412825
167.822160,-2664.741391,11029.068536,6435.202183
167.822469,1036.288319,8364.327145,-2451.505594
167.822779,-2960.823768,11695.253884,-6281.983084
167.823089,-2368.659014,15470.304188,-5745.716235
167.823398,-1184.329507,18061.024985,-11184.994271
167.823708,4441.235652,15544.324782,-13253.452115
167.824017,-4663.297435,19245.354492,-6818.249932
167.824327,1628.453072,10436.903782,76.609550
167.824637,1924.535449,1258.350101,6665.030833
167.824946,-2368.659014,3701.029710,12027.699319
167.825256,1850.514855,1850.514855,8350.440928
167.825566,6735.874072,1776.494261,689.485948
167.825875,-6735.874072,3849.070898,1915.238745
167.826185,3404.947333,9474.636058,-5745.716235
167.826495,8512.368333,12065.356855,-17466.977354
167.826804,-2664.741391,11325.150913,-8886.707777
167.827114,-8290.306550,14137.933492,9269.755526
167.827423,-2072.576638,12361.439231,4366.744339
167.827733,5477.523971,8290.306550,-8503.660028
167.828043,1258.350101,12583.501014,-3447.429741
167.828352,-4071.132681,9696.697840,3753.867940
167.828662,-2072.576638,7328.038826,1991.848295
167.828972,4441.235652,14211.954086,-5898.935335
167.829281,1776.494261,15470.304188,-5286.058936
167.829591,3108.864956,14211.954086,-459.657299
167.829901,-7550.100608,6735.874072,3370.820191
167.830210,-814.226536,7179.997637,-1608.800546
167.830520,5477.523971,5625.565159,-7584.345430
167.830829,-3108.864956,3775.050304,-153.219100
167.831139,222.061783,3701.029710,5286.058936
167.831449,3330.926739,4663.297435,-1149.143247
167.831758,-1332.370696,6513.812290,919.314598
167.832068,-888.247130,13027.624579,7277.907231
167.832378,2812.782580,13841.851115,2451.505594
167.832687,-3034.844362,8660.409521,-5056.230287
167.832997,-1702.473667,16580.613101,-2451.505594
167.833307,-962.267725,12583.501014,-7431.126331
167.833616,444.123565,13989.892304,-15168.690860
167.833926,-3478.967927,17098.757260,-5898.935335
167.834235,-666.185348,12731.542202,1762.019645
167.834545,2146.597232,9400.615463,-1378.971896
167.834855,2960.823768,8438.347739,766.095498
167.835164,-370.102971,2072.576638,7814.174080
167.835474,5329.482782,-1702.473667,5898.935335
167.835784,3034.844362,1628.453072,689.485948
167.836093,-2294.638420,4737.318029,766.095498
167.836403,6365.771101,1184.329507,-76.609550
167.836712,-1776.494261,9844.739029,-4213.525239
167.837022,1036.288319,16284.530724,-4060.306139
167.837332,-222.061783,16728.654289,-2221.676944
167.837641,-3923.091493,14359.995275,-5515.887586
167.837951,-1258.350101,14434.015869,-2681.334243
167.838261,1332.370696,13545.768739,-1685.410096
167.838570,-666.185348,11991.336260,-6052.154434
167.838880,962.267725,10362.883188,-2221.676944
167.839190,-1776.494261,5995.668130,3677.258390
167.839499,666.185348,7254.018232,0.000000
167.839808,-0.000000,7031.956449,1838.629195
167.840118,-814.226536,7624.121203,2757.943793
167.840427,5255.462188,7994.224174,-5515.887586
167.840737,2220.617826,4219.173869,-3370.820191
167.841046,-3627.009116,4589.276840,3370.820191
167.841356,1184.329507,5551.544565,1915.238745
167.841665,3108.864956,666.185348,-995.924147
167.841975,-2516.700203,9918.759623,6358.592633
167.842284,-2960.823768,10140.821405,7124.688131
167.842594,-888.247130,13693.809927,-3830.477490
167.842903,-74.020594,16950.716072,-7967.393179
167.843213,2294.638420,19393.395680,-8350.440928
167.843522,-962.267725,19911.539840,-12257.527968
167.843831,-592.164754,12805.562797,-7124.688131
167.844141,-2590.720797,13619.789333,3140.991542
167.844450,1406.391290,13101.645173,306.438199
167.844760,3849.070898,2220.617826,-3064.381992
167.845069,518.144159,2294.638420,3677.258390
167.845379,1110.308913,370.102971,6128.763984
167.845688,1110.308913,-0.000000,4060.306139
167.845998,-2294.638420,2664.741391,4596.572988
167.846307,2516.700203,9548.656652,-4596.572988
167.846617,3256.906145,7994.224174,-10955.165621
167.846926,1628.453072,10288.862594,-5515.887586
167.847236,1480.411884,14211.954086,-1378.971896
167.847545,-444.123565,10436.903782,1072.533697
167.847854,-5773.606348,16062.468941,6435.202183
167.848164,-518.144159,14952.160028,5592.497135
167.848473,-1554.432478,15840.407159,-3677.258390
167.848783,2516.700203,11695.253884,-9039.926876
167.849092,-296.082377,13471.748144,-8503.660028
167.849402,1998.556043,10881.027347,-6971.469032
167.849711,-1998.556043,5255.462188,459.657299
167.850021,-6365.771101,12213.398043,8273.831378
167.850330,4293.194464,4219.173869,2987.772442
167.850640,8734.430116,-2738.761985,-76.609550
167.850949,1554.432478,740.205942,5286.058936
167.851258,-888.247130,-0.000000,10955.165621
167.851568,-1850.514855,6661.853478,4826.401637
167.851877,-0.000000,9030.512492,-1991.848295
167.852187,-2442.679609,16580.613101,-8733.488677
167.852496,814.226536,16506.592507,-12334.137518
167.852806,4737.318029,17616.901420,-13406.671215
167.853115,-5329.482782,16580.613101,-1302.362347
167.853425,-0.000000,18283.086767,3370.820191
167.853734,2146.597232,9770.718434,995.924147
167.854044,-1776.494261,10140.821405,6588.421283
167.854353,2220.617826,5477.523971,5745.716235
167.854663,1628.453072,3849.070898,-7967.393179
167.854972,-3182.885551,11103.089130,-7584.345430
167.855281,592.164754,10807.006753,-2681.334243
167.855591,3182.885551,6069.688724,-9116.536426
167.855900,-3108.864956,9474.636058,-1915.238745
167.856210,-0.000000,10658.965565,7048.078582
167.856519,3923.091493,6217.729913,-306.438199
167.856829,2368.659014,5107.421000,-689.485948
167.857138,-3552.988522,6069.688724,10035.851024
167.857448,4959.379811,11621.233289,-1532.190996
167.857757,8438.347739,11251.130318,-13942.938064
167.858067,-7031.956449,15248.242405,1302.362347
167.858376,-6661.853478,17987.004391,6205.373534
167.858686,2146.597232,15026.180623,-13330.061665
167.858995,5625.565159,16432.571912,-15934.786358
167.859304,1702.473667,11177.109724,-536.266849
167.859614,-2368.659014,5181.441594,2757.943793
167.859923,-3404.947333,6291.750507,7737.564530
167.860233,2368.659014,5773.606348,10418.898773
167.860542,5255.462188,5107.421000,2221.676944
167.860852,5181.441594,5625.565159,-7201.297681
167.861161,592.164754,1628.453072,1608.800546
167.861471,-3627.009116,7550.100608,4673.182538
167.861780,-4811.338623,7698.141797,612.876398
167.862090,-814.226536,15322.262999,2757.943793
167.862399,2812.782580,15914.427753,-6435.202183
167.862709,962.267725,11325.150913,-12104.308868
167.863018,1258.350101,14508.036463,-1838.629195
167.863327,-2812.782580,12287.418637,3370.820191
167.863637,-4293.194464,14804.118840,-1225.752797
167.863946,-2738.761985,12583.501014,5362.668486
167.864256,1998.556043,10362.883188,-4290.134789
167.864565,6217.729913,8808.450710,-14249.376263
167.864875,3182.885551,4663.297435,-5286.058936
167.865184,-1480.411884,3849.070898,5592.497135
167.865494,666.185348,3478.967927,3294.210641
167.865803,7624.121203,6069.688724,4366.744339
167.866113,-2664.741391,7994.224174,9652.803275
167.866422,1776.494261,7772.162391,5592.497135
167.866731,740.205942,9326.594869,-6358.592633
167.867041,-2220.617826,13619.789333,-8580.269578
167.867350,1850.514855,14582.057057,-9806.022374
167.867660,-666.185348,11843.295072,-12027.699319
167.867969,-5403.503377,15544.324782,-1378.971896
167.868279,1776.494261,18875.251521,3983.696590
167.868588,6809.894666,12805.562797,-3907.087040
167.868898,1406.391290,6661.853478,4519.963438
167.869207,-0.000000,4219.173869,14709.033562
167.869517,-1776.494261,2812.782580,2221.676944
167.869826,444.123565,6735.874072,-3753.867940
167.870136,-2442.679609,10436.903782,-2451.505594
167.870445,2886.803174,9696.697840,-11031.775171
167.870754,5699.585753,6513.812290,-11644.651570
167.871064,-7105.977043,11621.233289,1225.752797
167.871373,370.102971,4811.338623,6588.421283
167.871683,4145.153275,-0.000000,2911.162892
167.871992,-1480.411884,7772.162391,9269.755526
167.872302,2368.659014,7031.956449,8580.269578
167.872611,-1480.411884,11103.089130,-766.095498
167.872921,-1628.453072,16062.468941,-3983.696590
167.873230,1258.350101,16136.489536,-9652.803275
167.873540,666.185348,17394.839637,-17083.929605
167.873849,-5847.626942,12731.542202,-7431.126331
167.874159,-3775.050304,10510.924376,5132.839837
167.874468,4737.318029,8734.430116,-2068.457845
167.874777,3404.947333,3256.906145,-2374.896044
167.875087,-1850.514855,962.267725,14709.033562
167.875396,740.205942,-444.123565,10572.117872
167.875706,3034.844362,3034.844362,-4903.011187
167.876015,-0.000000,13767.830521,76.609550
167.876325,2886.803174,12139.377449,-5745.716235
167.876634,-2590.720797,11251.130318,-11644.651570
167.876944,814.226536,15248.242405,-6435.202183
167.877253,-1628.453072,11251.130318,-3140.991542
167.877563,-2738.761985,10288.862594,-1532.190996
167.877872,-1554.432478,15840.407159,9499.584175
167.878182,-4145.153275,10214.842000,1762.019645
167.878491,9622.677246,12583.501014,-11568.042020
167.878800,222.061783,7846.182985,-7354.516781
167.879110,-222.061783,8586.388927,7507.735880
167.879419,222.061783,5551.544565,4826.401637
167.879729,-3849.070898,4663.297435,1532.190996
167.880038,-5255.462188,9252.574275,6971.469032
167.880348,4515.256246,7031.956449,-5439.278036
167.880657,4145.153275,1184.329507,-11874.480219
167.880967,1184.329507,8364.327145,-2145.067394
167.881276,-3404.947333,8808.450710,11261.603821
167.881586,-5477.523971,12287.418637,7660.954980
167.881895,-0.000000,15544.324782,5669.106685
167.882205,740.205942,14434.015869,-5592.497135
167.882514,6809.894666,12065.356855,-18462.901502
167.882823,-74.020594,5181.441594,-12027.699319
167.883133,-8364.327145,7550.100608,5745.716235
167.883442,4293.194464,12805.562797,1762.019645
167.883752,1850.514855,8586.388927,-229.828649
167.884061,-3256.906145,13323.706956,11644.651570
167.884371,-74.020594,9252.574275,3524.039291
167.884680,4515.256246,370.102971,-12640.575717
167.884990,-5773.606348,4515.256246,76.609550
167.885299,-74.020594,8438.347739,1149.143247
167.885609,2590.720797,6365.771101,-10189.070123
167.885918,888.247130,9770.718434,383.047749
167.886227,-4219.173869,13397.727550,10572.117872
167.886537,3478.967927,6291.750507,383.047749
167.886846,296.082377,4737.318029,-5286.058936
167.887156,-5477.523971,11103.089130,4749.792088
167.887465,1850.514855,12805.562797,-2528.115143
167.887775,3108.864956,12657.521608,-17237.148705
167.888084,-9030.512492,21688.034101,-4826.401637
167.888394,4589.276840,15618.345376,1072.533697
167.888703,5921.647536,7846.182985,-8886.707777
167.889013,-5033.400406,7402.059420,2528.115143
167.889322,-148.041188,4959.379811,11031.775171
167.889632,2516.700203,-2368.659014,-1915.238745
167.889941,-888.247130,814.226536,2374.896044
167.890250,1924.535449,11177.109724,8427.050478
167.890560,888.247130,11177.109724,-8810.098227
167.890869,4737.318029,9918.759623,-9959.241474
167.891179,-3552.988522,16580.613101,2757.943793
167.891488,-370.102971,15544.324782,-5209.449386
167.891798,6587.832884,9030.512492,-9806.022374
167.892107,-5625.565159,8438.347739,3677.258390
167.892417,-8808.450710,11917.315666,12180.918418
167.892726,5255.462188,10288.862594,-3830.477490
167.893036,-74.020594,8734.430116,-6281.983084
167.893345,-296.082377,13841.851115,-1915.238745
167.893655,-444.123565,8882.471304,-8733.488677
167.893964,-3478.967927,10140.821405,-5362.668486
167.894273,740.205942,11991.336260,0.000000
167.894583,888.247130,5329.482782,-6971.469032
167.894892,740.205942,-666.185348,-1149.143247
167.895202,1554.432478,1406.391290,10572.117872
167.895511,-2072.576638,4959.379811,2604.724693
167.895821,222.061783,4071.132681,919.314598
167.896130,814.226536,10436.903782,842.705048
167.896440,888.247130,12435.459826,-7277.907231
167.896749,2368.659014,13323.706956,-9576.193725
167.897059,-6735.874072,17024.736666,-3294.210641
167.897368,-3701.029710,12065.356855,-2757.943793
167.897678,8956.491898,14804.118840,-11184.994271
167.897987,-8142.265362,9622.677246,383.047749
167.898296,-592.164754,9474.636058,7201.297681
167.898606,888.247130,9622.677246,-2681.334243
167.898915,2516.700203,9474.636058,-5362.668486
167.899225,-962.267725,10807.006753,-1838.629195
167.899534,740.205942,6291.750507,-3294.210641
167.899844,-5255.462188,7698.141797,612.876398
167.900153,2664.741391,13249.686362,2451.505594
167.900463,1332.370696,11325.150913,-6818.249932
167.900772,5403.503377,5329.482782,-5898.935335
167.901082,-4293.194464,4515.256246,2911.162892
167.901391,-1406.391290,5403.503377,4136.915689
167.901700,2886.803174,2738.761985,-919.314598
167.902010,-5329.482782,10881.027347,-536.266849
167.902319,-148.041188,15100.201217,5745.716235
167.902629,3330.926739,15692.365970,-7431.126331
167.902938,-1776.494261,16062.468941,-8580.269578
167.903248,-148.041188,18875.251521,-5515.887586
167.903557,2960.823768,14211.954086,-15092.081311
167.903867,-3997.112087,9030.512492,-3600.648841
167.904176,-518.144159,11177.109724,9806.022374
167.904486,5033.400406,7105.977043,-1149.143247
167.904795,4811.338623,7846.182985,-2451.505594
167.905105,-5181.441594,6143.709319,10955.165621
167.905414,4515.256246,1184.329507,3753.867940
167.905723,7402.059420,4293.194464,-8656.879127
167.906033,-7698.141797,9474.636058,919.314598
167.906342,-0.000000,10436.903782,-306.438199
167.906652,1702.473667,9474.636058,-9346.365076
167.906961,-888.247130,8068.244768,-4903.011187
167.907271,-1998.556043,16876.695478,4366.744339
167.907580,4293.194464,17172.777854,-6971.469032
167.907890,-1406.391290,10362.883188,-2298.286494
167.908199,-518.144159,15470.304188,8273.831378
167.908509,-814.226536,11695.253884,-3983.696590
167.908818,-2368.659014,5921.647536,-6894.859482
167.909128,-1258.350101,9992.780217,6971.469032
167.909437,5181.441594,3849.070898,-7507.735880
167.909746,1036.288319,5847.626942,-8580.269578
167.910056,-9770.718434,11177.109724,12257.527968
167.910365,-888.247130,9178.553681,4979.620737
167.910675,9252.574275,6217.729913,-13253.452115
167.910984,-1110.308913,4959.379811,-5056.230287
167.911294,-5477.523971,740.205942,8120.612279
167.911603,4589.276840,3775.050304,-1915.238745
167.911913,-1776.494261,5995.668130,-6741.640382
167.912222,-518.144159,13767.830521,10035.851024
167.912532,2960.823768,18431.127956,-1455.581446
167.912841,3552.988522,7105.977043,-12257.527968
167.913151,-370.102971,15026.180623,0.000000
167.913460,-4515.256246,14508.036463,3600.648841
167.913769,-296.082377,14878.139434,-7124.688131
167.914079,-2072.576638,21095.869347,-7890.783629
167.914388,1850.514855,11917.315666,-8273.831378
167.914698,5699.585753,7846.182985,-5669.106685
167.915007,-2960.823768,9030.512492,1532.190996
167.915317,-1702.473667,1702.473667,3677.258390
167.915626,666.185348,1554.432478,1225.752797
167.915936,-4367.215058,1628.453072,3370.820191
167.916245,5107.421000,4367.215058,-2604.724693
167.916555,1998.556043,7476.080014,-3294.210641
167.916864,592.164754,7402.059420,-919.314598
167.917174,370.102971,7476.080014,4596.572988
167.917483,-1110.308913,12139.377449,-2451.505594
167.917792,-3330.926739,9326.594869,-4443.353888
167.918102,-4737.318029,14285.974681,2068.457845
167.918411,1850.514855,12583.501014,-7584.345430
167.918721,-296.082377,14508.036463,-10878.556072
167.919030,-5181.441594,18949.272115,-689.485948
167.919340,2146.597232,8216.285956,-4979.620737
167.919649,5403.503377,11695.253884,-8810.098227
167.919959,-8216.285956,9030.512492,6205.373534
167.920268,-2146.597232,6735.874072,9576.193725
167.920578,7179.997637,10140.821405,-5822.325785
167.920887,2146.597232,3997.112087,-6281.983084
167.921196,-2368.659014,3330.926739,7277.907231
167.921506,-1850.514855,-444.123565,4749.792088
167.921815,4441.235652,3849.070898,-6741.640382
167.922125,-0.000000,7698.141797,-536.266849
167.922434,-5107.421000,6809.894666,6894.859482
167.922744,-2886.803174,15396.283594,-3447.429741
167.923053,-296.082377,19837.519246,-11108.384721
167.923363,3108.864956,16802.674883,-11108.384721
167.923672,-962.267725,9178.553681,-6971.469032
167.923982,-3256.906145,15470.304188,-689.485948
167.924291,-2072.576638,10807.006753,1455.581446
167.924601,5255.462188,12805.562797,-1532.190996
167.924910,-3478.967927,5107.421000,-306.438199
167.925219,-1554.432478,5773.606348,6052.154434
167.925529,3330.926739,6217.729913,-306.438199
167.925838,666.185348,-888.247130,-3677.258390
167.926148,5329.482782,8068.244768,995.924147
167.926457,-7476.080014,-0.000000,4443.353888
167.926767,740.205942,11103.089130,-2374.896044
167.927076,-2442.679609,13693.809927,-1378.971896
167.927386,518.144159,15248.242405,-5975.544884
167.927695,74.020594,10214.842000,-4519.963438
167.928005,-6069.688724,13249.686362,0.000000
167.928314,4663.297435,16654.633695,-5362.668486
167.928624,1776.494261,11621.233289,-6741.640382
167.928933,888.247130,13545.768739,4903.011187
167.929242,2220.617826,6809.894666,5362.668486
167.929552,5329.482782,9474.636058,-2298.286494
167.929861,-4219.173869,1924.535449,5975.544884
167.930171,-3108.864956,2442.679609,8044.002729
167.930480,1258.350101,4589.276840,-8580.269578
167.930790,296.082377,4441.235652,-11491.432470
167.931099,-3997.112087,14137.933492,-1685.410096
167.931409,-74.020594,7402.059420,-2221.676944
167.931718,4293.194464,11103.089130,-6818.249932
167.932028,-4145.153275,12509.480420,9422.974625
167.932337,4737.318029,11473.192101,9116.536426
167.932647,3552.988522,6365.771101,-2374.896044
167.932956,-4441.235652,9252.574275,3370.820191
167.933265,666.185348,14063.912898,1378.971896
167.933575,2442.679609,13323.706956,-16700.881856
167.933884,-5995.668130,11621.233289,-4749.792088
167.934194,-3849.070898,16062.468941,6588.421283
167.934503,7624.121203,14211.954086,-13253.452115
167.934813,-370.102971,4071.132681,-9193.145976
167.935122,-6513.812290,4293.194464,15092.081311
167.935432,-1258.350101,444.123565,5745.716235
167.935741,7328.038826,2442.679609,-9806.022374
167.936051,-74.020594,6513.812290,4290.134789
167.936360,-2738.761985,5403.503377,5745.716235
167.936669,3330.926739,10658.965565,-7660.954980
167.936979,2738.761985,12583.501014,-4366.744339
167.937288,592.164754,15766.386565,0.000000
167.937598,1406.391290,13767.830521,-6205.373534
167.937907,-7476.080014,12139.377449,919.314598
167.938217,-0.000000,11843.295072,2834.553343
167.938526,4145.153275,10584.944971,-11721.261119
167.938836,1406.391290,9178.553681,-6358.592633
167.939145,-6957.935855,11695.253884,8733.488677
167.939455,2220.617826,7624.121203,-1838.629195
167.939764,-148.041188,7476.080014,-5209.449386
167.940074,-7698.141797,14878.139434,6818.249932
167.940383,1702.473667,6439.791695,-3370.820191
167.940692,7698.141797,1036.288319,-15781.567259
167.941002,370.102971,7328.038826,-995.924147
167.941311,-3923.091493,5181.441594,9806.022374
167.941621,2294.638420,8660.409521,3140.991542
167.941930,3997.112087,7550.100608,10801.946522
167.942240,-518.144159,13915.871710,8044.002729
167.942549,-2294.638420,9844.739029,-6435.202183
167.942858,-1258.350101,3849.070898,-8886.707777
167.943168,518.144159,10732.986159,-8273.831378
167.943477,2146.597232,14508.036463,-11414.822920
167.943787,-4441.235652,14434.015869,-2681.334243
167.944096,-3108.864956,17616.901420,10265.679673
167.944405,4367.215058,9548.656652,3753.867940
167.944715,1924.535449,7846.182985,-153.219100
167.945024,-3627.009116,9030.512492,7507.735880
167.945334,2886.803174,4737.318029,-1225.752797
167.945643,2368.659014,6661.853478,-12563.966167
167.945952,-0.000000,9992.780217,-2834.553343
167.946262,-5033.400406,12805.562797,229.828649
167.946571,6365.771101,13397.727550,-4826.401637
167.946881,2368.659014,5921.647536,919.314598
167.947190,1110.308913,4811.338623,7048.078582
167.947499,-5181.441594,4071.132681,2757.943793
167.947809,-3108.864956,6365.771101,-1455.581446
167.948118,3182.885551,7920.203579,-3677.258390
167.948428,444.123565,14730.098246,-8044.002729
167.948737,-1110.308913,16358.551318,-3907.087040
167.949046,-1332.370696,18135.045579,3830.477490
167.949356,6291.750507,13545.768739,-6128.763984
167.949665,296.082377,6513.812290,-7048.078582
167.949975,-5995.668130,9696.697840,6741.640382
167.950284,-3108.864956,6735.874072,3524.039291
167.950593,5181.441594,7698.141797,-8273.831378
167.950903,4441.235652,10140.821405,-4673.182538
167.951212,2738.761985,8734.430116,4903.011187
167.951522,888.247130,7105.977043,1302.362347
167.951831,-814.226536,9474.636058,-459.657299
167.952140,2812.782580,4515.256246,5515.887586
167.952450,-666.185348,4293.194464,3370.820191
167.952759,-3775.050304,10658.965565,-4903.011187
167.953069,-6735.874072,11843.295072,-2451.505594
167.953378,5551.544565,9474.636058,-11184.994271
167.953687,3182.885551,9992.780217,-12563.966167
167.953997,-740.205942,16210.510130,766.095498
167.954306,-7105.977043,15840.407159,7967.393179
167.954616,370.102971,11399.171507,1378.971896
167.954925,5329.482782,9474.636058,766.095498
167.955234,4515.256246,5255.462188,-1915.238745
167.955544,-1554.432478,3182.885551,-6281.983084
167.955853,-2146.597232,-740.205942,1072.533697
167.956163,2294.638420,11621.233289,4903.011187
167.956472,1702.473667,10288.862594,-5209.449386
167.956781,2516.700203,13175.665768,-1225.752797
167.957091,1184.329507,12657.521608,6205.373534
167.957400,-1406.391290,1850.514855,2911.162892
167.957709,-962.267725,4219.173869,1685.410096
167.958019,-5551.544565,8734.430116,-2604.724693
167.958328,1850.514855,9474.636058,-15092.081311
167.958638,814.226536,14211.954086,-12640.575717
167.958947,-1258.350101,17394.839637,3217.601092
167.959256,740.205942,19689.478057,919.314598
167.959566,1480.411884,15174.221811,-4749.792088
167.959875,2812.782580,5255.462188,5439.278036
167.960185,1924.535449,-1776.494261,7737.564530
167.960494,-2516.700203,-296.082377,306.438199
167.960803,-3627.009116,7105.977043,-766.095498
167.961113,4515.256246,13471.748144,-4903.011187
167.961422,4441.235652,6439.791695,-12027.699319
167.961732,-1924.535449,9474.636058,-459.657299
167.962041,-6291.750507,17024.736666,5822.325785
167.962350,3701.029710,7179.997637,-5898.935335
167.962660,3701.029710,7920.203579,383.047749
167.962969,-1332.370696,9474.636058,9959.241474
167.963279,2738.761985,6957.935855,-4060.306139
167.963588,2960.823768,12435.459826,-6818.249932
167.963897,1110.308913,11325.150913,3447.429741
167.964207,-1702.473667,14285.974681,3217.601092
167.964516,-1480.411884,18875.251521,-4826.401637
167.964826,-3775.050304,6735.874072,-4749.792088
167.965135,1332.370696,11399.171507,-4366.744339
167.965444,1332.370696,5033.400406,-9576.193725
167.965754,-370.102971,4367.215058,-4749.792088
167.966063,-2146.597232,7920.203579,5439.278036
167.966373,592.164754,3997.112087,4673.182538
167.966682,5477.523971,5773.606348,2221.676944
167.966991,-2146.597232,10732.986159,6818.249932
167.967301,5107.421000,8660.409521,1072.533697
167.967610,-666.185348,11547.212695,-5669.106685
167.967920,-4737.318029,3182.885551,459.657299
167.968229,1480.411884,5995.668130,-1149.143247
167.968538,5625.565159,11843.295072,-13483.280765
167.968848,-3404.947333,7846.182985,-4903.011187
167.969157,-3701.029710,5995.668130,14249.376263
167.969467,-0.000000,15100.201217,3830.477490
167.969776,2220.617826,14804.118840,-7814.174080
167.970085,-4737.318029,12953.603985,383.047749
167.970395,2146.597232,9696.697840,-6741.640382
167.970704,3701.029710,5107.421000,-17160.539155
167.971014,-4663.297435,13027.624579,-766.095498
167.971323,518.144159,9844.739029,7124.688131
167.971632,6809.894666,7920.203579,-612.876398
167.971942,1406.391290,7920.203579,14096.157163
167.972251,2072.576638,5921.647536,14862.252661
167.972561,-2294.638420,5921.647536,-1149.143247
167.972870,-3552.988522,7550.100608,-7277.907231
167.973179,888.247130,10436.903782,-10035.851024
167.973489,2220.617826,12435.459826,-20914.407095
167.973798,-4367.215058,18875.251521,-11568.042020
167.974108,-4959.379811,21317.931130,3830.477490
167.974417,6513.812290,9030.512492,1302.362347
167.974726,8734.430116,7624.121203,1991.848295
167.975036,-9326.594869,5107.421000,12563.966167
167.975345,148.041188,592.164754,12180.918418
167.975655,9400.615463,1036.288319,-8120.612279
167.975964,1406.391290,6217.729913,-7124.688131
167.976273,-7698.141797,13027.624579,4749.792088
167.976583,370.102971,15322.262999,-6588.421283
167.976892,-1776.494261,7402.059420,-10801.946522
167.977202,3627.009116,14582.057057,-383.047749
167.977511,-3701.029710,7179.997637,-4903.011187
167.977820,-2368.659014,962.267725,-4749.792088
167.978130,-1628.453072,8142.265362,8120.612279
167.978439,814.226536,7624.121203,4290.134789
167.978749,1850.514855,14285.974681,-2221.676944
167.979058,-1850.514855,18727.210333,5592.497135
167.979367,5033.400406,11769.274478,-3753.867940
167.979677,-518.144159,6957.935855,-7814.174080
167.979986,-5773.606348,11547.212695,383.047749
167.980296,-518.144159,9622.677246,-5209.449386
167.980605,7772.162391,9030.512492,-14019.547613
167.980914,-4663.297435,3701.029710,5822.325785
167.981224,-4515.256246,4293.194464,12027.699319
167.981533,6735.874072,11843.295072,-2528.115143
167.981843,2664.741391,7476.080014,-7124.688131
167.982152,-3627.009116,7698.141797,4826.401637
167.982461,2220.617826,7328.038826,-2298.286494
167.982771,-0.000000,8438.347739,-8656.879127
167.983080,-3404.947333,12509.480420,2221.676944
167.983390,4589.276840,7476.080014,-1915.238745
167.983699,814.226536,8290.306550,-4903.011187
167.984008,-6735.874072,14656.077652,8810.098227
167.984318,3330.926739,15100.201217,1302.362347
167.984627,7179.997637,9178.553681,-13559.890315
167.984937,-3478.967927,10658.965565,-766.095498
167.985246,-4737.318029,11177.109724,9959.241474
167.985555,2738.761985,11917.315666,-8810.098227
167.985865,74.020594,4219.173869,-6435.202183
167.986174,-1554.432478,7402.059420,9499.584175
167.986484,4663.297435,8142.265362,-4366.744339
167.986793,2738.761985,8068.244768,-10189.070123
167.987102,-6957.935855,12361.439231,10035.851024
167.987412,4441.235652,8586.388927,3907.087040
167.987721,7846.182985,9252.574275,-8273.831378
167.988030,-666.185348,16580.613101,3524.039291
167.988340,-6883.915261,7846.182985,8044.002729
167.988649,5329.482782,5699.585753,-5898.935335
167.988959,-4145.153275,6883.915261,-4673.182538
167.989268,-1480.411884,9844.739029,-1532.190996
167.989577,-2516.700203,14434.015869,-8503.660028
167.989887,-4145.153275,9326.594869,-4060.306139
167.990196,1036.288319,12805.562797,153.219100
167.990506,3923.091493,13027.624579,-9576.193725
167.990815,-74.020594,7402.059420,-3447.429741
167.991124,-2812.782580,4515.256246,13559.890315
167.991434,222.061783,444.123565,8350.440928
167.991743,8956.491898,6883.915261,-6665.030833
167.992053,-2886.803174,8734.430116,2145.067394
167.992362,-2960.823768,9326.594869,4903.011187
167.992671,-592.164754,8068.244768,-8886.707777
167.992981,-0.000000,12657.521608,-7660.954980
167.993290,2368.659014,16728.654289,-8044.002729
167.993600,-5995.668130,12287.418637,-7890.783629
167.993909,-74.020594,8734.430116,4136.915689
167.994218,296.082377,12287.418637,3064.381992
167.994528,5181.441594,8512.368333,-6358.592633
167.994837,-1036.288319,6217.729913,1608.800546
167.995147,-7328.038826,5773.606348,9652.803275
167.995456,5551.544565,5625.565159,1149.143247
167.995765,6513.812290,7994.224174,-9882.631924
167.996075,-6809.894666,13545.768739,383.047749
167.996384,-814.226536,9326.594869,3524.039291
167.996694,-1702.473667,9104.533087,-8886.707777
167.997003,-2146.597232,9622.677246,-5515.887586
167.997312,-740.205942,10658.965565,-842.705048
167.997622,74.020594,8808.450710,-8656.879127
167.997931,1110.308913,3701.029710,-459.657299
167.998241,-1924.535449,8216.285956,6818.249932
167.998550,-592.164754,13619.789333,536.266849
167.998859,740.205942,9104.533087,76.609550
167.999169,2516.700203,7550.100608,2834.553343
167.999478,1036.288319,7846.182985,-4826.401637
167.999788,-962.267725,6661.853478,-5745.716235
168.000097,-4145.153275,12287.418637,1378.971896
168.000406,3552.988522,10584.944971,-7890.783629
168.000716,666.185348,12361.439231,-10112.460574
168.001025,-8808.450710,11251.130318,4903.011187
168.001335,-592.164754,9474.636058,4749.792088
168.001644,9696.697840,10140.821405,-9652.803275
168.001953,-518.144159,-2072.576638,306.438199
168.002263,-5921.647536,6957.935855,12180.918418
168.002572,-222.061783,9844.739029,-1072.533697
168.002882,4219.173869,7550.100608,-6588.421283
168.003191,1554.432478,14582.057057,689.485948
168.003500,962.267725,11695.253884,-4749.792088
168.003810,-3849.070898,13101.645173,-5056.230287
168.004119,-4737.318029,15026.180623,2528.115143
168.004429,5551.544565,8512.368333,-6052.154434
168.004738,1184.329507,10584.944971,-9882.631924
168.005047,-9326.594869,10881.027347,6665.030833
168.005357,-0.000000,6809.894666,3907.087040
168.005666,7031.956449,1998.556043,-7967.393179
168.005976,4589.276840,7550.100608,4596.572988
168.006285,-5773.606348,10955.047942,9193.145976
168.006594,1628.453072,11843.295072,-6358.592633
168.006904,1036.288319,9178.553681,-3600.648841
168.007213,2442.679609,9918.759623,919.314598
168.007523,-1702.473667,13397.727550,-12257.527968
168.007832,-0.000000,9548.656652,-5822.325785
168.008141,-4959.379811,7550.100608,7660.954980
168.008451,1702.473667,4515.256246,2604.724693
168.008760,1036.288319,10807.006753,-6128.763984
168.009070,-2368.659014,11843.295072,1532.190996
168.009379,2146.597232,9474.636058,-2834.553343
168.009688,962.267725,8586.388927,-8120.612279
168.009998,-5403.503377,13175.665768,1685.410096
168.010307,2368.659014,16506.592507,-842.705048
168.010617,3701.029710,11473.192101,-10265.679673
168.010926,962.267725,5995.668130,3064.381992
168.011235,-4959.379811,5995.668130,10418.898773
168.011545,4811.338623,8216.285956,-6588.421283
168.011854,-1554.432478,4737.318029,-9039.926876
168.012164,-2590.720797,9252.574275,6588.421283
168.012473,-2146.597232,5773.606348,-919.314598
168.012782,-0.000000,10881.027347,-10342.289223
168.013092,-4145.153275,14878.139434,153.219100
168.013401,8438.347739,11991.336260,-6435.202183
168.013711,-962.267725,6513.812290,-9269.755526
168.014020,-7031.956449,11621.233289,8963.317327
168.014329,-814.226536,9696.697840,2987.772442
168.014639,6587.832884,7402.059420,-14172.766713
168.014948,1258.350101,5625.565159,-3447.429741
168.015258,-6439.791695,9622.677246,9193.145976
168.015567,-1110.308913,10732.986159,-4749.792088
168.015876,2886.803174,6513.812290,-4519.963438
168.016186,-296.082377,11177.109724,7124.688131
168.016495,2368.659014,6587.832884,-6588.421283
168.016805,444.123565,11103.089130,-8350.440928
168.017114,-4293.194464,12139.377449,3140.991542
168.017423,2368.659014,1702.473667,1378.971896
168.017733,4885.359217,5995.668130,-4136.915689
168.018042,-2812.782580,15174.221811,3600.648841
168.018352,-2886.803174,9178.553681,5898.935335
168.018661,2442.679609,9326.594869,-4673.182538
168.018970,1110.308913,8734.430116,-3600.648841
168.019280,-148.041188,12139.377449,-3447.429741
168.019589,-4071.132681,12139.377449,-8350.440928
168.019898,-1850.514855,9104.533087,-766.095498
168.020208,1628.453072,15174.221811,2451.505594
168.020517,3330.926739,9474.636058,-4596.572988
168.020827,3701.029710,8660.409521,-2834.553343
168.021136,-7105.977043,4589.276840,8273.831378
168.021445,1554.432478,3627.009116,6818.249932
168.021755,444.123565,6587.832884,-4826.401637
168.022064,2294.638420,12361.439231,-5132.839837
168.022374,-3849.070898,8882.471304,-2681.334243
168.022683,-666.185348,9770.718434,-2221.676944
168.022992,-2220.617826,13841.851115,-2145.067394
168.023302,4737.318029,16432.571912,-6588.421283
168.023611,-740.205942,9622.677246,-3983.696590
168.023921,-1998.556043,8142.265362,6205.373534
168.024230,-0.000000,5329.482782,2911.162892
168.024539,4515.256246,7698.141797,-4903.011187
168.024849,1998.556043,6291.750507,612.876398
168.025158,-2664.741391,6957.935855,4903.011187
168.025468,3034.844362,7105.977043,-1225.752797
168.025777,-1110.308913,9326.594869,-3907.087040
168.026086,-3775.050304,10955.047942,1225.752797
168.026396,1480.411884,8882.471304,-842.705048
168.026705,-888.247130,11177.109724,-3677.258390
168.027015,-5847.626942,11547.212695,-766.095498
168.027324,2294.638420,11251.130318,-4519.963438
168.027633,74.020594,15692.365970,-10878.556072
168.027943,2368.659014,8512.368333,612.876398
168.028252,-2516.700203,10807.006753,3370.820191
168.028562,-296.082377,13323.706956,153.219100
168.028871,1480.411884,7846.182985,2145.067394
168.029180,4293.194464,5773.606348,1455.581446
168.029490,-592.164754,8660.409521,-4366.744339
168.029799,-4663.297435,9400.615463,-919.314598
168.030109,-592.164754,13989.892304,-1532.190996
168.030418,6217.729913,6735.874072,-15398.519510
168.030727,-1850.514855,8216.285956,-5669.106685
168.031037,-8290.306550,9178.553681,11031.775171
168.031346,3330.926739,7550.100608,3064.381992
168.031656,2960.823768,9178.553681,-5209.449386
168.031965,-4737.318029,8956.491898,7431.126331
168.032274,-4737.318029,8290.306550,4673.182538
168.032584,3552.988522,13619.789333,-8886.707777
168.032893,-1332.370696,9770.718434,-10189.070123
168.033203,-2960.823768,11843.295072,-2757.943793
168.033512,-740.205942,13101.645173,-7354.516781
168.033821,-3923.091493,12953.603985,-3217.601092
168.034131,-1184.329507,13619.789333,3830.477490
168.034440,9252.574275,2960.823768,-4596.572988
168.034750,2220.617826,1776.494261,-4290.134789
168.035059,-8586.388927,4589.276840,11568.042020
168.035368,2664.741391,4219.173869,3600.648841
168.035678,7328.038826,3923.091493,-8733.488677
168.035987,2960.823768,8142.265362,2987.772442
168.036297,-3108.864956,12435.459826,6894.859482
168.036606,-222.061783,13471.748144,-6128.763984
168.036915,666.185348,2738.761985,-3524.039291
168.037225,-2368.659014,10955.047942,383.047749
168.037534,-5699.585753,18061.024985,-13253.452115
168.037844,2146.597232,11917.315666,-7431.126331
168.038153,-6143.709319,13767.830521,4673.182538
168.038462,3478.967927,12139.377449,-995.924147
168.038772,-0.000000,12953.603985,-5515.887586
168.039081,-3552.988522,12287.418637,7124.688131
168.039391,3478.967927,7402.059420,689.485948
168.039700,4441.235652,7179.997637,-8427.050478
168.040009,-4737.318029,7994.224174,2451.505594
168.040319,-3034.844362,8216.285956,1608.800546
168.040628,5699.585753,7846.182985,-10035.851024
168.040938,7550.100608,2960.823768,-4060.306139
168.041247,-4367.215058,4145.153275,9576.193725
168.041556,-2294.638420,6217.729913,6052.154434
168.041866,7476.080014,5625.565159,-919.314598
168.042175,-2812.782580,8290.306550,6435.202183
168.042485,-3849.070898,11621.233289,5286.058936
168.042794,1332.370696,14211.954086,-7737.564530
168.043103,222.061783,16210.510130,-16164.615008
168.043413,-2442.679609,11177.109724,-7814.174080
168.043722,-5699.585753,13767.830521,-1838.629195
168.044032,-3849.070898,17468.860231,-229.828649
168.044341,2516.700203,13989.892304,-1991.848295
168.044651,2294.638420,10436.903782,2757.943793
168.044960,-3997.112087,-1554.432478,8886.707777
168.045269,4737.318029,3775.050304,6128.763984
168.045579,1406.391290,4811.338623,-1838.629195
168.045888,3330.926739,3182.885551,-1378.971896
168.046198,-3478.967927,6957.935855,8580.269578
168.046507,-2294.638420,13027.624579,842.705048
168.046816,3775.050304,11917.315666,-10725.336972
168.047126,1776.494261,13249.686362,-7354.516781
168.047435,1554.432478,5477.523971,1302.362347
168.047745,-7402.059420,7772.162391,4366.744339
168.048054,-148.041188,18727.210333,2757.943793
168.048363,1628.453072,9770.718434,-5515.887586
168.048673,1776.494261,13693.809927,-4903.011187
168.048982,-1776.494261,10066.800811,1838.629195
168.049292,-1036.288319,9622.677246,-4826.401637
168.049601,1998.556043,13693.809927,-5362.668486
168.049910,-74.020594,5995.668130,1915.238745
168.050220,-3404.947333,6365.771101,1072.533697
168.050529,2442.679609,8216.285956,-995.924147
168.050839,740.205942,3775.050304,-153.219100
168.051148,-2294.638420,1628.453072,995.924147
168.051458,1110.308913,1776.494261,76.609550
168.051767,888.247130,10066.800811,-8580.269578
168.052076,-888.247130,12065.356855,1915.238745
168.052386,444.123565,10362.883188,4673.182538
168.052695,-0.000000,11917.315666,-2221.676944
168.053005,-1258.350101,11695.253884,-4749.792088
168.053314,-148.041188,12879.583391,-3064.381992
168.053623,-962.267725,14508.036463,-6205.373534
168.053933,3034.844362,15100.201217,-1991.848295
168.054242,592.164754,13471.748144,-3600.648841
168.054552,-740.205942,13693.809927,-6588.421283
168.054861,-6365.771101,5995.668130,1072.533697
168.055170,-0.000000,4737.318029,4290.134789
168.055480,5181.441594,2368.659014,-6358.592633
168.055789,5033.400406,6069.688724,-4826.401637
168.056099,-5477.523971,5255.462188,10725.336972
168.056408,-222.061783,3256.906145,4596.572988
168.056718,7846.182985,5033.400406,-6281.983084
168.057027,518.144159,9918.759623,-1532.190996
168.057336,-1924.535449,11547.212695,1838.629195
168.057646,-0.000000,10955.047942,-2528.115143
168.057955,4441.235652,11695.253884,-2911.162892
168.058265,-4219.173869,11251.130318,-1915.238745
168.058574,-6513.812290,16136.489536,-2068.457845
168.058883,-4737.318029,11621.233289,-3907.087040
168.059193,5033.400406,12657.521608,-6818.249932
168.059502,-740.205942,9474.636058,-8580.269578
168.059812,-5329.482782,9548.656652,-383.047749
168.060121,-6513.812290,15174.221811,4903.011187
168.060430,7179.997637,11325.150913,-1072.533697
168.060740,5107.421000,7846.182985,-9269.755526
168.061049,-1406.391290,9548.656652,612.876398
168.061359,2072.576638,-814.226536,5132.839837
168.061668,3034.844362,-1480.411884,3064.381992
168.061977,5403.503377,-370.102971,5439.278036
168.062287,-666.185348,7105.977043,7201.297681
168.062596,-888.247130,11917.315666,4136.915689
168.062906,-1776.494261,9178.553681,-3370.820191
168.063215,4367.215058,11325.150913,-9346.365076
168.063525,-2294.638420,14211.954086,-12257.527968
168.063834,-5255.462188,15692.365970,-2451.505594
168.064143,-3034.844362,15692.365970,-1455.581446
168.064453,7772.162391,13767.830521,-6971.469032
168.064762,-1554.432478,16950.716072,612.876398
168.065072,-6439.791695,10140.821405,12717.185267
168.065381,4589.276840,3404.947333,1532.190996
168.065690,7550.100608,3849.070898,-8503.660028
168.066000,-4663.297435,7476.080014,2145.067394
168.066309,-1258.350101,9030.512492,5132.839837
168.066619,4219.173869,15248.242405,-3064.381992
168.066928,1258.350101,5995.668130,-7890.783629
168.067237,444.123565,5699.585753,-383.047749
168.067547,-2516.700203,3701.029710,2834.553343
168.067856,-2812.782580,6735.874072,995.924147
168.068166,1776.494261,11695.253884,-2374.896044
168.068475,4959.379811,11843.295072,-5592.497135
168.068785,-814.226536,11103.089130,1149.143247
168.069094,-6143.709319,15914.427753,10265.679673
168.069403,4811.338623,11029.068536,-4596.572988
168.069713,3552.988522,7476.080014,-8886.707777
168.070022,-9474.636058,11843.295072,6358.592633
168.070332,-1776.494261,11473.192101,3907.087040
168.070641,6661.853478,8438.347739,-14402.595362
168.070950,2738.761985,6661.853478,-4443.353888
168.071260,-8660.409521,8364.327145,13023.623466
168.071569,-1480.411884,12583.501014,5745.716235
168.071879,3256.906145,9992.780217,-7890.783629
168.072188,5329.482782,11843.295072,-5132.839837
168.072497,-0.000000,7254.018232,-2681.334243
168.072807,888.247130,10510.924376,-1991.848295
168.073116,-1332.370696,12213.398043,995.924147
168.073426,6883.915261,6809.894666,-3140.991542
168.073735,-518.144159,8734.430116,3370.820191
168.074044,-6809.894666,14211.954086,13100.233016
168.074354,4441.235652,9622.677246,-1608.800546
168.074663,4811.338623,9104.533087,-14709.033562
168.074973,-5551.544565,5033.400406,-1378.971896
168.075282,-6291.750507,7994.224174,6665.030833
168.075592,-3256.906145,14434.015869,-7507.735880
168.075901,4071.132681,10066.800811,-11491.432470
168.076210,-4071.132681,13027.624579,-842.705048
168.076520,-1850.514855,11399.171507,1378.971896
168.076829,3923.091493,6069.688724,-2987.772442
168.077139,1998.556043,7402.059420,76.609550
168.077448,-3108.864956,5107.421000,9116.536426
168.077757,-222.061783,6809.894666,7354.516781
168.078067,-1628.453072,11103.089130,2374.896044
168.078376,7920.203579,10881.027347,-13713.109414
168.078686,-1406.391290,6809.894666,-13253.452115
168.078995,-9918.759623,14804.118840,2528.115143
168.079304,-4071.132681,9844.739029,689.485948
168.079614,5477.523971,15100.201217,-12410.747068
168.079923,2886.803174,5625.565159,-1685.410096
168.080233,-4959.379811,6365.771101,12870.404366
168.080542,-666.185348,4219.173869,7660.954980
168.080852,8438.347739,4589.276840,-4060.306139
168.081161,-148.041188,9844.739029,-5209.449386
168.081470,-3182.885551,9474.636058,-919.314598
168.081780,3330.926739,12879.583391,-1608.800546
168.082089,666.185348,16358.551318,-3217.601092
168.082399,1332.370696,14137.933492,-3830.477490
168.082708,-296.082377,9844.739029,0.000000
168.083017,-5107.421000,6809.894666,2451.505594
168.083327,1702.473667,8586.388927,-1225.752797
168.083636,-444.123565,8586.388927,-3983.696590
168.083946,444.123565,11325.150913,-995.924147
168.084255,-4219.173869,11917.315666,-3524.039291
168.084564,2812.782580,16432.571912,-7124.688131
168.084874,4737.318029,4589.276840,-6281.983084
168.085183,-74.020594,7031.956449,2374.896044
168.085493,-1406.391290,6439.791695,11261.603821
168.085802,4219.173869,3627.009116,7737.564530
168.086111,2960.823768,5255.462188,4903.011187
168.086421,1924.535449,8438.347739,-1532.190996
168.086730,-296.082377,11695.253884,-5822.325785
168.087040,-5255.462188,16358.551318,-7124.688131
168.087349,-2886.803174,14656.077652,-9959.241474
168.087659,-2590.720797,18949.272115,-12180.918418
168.087968,-1998.556043,15026.180623,-9346.365076
168.088277,-4441.235652,12139.377449,-7354.516781
168.088587,-2146.597232,12435.459826,-5439.278036
168.088896,9030.512492,5033.400406,-4443.353888
168.089206,444.123565,814.226536,0.000000
168.089515,-1554.432478,5181.441594,7354.516781
168.089824,-888.247130,6365.771101,2681.334243
168.090134,2368.659014,9696.697840,-11874.480219
168.090443,1332.370696,10881.027347,-18692.730151
168.090753,1850.514855,6439.791695,-12717.185267
168.091062,-1850.514855,7105.977043,-7814.174080
168.091371,-74.020594,4441.235652,-6128.763984
168.091681,-666.185348,4663.297435,-4749.792088
168.091990,1480.411884,5625.565159,-2221.676944
168.092300,-592.164754,12361.439231,-3064.381992
168.092609,4293.194464,15692.365970,-10265.679673
168.092918,4515.256246,13471.748144,-16547.662757
168.093228,-2590.720797,11177.109724,-14938.862211
168.093537,-1480.411884,9030.512492,-9959.241474
168.093847,4959.379811,11103.089130,-11184.994271
168.094156,-2590.720797,9548.656652,-7354.516781
168.094466,-1628.453072,10436.903782,1685.410096
168.094775,-740.205942,7402.059420,-4903.011187
168.095084,5847.626942,2960.823768,-18539.511052
168.095394,-3775.050304,4367.215058,-15245.300410
168.095703,-4737.318029,7031.956449,-7737.564530
168.096013,1924.535449,9548.656652,-18233.072852
168.096322,3701.029710,10658.965565,-12334.137518
168.096631,-5403.503377,12213.398043,-4979.620737
168.096941,-1036.288319,7402.059420,-6435.202183
168.097250,-0.000000,9104.533087,-11874.480219
168.097560,4441.235652,8216.285956,-11951.089769
168.097869,-2590.720797,10362.883188,-8427.050478
168.098178,2738.761985,12287.418637,-7737.564530
168.098488,-518.144159,14804.118840,-9882.631924
168.098797,-2294.638420,11695.253884,-10955.165621
168.099107,-7772.162391,10214.842000,-9806.022374
168.099416,-962.267725,8364.327145,-12334.137518
168.099726,-2368.659014,5699.585753,-18769.339701
168.100035,1110.308913,6513.812290,-18769.339701
168.100344,-1554.432478,6291.750507,-9346.365076
168.100654,-0.000000,10881.027347,-6435.202183
168.100963,2220.617826,8882.471304,-7584.345430
168.101273,9622.677246,7920.203579,-8427.050478
168.101582,-1554.432478,5033.400406,-2451.505594
168.101891,-2664.741391,6069.688724,-2068.457845
168.102201,2368.659014,9622.677246,-13253.452115
168.102510,4959.379811,9030.512492,-24821.494135
168.102820,-2294.638420,11843.295072,-16471.053207
168.103129,-3330.926739,14878.139434,-9039.926876
168.103438,2072.576638,16358.551318,-13559.890315
168.103748,4885.359217,11251.130318,-17237.148705
168.104057,2294.638420,8660.409521,-6511.811733
168.104367,-4737.318029,4811.338623,-306.438199
168.104676,-2146.597232,4441.235652,-3447.429741
168.104985,3404.947333,10955.047942,-11184.994271
168.105295,2960.823768,10881.027347,-18769.339701
168.105604,-1036.288319,11695.253884,-12870.404366
168.105914,-3034.844362,9844.739029,-6971.469032
168.106223,-3775.050304,15396.283594,-12563.966167
168.106533,4071.132681,12509.480420,-15551.738609
168.106842,2146.597232,6809.894666,-11874.480219
168.107151,-1258.350101,5477.523971,-3830.477490
168.107461,3404.947333,592.164754,-4366.744339
168.107770,-2886.803174,6365.771101,-2451.505594
168.108080,148.041188,8438.347739,-6281.983084
168.108389,-1258.350101,12213.398043,-12487.356617
168.108698,-2516.700203,16876.695478,-15168.690860
168.109008,-370.102971,17394.839637,-16547.662757
168.109317,-2590.720797,17024.736666,-15628.348159
168.109627,740.205942,14878.139434,-15168.690860
168.109936,-1628.453072,9696.697840,-11031.775171
168.110245,-1406.391290,6809.894666,-4290.134789
168.110555,3478.967927,6069.688724,-4136.915689
168.110864,5847.626942,3552.988522,-4443.353888
168.111174,-74.020594,5329.482782,-1378.971896
168.111483,-3997.112087,6957.935855,-1072.533697
168.111793,-444.123565,9548.656652,-12870.404366
168.112102,-74.020594,12139.377449,-21833.721693
168.112411,962.267725,15396.283594,-23289.303139
168.112721,-2886.803174,11843.295072,-17466.977354
168.113030,-1628.453072,10140.821405,-11414.822920
168.113340,1184.329507,8290.306550,-7584.345430
168.113649,2146.597232,9548.656652,-3677.258390
168.113958,1406.391290,11325.150913,0.000000
168.114268,2294.638420,9474.636058,-5439.278036
168.114577,3627.009116,9622.677246,-14019.547613
168.114887,2590.720797,7254.018232,-15168.690860
168.115196,-3849.070898,7846.182985,-10878.556072
168.115505,-4959.379811,11695.253884,-9652.803275
168.115815,-666.185348,12731.542202,-12410.747068
168.116124,-592.164754,13471.748144,-16394.443657
168.116434,-3775.050304,10584.944971,-12947.013916
168.116743,518.144159,8142.265362,-15015.471761
168.117052,1332.370696,7920.203579,-15321.909960
168.117362,370.102971,7846.182985,-10418.898773
168.117671,222.061783,6513.812290,-4443.353888
168.117981,3627.009116,8882.471304,-4903.011187
168.118290,2368.659014,8142.265362,-7277.907231
168.118600,-1258.350101,6513.812290,-6511.811733
168.118909,-1406.391290,7328.038826,-5822.325785
168.119218,-444.123565,10066.800811,-13636.499864
168.119528,1258.350101,12953.603985,-18692.730151
168.119837,740.205942,14582.057057,-17543.586904
168.120147,-1776.494261,12731.542202,-10495.508323
168.120456,-2072.576638,11769.274478,-5975.544884
168.120765,370.102971,7624.121203,-7354.516781
168.121075,1110.308913,4959.379811,-10342.289223
168.121384,-1110.308913,4737.318029,-7814.174080
168.121694,-3775.050304,7772.162391,-1149.143247
168.122003,296.082377,11917.315666,-11721.261119
168.122312,2146.597232,16506.592507,-17083.929605
168.122622,962.267725,16876.695478,-15781.567259
168.122931,-222.061783,14063.912898,-11874.480219
168.123241,2664.741391,10658.965565,-13942.938064
168.123550,3256.906145,3627.009116,-10878.556072
168.123860,-0.000000,-296.082377,-6128.763984
168.124169,-1628.453072,-2368.659014,-1685.410096
168.124478,-2072.576638,2590.720797,-2834.553343
168.124788,592.164754,6735.874072,-9729.412825
168.125097,814.226536,12879.583391,-14862.252661
168.125407,-888.247130,15766.386565,-14479.204912
168.125716,-1110.308913,17394.839637,-14096.157163
168.126025,962.267725,15322.262999,-16700.881856
168.126335,518.144159,13175.665768,-15092.081311
168.126644,-2442.679609,8512.368333,-8580.269578
168.126954,-2960.823768,7328.038826,-4366.744339
168.127263,148.041188,7105.977043,-7354.516781
168.127572,1184.329507,9030.512492,-10572.117872
168.127882,518.144159,9622.677246,-13176.842566
168.128191,-1554.432478,10140.821405,-12257.527968
168.128501,1036.288319,10214.842000,-12563.966167
168.128810,-814.226536,9474.636058,-11491.432470
168.129119,1258.350101,8438.347739,-8886.707777
168.129429,1628.453072,4663.297435,-5669.106685
168.129738,-0.000000,2590.720797,-5745.716235
168.130048,1998.556043,4441.235652,-7737.564530
168.130357,962.267725,8734.430116,-7507.735880
168.130667,-74.020594,11843.295072,-8273.831378
168.130976,-518.144159,14730.098246,-8733.488677
168.131285,296.082377,15914.427753,-12334.137518
168.131595,518.144159,14434.015869,-13483.280765
168.131904,-2368.659014,12509.480420,-10112.460574
168.132214,-1998.556043,8512.368333,-10495.508323
168.132523,444.123565,9622.677246,-11261.603821
168.132832,-74.020594,9326.594869,-8350.440928
168.133142,-2294.638420,8734.430116,-6511.811733
168.133451,370.102971,9992.780217,-7124.688131
168.133761,666.185348,6883.915261,-9193.145976
168.134070,296.082377,7402.059420,-7584.345430
168.134379,-296.082377,6217.729913,-6205.373534
168.134689,444.123565,7624.121203,-6435.202183
168.134998,-1036.288319,5921.647536,-4213.525239
168.135308,1036.288319,8438.347739,-4903.011187
168.135617,2664.741391,9178.553681,-8503.660028
168.135927,-148.041188,11177.109724,-8197.221829
168.136236,-3627.009116,12879.583391,-1991.848295
168.136545,-740.205942,12805.562797,-5822.325785
168.136855,-2220.617826,11769.274478,-11108.384721
168.137164,-4811.338623,10510.924376,-9422.974625
168.137474,-3701.029710,10955.047942,-9729.412825
168.137783,-2368.659014,10881.027347,-14555.814462
168.138092,-2368.659014,12583.501014,-12717.185267
168.138402,-1628.453072,14063.912898,-10725.336972
168.138711,-444.123565,13693.809927,-11568.042020
168.139021,888.247130,13471.748144,-9652.803275
168.139330,-888.247130,13027.624579,-8656.879127
168.139639,-74.020594,12139.377449,-12334.137518
168.139949,-148.041188,10584.944971,-14479.204912
168.140258,-740.205942,7179.997637,-15934.786358
168.140568,1184.329507,7550.100608,-18233.072852
168.140877,2368.659014,7550.100608,-17773.415554
168.141186,2664.741391,7624.121203,-10112.460574
168.141496,3478.967927,7105.977043,-5056.230287
168.141805,3256.906145,4367.215058,-4596.572988
168.142115,2294.638420,4219.173869,-4903.011187
168.142424,-4737.318029,7994.224174,-5822.325785
168.142734,-1110.308913,7328.038826,-10725.336972
168.143043,-2590.720797,7624.121203,-18769.339701
168.143353,3108.864956,14508.036463,-28498.752526
168.143662,-4219.173869,14730.098246,-26047.246932
168.143972,-74.020594,18283.086767,-19382.216099
168.144281,-1184.329507,12805.562797,-11568.042020
168.144591,3256.906145,10584.944971,-8427.050478
168.144900,1924.535449,5551.544565,-4903.011187
168.145210,444.123565,3849.070898,-2911.162892
168.145519,24500.816680,3923.091493,-10572.117872
168.145829,-18727.210333,-9844.739029,-1378.971896
168.146138,-4959.379811,3108.864956,-8733.488677
168.146447,-740.205942,11991.336260,-31946.182267
168.146757,-296.082377,24056.693115,-19152.387450
168.147066,4219.173869,18357.107362,-2604.724693
168.147376,-15100.201217,4737.318029,-11108.384721
168.147685,4737.318029,2664.741391,-27885.876127
168.147995,-6217.729913,7476.080014,-9806.022374
168.148304,-3256.906145,10732.986159,-7890.783629
168.148614,-1036.288319,9548.656652,-9269.755526
168.148923,-0.000000,13471.748144,-9806.022374
168.149233,11399.171507,16062.468941,-13866.328514
168.149542,-5255.462188,4737.318029,-13330.061665
168.149852,-3997.112087,14211.954086,153.219100
168.150161,-5847.626942,6513.812290,-2145.067394
168.150471,6439.791695,9326.594869,-29418.067123
168.150780,222.061783,3330.926739,-24361.836836
168.151090,-4293.194464,9400.615463,-7967.393179
168.151399,-4663.297435,6291.750507,-5515.887586
168.151709,7179.997637,12065.356855,-9193.145976
168.152018,8438.347739,7698.141797,-7660.954980
168.152328,-1480.411884,2886.803174,842.705048
168.152637,-4737.318029,5699.585753,6435.202183
168.152947,1480.411884,6809.894666,-7660.954980
168.153256,6291.750507,10436.903782,-25740.808733
168.153566,592.164754,14211.954086,-20301.530697
168.153875,-2294.638420,16802.674883,-10801.946522
168.154185,962.267725,14730.098246,-9652.803275
168.154494,2886.803174,17468.860231,-12104.308868
168.154804,-3108.864956,10066.800811,-3294.210641
168.155113,-1850.514855,9548.656652,-2145.067394
168.155423,1258.350101,5773.606348,-10112.460574
168.155732,-0.000000,6291.750507,-16164.615008
168.156042,296.082377,7624.121203,-17466.977354
168.156351,2146.597232,11695.253884,-10572.117872
168.156661,-296.082377,12731.542202,-1302.362347
168.156970,-1998.556043,12583.501014,995.924147
168.157280,1258.350101,11843.295072,-5515.887586
168.157589,1406.391290,9252.574275,-7584.345430
168.157899,-666.185348,4589.276840,-9039.926876
168.158208,-5847.626942,3775.050304,-10801.946522
168.158518,-3775.050304,7328.038826,-10495.508323
168.158827,-1776.494261,15618.345376,-5362.668486
168.159137,-2294.638420,15470.304188,-11338.213370
168.159446,2368.659014,12361.439231,-12563.966167
168.159756,1332.370696,9770.718434,-7507.735880
168.160065,-962.267725,7698.141797,-1762.019645
168.160374,-3849.070898,5995.668130,-3217.601092
168.160684,-296.082377,5921.647536,-7124.688131
168.160993,-518.144159,13767.830521,-8427.050478
168.161303,3627.009116,13915.871710,-16164.615008
168.161612,592.164754,12435.459826,-13176.842566
168.161922,-1998.556043,16506.592507,-10648.727422
168.162231,-592.164754,9400.615463,-14479.204912
168.162541,-962.267725,8290.306550,-14709.033562
168.162850,3627.009116,7846.182985,-8503.660028
168.163160,-0.000000,1776.494261,-9959.241474
168.163469,-1924.535449,8068.244768,-4749.792088
168.163779,3182.885551,5107.421000,-6818.249932
168.164088,-814.226536,11399.171507,-16088.005458
168.164398,2146.597232,12879.583391,-20607.968896
168.164707,-1554.432478,11843.295072,-14096.157163
168.165017,-2886.803174,16358.551318,-10878.556072
168.165326,1554.432478,10881.027347,-18462.901502
168.165636,3256.906145,9622.677246,-19841.873398
168.165945,1480.411884,6291.750507,-10112.460574
168.166255,-2516.700203,5921.647536,-2834.553343
168.166564,222.061783,9104.533087,-3830.477490
168.166874,7254.018232,11177.109724,-11797.870669
168.167183,6069.688724,11991.336260,-15092.081311
168.167493,-3849.070898,7031.956449,-10035.851024
168.167802,-4959.379811,10214.842000,-8886.707777
168.168112,-4293.194464,8438.347739,-15321.909960
168.168421,5921.647536,11621.233289,-21603.893044
168.168731,-3478.967927,9474.636058,-15398.519510
168.169040,-0.000000,5625.565159,-995.924147
168.169350,-4515.256246,10066.800811,-2374.896044
168.169659,6365.771101,9030.512492,-12870.404366
168.169969,-2812.782580,9030.512492,-10725.336972
168.170278,-6143.709319,11325.150913,-9039.926876
168.170588,-1480.411884,14211.954086,-13253.452115
168.170897,3849.070898,13249.686362,-22446.598091
168.171207,4589.276840,13397.727550,-21220.845295
168.171516,-1480.411884,9252.574275,-9806.022374
168.171826,-4663.297435,9918.759623,-2451.505594
168.172135,296.082377,6217.729913,-4826.401637
168.172445,6439.791695,6587.832884,-12257.527968
168.172754,3330.926739,4293.194464,-13100.233016
168.173064,-1628.453072,5477.523971,-4903.011187
168.173373,518.144159,7105.977043,-6052.154434
168.173682,962.267725,7328.038826,-11568.042020
168.173992,-1184.329507,11399.171507,-6128.763984
168.174301,1110.308913,7624.121203,-5745.716235
168.174611,-3034.844362,4737.318029,-10572.117872
168.174920,1184.329507,7105.977043,-12334.137518
168.175230,3701.029710,6513.812290,-8197.221829
168.175539,3404.947333,9474.636058,-2987.772442
168.175849,-1628.453072,8068.244768,1608.800546
168.176158,-5181.441594,9844.739029,306.438199
168.176468,4811.338623,11695.253884,-6052.154434
168.176777,3552.988522,10955.047942,-12257.527968
168.177087,-4737.318029,15026.180623,-10342.289223
168.177396,-0.000000,11177.109724,-6358.592633
168.177706,4145.153275,11473.192101,-12717.185267
168.178015,4663.297435,10510.924376,-7660.954980
168.178325,-1184.329507,9104.533087,5362.668486
168.178634,-2146.597232,7994.224174,8427.050478
168.178944,4071.132681,10066.800811,1072.533697
168.179253,-148.041188,3775.050304,2451.505594
168.179563,-1332.370696,9844.739029,1225.752797
168.179872,-1258.350101,9030.512492,-5669.106685
168.180182,-3034.844362,15396.283594,-7967.393179
168.180491,-3775.050304,11103.089130,-6818.249932
168.180801,518.144159,16728.654289,-7124.688131
168.181110,444.123565,15618.345376,-2911.162892
168.181420,-6661.853478,11769.274478,3447.429741
168.181729,2072.576638,11177.109724,3600.648841
168.182039,2590.720797,5773.606348,-1838.629195
168.182348,2368.659014,10140.821405,383.047749
168.182658,-518.144159,5551.544565,1608.800546
168.182967,1924.535449,13545.768739,-3753.867940
168.183277,-962.267725,10658.965565,-2145.067394
168.183586,-0.000000,10881.027347,-2374.896044
168.183896,-370.102971,11399.171507,-5209.449386
168.184205,2664.741391,8068.244768,-8120.612279
168.184515,2886.803174,9622.677246,-2451.505594
168.184824,740.205942,4737.318029,229.828649
168.185134,-222.061783,6143.709319,4596.572988
168.185443,-4071.132681,9178.553681,7507.735880
168.185753,6143.709319,10066.800811,-2911.162892
168.186062,2368.659014,5551.544565,-12870.404366
168.186372,-2738.761985,10066.800811,-1915.238745
168.186681,-2294.638420,8216.285956,-612.876398
168.186991,-2442.679609,11769.274478,-8120.612279
168.187300,3330.926739,15174.221811,-5592.497135
168.187609,4441.235652,12139.377449,-3600.648841
168.187919,1184.329507,10658.965565,-995.924147
168.188228,-666.185348,11251.130318,2681.334243
168.188538,-2368.659014,9474.636058,2757.943793
168.188847,-74.020594,11843.295072,-6205.373534
168.189157,5329.482782,11103.089130,-11031.775171
168.189466,-2886.803174,13471.748144,-3830.477490
168.189776,740.205942,9474.636058,-1532.190996
168.190085,3627.009116,9326.594869,-4290.134789
168.190395,-0.000000,6291.750507,-2145.067394
168.190704,1998.556043,5403.503377,6588.421283
168.191014,-5107.421000,12139.377449,4596.572988
168.191323,-1554.432478,5625.565159,229.828649
168.191633,3108.864956,9844.739029,-1838.629195
168.191942,1554.432478,8068.244768,-11261.603821
168.192252,-2886.803174,9622.677246,-6435.202183
168.192561,-3849.070898,13767.830521,3677.258390
168.192871,-1702.473667,9770.718434,-842.705048
168.193180,1406.391290,11473.192101,-6741.640382
168.193490,1924.535449,10066.800811,-2068.457845
168.193799,2738.761985,8734.430116,-4290.134789
168.194109,1258.350101,6735.874072,-1991.848295
168.194418,1258.350101,5995.668130,6435.202183
168.194728,-592.164754,8438.347739,4443.353888
168.195037,-4811.338623,9474.636058,-3600.648841
168.195347,1332.370696,8882.471304,-4060.306139
168.195656,1554.432478,5181.441594,-7124.688131
168.195966,74.020594,9992.780217,-10955.165621
168.196275,-3034.844362,11473.192101,-5592.497135
168.196585,2738.761985,9770.718434,-1302.362347
168.196894,5773.606348,7031.956449,-2451.505594
168.197204,1258.350101,4737.318029,5592.497135
168.197513,-2886.803174,8290.306550,16624.272307
168.197823,962.267725,3849.070898,6358.592633
168.198132,1110.308913,6735.874072,-5439.278036
168.198442,1036.288319,12731.542202,-6205.373534
168.198751,1702.473667,11769.274478,-9576.193725
168.199061,-1850.514855,18579.169144,-7737.564530
168.199370,2220.617826,15988.448347,-3370.820191
168.199680,6809.894666,10584.944971,-1455.581446
168.199989,-296.082377,8068.244768,5362.668486
168.200299,-5551.544565,7846.182985,18539.511052
168.200608,-1332.370696,8956.491898,11184.994271
168.200917,5773.606348,8068.244768,-8197.221829
168.201227,-2664.741391,8882.471304,-6511.811733
168.201536,-3108.864956,17764.942608,-153.219100
168.201846,-2220.617826,15396.283594,-7660.954980
168.202155,2368.659014,12953.603985,-6205.373534
168.202465,-2368.659014,13841.851115,5132.839837
168.202774,1480.411884,8956.491898,2911.162892
168.203084,-888.247130,5255.462188,76.609550
168.203393,-814.226536,1480.411884,3907.087040
168.203703,1332.370696,2442.679609,0.000000
168.204012,3034.844362,6883.915261,-1762.019645
168.204322,-3330.926739,10584.944971,6818.249932
168.204631,1258.350101,9770.718434,3907.087040
168.204941,3775.050304,7550.100608,-3907.087040
168.205250,-296.082377,4811.338623,-3830.477490
168.205560,-3701.029710,7105.977043,1762.019645
168.205869,-1924.535449,6587.832884,2604.724693
168.206179,-296.082377,9326.594869,-2451.505594
168.206488,-0.000000,15470.304188,-2221.676944
168.206798,1406.391290,13249.686362,-7354.516781
168.207107,-814.226536,9030.512492,-3447.429741
168.207417,-3404.947333,10288.862594,8733.488677
168.207726,4071.132681,11251.130318,4443.353888
168.208036,-592.164754,9252.574275,-3370.820191
168.208345,-814.226536,10807.006753,383.047749
168.208655,740.205942,6957.935855,-3907.087040
168.208964,2294.638420,8734.430116,-12717.185267
168.209274,1702.473667,10362.883188,-7201.297681
168.209583,3034.844362,11029.068536,-1762.019645
168.209893,888.247130,8216.285956,2451.505594
168.210202,1258.350101,5921.647536,6128.763984
168.210512,-4293.194464,10140.821405,7967.393179
168.210821,1036.288319,7550.100608,-5132.839837
168.211131,4737.318029,4589.276840,-10418.898773
168.211440,-2220.617826,11917.315666,-6205.373534
168.211750,-0.000000,11917.315666,-2757.943793
168.212059,1850.514855,19319.375086,-4519.963438
168.212369,-0.000000,15988.448347,0.000000
168.212678,2072.576638,9252.574275,612.876398
168.212988,-1850.514855,7920.203579,1762.019645
168.213297,-3182.885551,6439.791695,3294.210641
168.213607,-3256.906145,3034.844362,459.657299
168.213916,-296.082377,10066.800811,-5822.325785
168.214226,2146.597232,9548.656652,-6205.373534
168.214535,-2738.761985,13471.748144,-1532.190996
168.214844,4145.153275,12953.603985,-2604.724693
168.215154,2072.576638,8660.409521,-2374.896044
168.215463,-444.123565,8290.306550,2374.896044
168.215773,-2812.782580,888.247130,6358.592633
168.216082,-5255.462188,4737.318029,3524.039291
168.216392,4293.194464,5551.544565,-2145.067394
168.216701,5625.565159,9548.656652,-9346.365076
168.217011,-592.164754,12583.501014,-5439.278036
168.217320,-6291.750507,14434.015869,5898.935335
168.217630,444.123565,12065.356855,2528.115143
168.217939,-518.144159,14359.995275,-3677.258390
168.218249,-1776.494261,10658.965565,-1225.752797
168.218558,-74.020594,9918.759623,-3370.820191
168.218868,-1332.370696,6661.853478,-2451.505594
168.219177,2442.679609,9030.512492,-1302.362347
168.219487,-1480.411884,9844.739029,1685.410096
168.219796,-4071.132681,11251.130318,4903.011187
168.220106,-1628.453072,12435.459826,5745.716235
168.220415,962.267725,9400.615463,-2834.553343
168.220725,6291.750507,5699.585753,-11951.089769
168.221034,-2072.576638,6439.791695,-2757.943793
168.221344,-2442.679609,11029.068536,3217.601092
168.221653,4145.153275,5995.668130,-1685.410096
168.221963,2960.823768,11547.212695,-919.314598
168.222272,222.061783,12583.501014,7737.564530
168.222582,-1332.370696,8290.306550,3294.210641
168.222891,2590.720797,7772.162391,-3524.039291
168.223201,-740.205942,7328.038826,-2911.162892
168.223510,-6217.729913,12287.418637,-3983.696590
168.223820,-3775.050304,12731.542202,-2604.724693
168.224129,4959.379811,12953.603985,-5132.839837
168.224439,1628.453072,13841.851115,-3600.648841
168.224748,-888.247130,11621.233289,-306.438199
168.225058,-2368.659014,10436.903782,5669.106685
168.225367,3775.050304,6217.729913,2987.772442
168.225677,2294.638420,4663.297435,-1915.238745
168.225986,-4737.318029,11473.192101,3524.039291
168.226296,1480.411884,10955.047942,-842.705048
168.226605,3034.844362,6217.729913,-10418.898773
168.226915,2590.720797,6069.688724,-3830.477490
168.227224,-1628.453072,8808.450710,8886.707777
168.227534,-1406.391290,5699.585753,7201.297681
168.227843,-1406.391290,9104.533087,-536.266849
168.228153,3997.112087,6439.791695,383.047749
168.228462,-2294.638420,11325.150913,-2068.457845
168.228771,-3849.070898,8586.388927,-5822.325785
168.229081,1480.411884,12953.603985,-4443.353888
168.229390,2072.576638,9178.553681,-4213.525239
168.229700,-5625.565159,14730.098246,2757.943793
168.230009,-5551.544565,15766.386565,6818.249932
168.230319,4737.318029,9918.759623,-4903.011187
168.230628,2294.638420,1184.329507,-5822.325785
168.230938,-5847.626942,1776.494261,5209.449386
168.231247,-74.020594,7994.224174,3217.601092
168.231557,2516.700203,5995.668130,-1149.143247
168.231866,1036.288319,14211.954086,153.219100
168.232176,666.185348,13027.624579,3217.601092
168.232485,1184.329507,11103.089130,-4749.792088
168.232795,1110.308913,8216.285956,-5362.668486
168.233104,592.164754,4441.235652,1532.190996
168.233414,-4071.132681,7772.162391,4673.182538
168.233723,-2294.638420,9548.656652,1608.800546
168.234033,7105.977043,11621.233289,-6435.202183
168.234342,1554.432478,8290.306550,-6818.249932
168.234652,-6957.935855,12805.562797,6511.811733
168.234961,-7476.080014,16728.654289,6894.859482
168.235271,7402.059420,14063.912898,-14249.376263
168.235580,2738.761985,6661.853478,-17773.415554
168.235890,-1406.391290,8068.244768,4290.134789
168.236199,-2590.720797,2812.782580,9269.755526
168.236509,-1480.411884,5329.482782,1685.410096
168.236818,2516.700203,5033.400406,4366.744339
168.237128,4071.132681,5181.441594,4519.963438
168.237437,-1480.411884,9400.615463,-1455.581446
168.237747,-3182.885551,12287.418637,-4060.306139
168.238056,2368.659014,14211.954086,-11491.432470
168.238366,444.123565,11547.212695,-14172.766713
168.238675,-74.020594,11991.336260,-5898.935335
168.238985,-4811.338623,14211.954086,4519.963438
168.239294,3478.967927,10362.883188,-4136.915689
168.239604,3997.112087,5255.462188,-1762.019645
168.239913,592.164754,6439.791695,6894.859482
168.240223,444.123565,-666.185348,6818.249932
168.240532,-3404.947333,6217.729913,4673.182538
168.240842,1702.473667,11325.150913,1608.800546
168.241151,4071.132681,13767.830521,-8044.002729
168.241461,-2738.761985,11769.274478,-8733.488677
168.241770,-5699.585753,12139.377449,-3447.429741
168.242080,444.123565,12213.398043,-6971.469032
168.242389,6143.709319,8438.347739,-8503.660028
168.242699,2664.741391,6069.688724,3830.477490
168.243008,-7105.977043,11769.274478,16394.443657
168.243318,-4663.297435,9178.553681,10342.289223
168.243628,5995.668130,7031.956449,-1838.629195
168.243937,6809.894666,13471.748144,-10035.851024
168.244247,-2294.638420,12361.439231,-9499.584175
168.244556,-5033.400406,12583.501014,-7737.564530
168.244866,6143.709319,11473.192101,-3524.039291
168.245175,7402.059420,3775.050304,-229.828649
168.245485,-9030.512492,4959.379811,13559.890315
168.245795,-8364.327145,8438.347739,16011.395908
168.246104,4071.132681,4367.215058,-6894.859482
168.246414,7476.080014,5477.523971,-16547.662757
168.246723,-3478.967927,10955.047942,-5362.668486
168.247033,-2072.576638,15840.407159,-3064.381992
168.247343,2072.576638,15618.345376,-2451.505594
168.247652,5551.544565,14582.057057,8503.660028
168.247962,-9844.739029,14285.974681,14862.252661
168.248271,-4367.215058,9252.574275,2604.724693
168.248581,3849.070898,3849.070898,-13942.938064
168.248890,8734.430116,2960.823768,-17160.539155
168.249200,-3256.906145,10140.821405,-4979.620737
168.249510,-7698.141797,14508.036463,4673.182538
168.249819,296.082377,17468.860231,6358.592633
168.250129,5033.400406,10362.883188,766.095498
168.250438,-2146.597232,4145.153275,-689.485948
168.250748,-3404.947333,-1998.556043,689.485948
168.251057,3627.009116,3701.029710,-2604.724693
168.251367,2738.761985,-296.082377,-5056.230287
168.251677,-1998.556043,10362.883188,1072.533697
168.251986,-592.164754,21095.869347,5822.325785
168.252296,3108.864956,14063.912898,-2528.115143
168.252605,-444.123565,12509.480420,-1991.848295
168.252915,-5181.441594,12361.439231,2987.772442
168.253225,-2738.761985,9474.636058,-4673.182538
168.253534,1332.370696,9844.739029,-11568.042020
168.253844,-3478.967927,8956.491898,-5362.668486
168.254153,-3034.844362,10436.903782,76.609550
168.254463,3330.926739,10436.903782,-5362.668486
168.254772,6143.709319,9030.512492,-1378.971896
168.255082,-1184.329507,5847.626942,7814.174080
168.255392,-2590.720797,5255.462188,7967.393179
168.255701,1406.391290,7105.977043,-1225.752797
168.256011,2220.617826,6661.853478,-5362.668486
168.256320,-148.041188,3627.009116,-4060.306139
168.256630,-666.185348,7105.977043,-6205.373534
168.256939,2590.720797,12065.356855,-4366.744339
168.257249,-2960.823768,11917.315666,3064.381992
168.257559,-4959.379811,13915.871710,4443.353888
168.257868,-1480.411884,14878.139434,-1378.971896
168.258178,3330.926739,10955.047942,-8503.660028
168.258487,-6069.688724,11769.274478,-7354.516781
168.258797,-4367.215058,8216.285956,-6511.811733
168.259107,2442.679609,14804.118840,-8580.269578
168.259416,5329.482782,8956.491898,-11644.651570
168.259726,1776.494261,6587.832884,459.657299
168.260035,-3478.967927,7402.059420,12027.699319
168.260345,-1406.391290,4515.256246,6205.373534
168.260654,6365.771101,-2442.679609,1378.971896
168.260964,296.082377,10214.842000,-3447.429741
168.261274,-2886.803174,5477.523971,-3600.648841
168.261583,-5921.647536,7994.224174,459.657299
168.261893,2738.761985,14211.954086,-8120.612279
168.262202,-3108.864956,16876.695478,-11721.261119
168.262512,-5255.462188,19245.354492,-3600.648841
168.262821,-1554.432478,12879.583391,76.609550
168.263131,2368.659014,11029.068536,-7660.954980
168.263441,-1184.329507,7920.203579,-1072.533697
168.263750,-1480.411884,7328.038826,2987.772442
168.264060,370.102971,4293.194464,-1608.800546
168.264369,3108.864956,5551.544565,-1608.800546
168.264679,888.247130,7179.997637,2911.162892
168.264989,-0.000000,7179.997637,-1915.238745
168.265298,1628.453072,6069.688724,-4136.915689
168.265608,2072.576638,5773.606348,2068.457845
168.265917,-2368.659014,11473.192101,-1608.800546
168.266227,-1554.432478,3478.967927,-3907.087040
168.266536,2812.782580,10066.800811,-306.438199
168.266846,-2590.720797,12139.377449,1685.410096
168.267156,-2220.617826,15100.201217,-2221.676944
168.267465,-2738.761985,15248.242405,-3447.429741
168.267775,1702.473667,15026.180623,-5286.058936
168.268084,-1332.370696,15396.283594,-6818.249932
168.268394,2146.597232,13693.809927,-2757.943793
168.268704,3775.050304,6513.812290,-9729.412825
168.269013,-814.226536,5033.400406,-229.828649
168.269323,-1258.350101,962.267725,13942.938064
168.269632,1036.288319,222.061783,8656.879127
168.269942,-0.000000,7624.121203,-3830.477490
168.270251,2664.741391,8290.306550,0.000000
168.270561,-1702.473667,4885.359217,-1991.848295
168.270871,-444.123565,10807.006753,-6435.202183
168.271180,1998.556043,14582.057057,-3830.477490
168.271490,-3997.112087,15544.324782,3370.820191
168.271799,-1480.411884,12657.521608,2068.457845
168.272109,-518.144159,14434.015869,-3140.991542
168.272418,-1480.411884,13175.665768,-4673.182538
168.272728,740.205942,12361.439231,-7660.954980
168.273038,2960.823768,10807.006753,-7201.297681
168.273347,-1480.411884,10214.842000,2374.896044
168.273657,-1258.350101,8216.285956,4060.306139
168.273966,-2220.617826,9844.739029,-1532.190996
168.274276,1998.556043,4663.297435,-2298.286494
168.274586,1406.391290,-592.164754,-1378.971896
168.274895,2072.576638,2368.659014,-1378.971896
168.275205,-518.144159,8364.327145,-2374.896044
168.275514,-592.164754,9178.553681,2451.505594
168.275824,3627.009116,13545.768739,3447.429741
168.276133,1628.453072,10658.965565,1532.190996
168.276443,-7105.977043,19985.560434,3524.039291
168.276753,-1998.556043,14508.036463,-3600.648841
168.277062,4959.379811,12361.439231,-16471.053207
168.277372,148.041188,13175.665768,-11951.089769
168.277681,-6587.832884,11547.212695,306.438199
168.277991,-4219.173869,14656.077652,153.219100
168.278300,2368.659014,11547.212695,-1685.410096
168.278610,2738.761985,3034.844362,2604.724693
168.278920,-0.000000,6439.791695,2145.067394
168.279229,1628.453072,-0.000000,-2221.676944
168.279539,-740.205942,888.247130,1915.238745
168.279848,4293.194464,4441.235652,1838.629195
168.280158,1480.411884,4811.338623,-2834.553343
168.280468,-3923.091493,6587.832884,6435.202183
168.280777,-4293.194464,10436.903782,10572.117872
168.281087,2738.761985,15174.221811,-6205.373534
168.281396,-740.205942,16358.551318,-14325.985813
168.281706,-5477.523971,16580.613101,-7354.516781
168.282015,-2220.617826,18357.107362,-11721.261119
168.282325,2960.823768,13989.892304,-12410.747068
168.282635,3108.864956,9696.697840,-3294.210641
168.282944,-3552.988522,8882.471304,8810.098227
168.283254,-5921.647536,2960.823768,14096.157163
168.283563,3330.926739,296.082377,8580.269578
168.283873,6365.771101,1480.411884,-5669.106685
168.284182,4959.379811,1924.535449,-10035.851024
168.284492,-0.000000,5033.400406,-1762.019645
168.284802,-3478.967927,10955.047942,2298.286494
168.285111,5773.606348,11473.192101,-3140.991542
168.285421,-1628.453072,15396.283594,-4673.182538
168.285730,-2812.782580,13101.645173,383.047749
168.286040,1258.350101,11029.068536,-229.828649
168.286350,-0.000000,10807.006753,-3753.867940
168.286659,-4071.132681,10732.986159,-2145.067394
168.286969,2368.659014,15766.386565,-2604.724693
168.287278,2738.761985,11029.068536,-1072.533697
168.287588,-3701.029710,9548.656652,2604.724693
168.287897,-1110.308913,14952.160028,3524.039291
168.288207,3923.091493,7624.121203,-6894.859482
168.288517,2072.576638,5181.441594,-7048.078582
168.288826,-0.000000,3923.091493,229.828649
168.289136,666.185348,962.267725,229.828649
168.289445,-1776.494261,6143.709319,3064.381992
168.289755,1332.370696,8882.471304,10572.117872
168.290064,-444.123565,10066.800811,3600.648841
168.290374,-296.082377,14211.954086,-6588.421283
168.290684,370.102971,13471.748144,-8886.707777
168.290993,6143.709319,14285.974681,-12870.404366
168.291303,-3034.844362,13619.789333,-6358.592633
168.291612,-2738.761985,11473.192101,5898.935335
168.291922,592.164754,8808.450710,5056.230287
168.292232,4219.173869,4737.318029,995.924147
168.292541,-2442.679609,6439.791695,5975.544884
168.292851,-5329.482782,8068.244768,6818.249932
168.293160,4367.215058,11029.068536,-7277.907231
168.293470,962.267725,9400.615463,-13789.718964
168.293779,-2738.761985,12287.418637,-1532.190996
168.294089,444.123565,15322.262999,-1608.800546
168.294399,4737.318029,9252.574275,-9499.584175
168.294708,2960.823768,9844.739029,1149.143247
168.295018,2516.700203,6217.729913,9652.803275
168.295327,-1998.556043,3404.947333,7584.345430
168.295637,-2516.700203,8586.388927,6435.202183
168.295946,2072.576638,12953.603985,-5745.716235
168.296256,5699.585753,12435.459826,-12640.575717
168.296566,-5995.668130,12361.439231,-4366.744339
168.296875,-4441.235652,17320.819043,-3830.477490
168.297185,2738.761985,10881.027347,-14479.204912
168.297494,5773.606348,8586.388927,-10878.556072
168.297804,-3775.050304,3552.988522,7814.174080
168.298114,518.144159,4367.215058,11261.603821
168.298423,2368.659014,4367.215058,6741.640382
168.298733,2368.659014,6809.894666,459.657299
168.299042,1258.350101,8660.409521,1225.752797
168.299352,-1184.329507,11177.109724,-3830.477490
168.299661,-1554.432478,13175.665768,-10495.508323
168.299971,-1110.308913,18875.251521,-10725.336972
168.300281,-0.000000,14359.995275,-11721.261119
168.300590,-814.226536,7105.977043,-4443.353888
168.300900,-0.000000,9770.718434,6665.030833
168.301209,-1036.288319,3997.112087,2911.162892
168.301519,1332.370696,6291.750507,0.000000
168.301828,3849.070898,5847.626942,4749.792088
168.302138,814.226536,6439.791695,0.000000
168.302448,-4071.132681,11843.295072,-1072.533697
168.302757,-3997.112087,11917.315666,-1378.971896
168.303067,4811.338623,16950.716072,-4903.011187
168.303376,3256.906145,14137.933492,-12410.747068
168.303686,1628.453072,9474.636058,-8503.660028
168.303996,-3330.926739,11399.171507,1991.848295
168.304305,2072.576638,6143.709319,6435.202183
168.304615,-0.000000,5699.585753,5745.716235
168.304924,-1110.308913,11843.295072,2757.943793
168.305234,2960.823768,7402.059420,0.000000
168.305543,-1332.370696,4071.132681,-6281.983084
168.305853,-740.205942,10658.965565,-10265.679673
168.306163,-0.000000,11029.068536,-13330.061665
168.306472,1554.432478,11843.295072,-10801.946522
168.306782,2738.761985,9030.512492,1455.581446
168.307091,2146.597232,9992.780217,11568.042020
168.307401,-74.020594,9474.636058,15475.129060
168.307711,-1776.494261,10881.027347,7277.907231
168.308020,3108.864956,7105.977043,-3447.429741
168.308330,-3997.112087,9696.697840,-9806.022374
168.308639,-4959.379811,14804.118840,-15475.129060
168.308949,888.247130,18801.230927,-15628.348159
168.309258,3627.009116,14730.098246,-14632.424012
168.309568,814.226536,8808.450710,153.219100
168.309878,-444.123565,4219.173869,16241.224558
168.310187,1036.288319,-1998.556043,15245.300410
168.310497,1258.350101,3034.844362,9193.145976
168.310806,5625.565159,4737.318029,2911.162892
168.311116,3182.885551,5625.565159,-4903.011187
168.311425,-2146.597232,13027.624579,-6205.373534
168.311735,-3182.885551,14359.995275,-3370.820191
168.312045,222.061783,20725.766376,-8503.660028
168.312354,-962.267725,18653.189738,-9959.241474
168.312664,-518.144159,10066.800811,-4979.620737
168.312973,-592.164754,7698.141797,1915.238745
168.313283,-3034.844362,740.205942,7507.735880
168.313593,1184.329507,666.185348,7660.954980
168.313902,2664.741391,7254.018232,766.095498
168.314212,1184.329507,7254.018232,-919.314598
168.314521,296.082377,14434.015869,3907.087040
168.314831,1110.308913,13175.665768,-3677.258390
168.315140,5995.668130,11251.130318,-13942.938064
168.315450,962.267725,10436.903782,-7048.078582
168.315760,888.247130,5921.647536,4826.401637
168.316069,296.082377,2590.720797,7737.564530
168.316379,-5255.462188,7179.997637,10648.727422
168.316688,-2368.659014,14063.912898,7124.688131
168.316998,3997.112087,13915.871710,-9116.536426
168.317307,-1998.556043,15396.283594,-11031.775171
168.317617,-2738.761985,16876.695478,-8197.221829
168.317927,-1406.391290,9400.615463,-8503.660028
168.318236,1850.514855,7698.141797,-7507.735880
168.318546,222.061783,9696.697840,3753.867940
168.318855,2812.782580,3108.864956,7201.297681
168.319165,1110.308913,-3923.091493,7737.564530
168.319475,1110.308913,4293.194464,7890.783629
168.319784,4071.132681,7698.141797,3064.381992
168.320094,4071.132681,11177.109724,-4213.525239
168.320403,-2072.576638,17246.798449,-1685.410096
168.320713,-7994.224174,19245.354492,-5975.544884
168.321022,518.144159,19837.519246,-15704.957709
168.321332,3034.844362,13545.768739,-18003.244203
168.321642,1258.350101,6513.812290,-6128.763984
168.321951,740.205942,4441.235652,4060.306139
168.322261,-5551.544565,2664.741391,14709.033562
168.322570,-370.102971,3256.906145,20224.921147
168.322880,4959.379811,10510.924376,4979.620737
168.323189,6365.771101,8142.265362,-9959.241474
168.323499,-2146.597232,10955.047942,-9193.145976
168.323809,-3182.885551,7994.224174,-6894.859482
168.324118,4219.173869,11103.089130,-12487.356617
168.324428,1332.370696,12953.603985,-8810.098227
168.324737,-2368.659014,10066.800811,8350.440928
168.325047,370.102971,9622.677246,10265.679673
168.325357,-3404.947333,6365.771101,2834.553343
168.325666,1998.556043,9622.677246,1225.752797
168.325976,7772.162391,9252.574275,-5592.497135
168.326285,-2812.782580,5255.462188,-8427.050478
168.326595,-9548.656652,11325.150913,2681.334243
168.326904,-1480.411884,17246.798449,-3753.867940
168.327214,6883.915261,11843.295072,-16241.224558
168.327524,3997.112087,10881.027347,-3600.648841
168.327833,-4071.132681,1850.514855,11797.870669
168.328143,-4589.276840,-2146.597232,6588.421283
168.328452,592.164754,7105.977043,3830.477490
168.328762,7402.059420,8290.306550,1685.410096
168.329071,3330.926739,11325.150913,-4519.963438
168.329381,-2516.700203,15026.180623,-766.095498
168.329691,-4811.338623,16432.571912,-2451.505594
168.330000,6069.688724,10881.027347,-10112.460574
168.330310,2590.720797,7105.977043,-5439.278036
168.330619,-7328.038826,4145.153275,8733.488677
168.330929,-3256.906145,8142.265362,7967.393179
168.331239,962.267725,9548.656652,-1225.752797
168.331548,4367.215058,10510.924376,-536.266849
168.331858,3330.926739,14582.057057,-2374.896044
168.332167,2664.741391,8512.368333,-3830.477490
168.332477,-5403.503377,10436.903782,4826.401637
168.332786,-5847.626942,12657.521608,9269.755526
168.333096,1776.494261,14730.098246,-1991.848295
168.333406,1406.391290,16136.489536,-13406.671215
168.333715,-370.102971,5107.421000,-9193.145976
168.334025,1702.473667,4885.359217,-2298.286494
168.334334,-3923.091493,2368.659014,4596.572988
168.334644,814.226536,8586.388927,6971.469032
168.334953,1184.329507,8364.327145,7737.564530
168.335263,-1406.391290,5551.544565,4290.134789
168.335573,-592.164754,6439.791695,1532.190996
168.335882,3701.029710,14508.036463,-9959.241474
168.336192,2886.803174,6513.812290,-12870.404366
168.336501,-5625.565159,7328.038826,1838.629195
168.336811,-3849.070898,13915.871710,7507.735880
168.337121,4737.318029,17024.736666,-6971.469032
168.337430,-222.061783,17987.004391,-3294.210641
168.337740,-222.061783,16284.530724,4826.401637
168.338049,-444.123565,14063.912898,-2834.553343
168.338359,-888.247130,7624.121203,-9039.926876
168.338668,-592.164754,2368.659014,-6741.640382
168.338978,888.247130,5033.400406,1838.629195
168.339288,2664.741391,5625.565159,5439.278036
168.339597,-2664.741391,3997.112087,8886.707777
168.339907,740.205942,8364.327145,4673.182538
168.340216,3330.926739,6217.729913,-4596.572988
168.340526,-814.226536,3775.050304,-4903.011187
168.340835,-1406.391290,10955.047942,-1685.410096
168.341145,-74.020594,14063.912898,-7124.688131
168.341455,-3552.988522,19245.354492,-3524.039291
168.341764,740.205942,21243.910535,1072.533697
168.342074,5255.462188,12213.398043,-5362.668486
168.342383,-1332.370696,9252.574275,-1532.190996
168.342693,-5329.482782,3108.864956,8197.221829
168.343003,-444.123565,5181.441594,-1225.752797
168.343312,1702.473667,7402.059420,-5286.058936
168.343622,-1554.432478,10362.883188,-1915.238745
168.343931,-0.000000,11473.192101,-3830.477490
168.344241,4515.256246,8068.244768,-11261.603821
168.344550,3552.988522,4737.318029,-5362.668486
168.344860,-2886.803174,7031.956449,9652.803275
168.345169,-1036.288319,3256.906145,9806.022374
168.345479,-3627.009116,10362.883188,4673.182538
168.345788,-222.061783,13101.645173,919.314598
168.346098,2368.659014,10066.800811,-9806.022374
168.346408,-0.000000,13915.871710,-11338.213370
168.346717,-4071.132681,11399.171507,-1378.971896
168.347027,518.144159,13101.645173,-5056.230287
168.347336,148.041188,10140.821405,-3830.477490
168.347646,-3701.029710,9622.677246,3447.429741
168.347955,1184.329507,11621.233289,8580.269578
168.348265,-666.185348,962.267725,0.000000
168.348574,1406.391290,2664.741391,-3447.429741
168.348884,-2220.617826,1998.556043,842.705048
168.349193,592.164754,4515.256246,76.609550
168.349503,1628.453072,13397.727550,-1149.143247
168.349813,-814.226536,18357.107362,459.657299
168.350122,2368.659014,12361.439231,-2911.162892
168.350432,2442.679609,10140.821405,-3983.696590
168.350741,-3108.864956,7624.121203,-766.095498
168.351051,-2294.638420,3997.112087,-1608.800546
168.351360,-1036.288319,9844.739029,-2451.505594
168.351670,2368.659014,13915.871710,689.485948
168.351979,2516.700203,11843.295072,-306.438199
168.352289,-0.000000,11029.068536,-459.657299
