#time,accel_x,accel_y,accel_z
117.855517,-0.000000,8882.471304,-1225.752797
117.855826,814.226536,9104.533087,229.828649
117.856136,-296.082377,9548.656652,-995.924147
117.856446,592.164754,9548.656652,-1915.238745
117.856755,-148.041188,9770.718434,-1608.800546
117.857065,-370.102971,9474.636058,-2757.943793
117.857375,222.061783,9548.656652,-1149.143247
117.857684,-74.020594,9252.574275,-842.705048
117.857994,-0.000000,9178.553681,-229.828649
117.858303,-148.041188,9252.574275,-1225.752797
117.858613,-0.000000,9104.533087,-2528.115143
117.858923,740.205942,9992.780217,-2374.896044
117.859232,-740.205942,10288.862594,-1225.752797
117.859542,740.205942,10362.883188,229.828649
117.859852,222.061783,9696.697840,0.000000
117.860161,370.102971,6957.935855,-1608.800546
117.860471,-0.000000,8512.368333,-2221.676944
117.860780,-148.041188,8734.430116,-2145.067394
117.861090,-0.000000,10288.862594,-612.876398
117.861400,-518.144159,10807.006753,2911.162892
117.861709,1480.411884,8142.265362,1072.533697
117.862019,1702.473667,7476.080014,689.485948
117.862329,4959.379811,6217.729913,459.657299
117.862638,1998.556043,5995.668130,6741.640382
117.862948,-370.102971,6809.894666,10955.165621
117.863257,296.082377,6439.791695,11797.870669
117.863567,7698.141797,9178.553681,5975.544884
117.863877,4885.359217,5329.482782,2834.553343
117.864186,-1924.535449,8068.244768,10878.556072
117.864496,-2368.659014,11251.130318,16011.395908
117.864806,2368.659014,11029.068536,5132.839837
117.865115,2516.700203,12805.562797,2911.162892
117.865425,-1406.391290,12805.562797,11184.994271
117.865734,-9178.553681,15100.201217,15015.471761
117.866044,4811.338623,25018.960840,-2604.724693
117.866354,7476.080014,3108.864956,-1991.848295
117.866663,-444.123565,13249.686362,16854.100956
117.866973,-19541.436869,8438.347739,33861.421012
117.867283,4219.173869,21021.848753,4519.963438
117.867592,2220.617826,6513.812290,-6435.202183
117.867902,-1554.432478,11029.068536,3907.087040
117.868211,-11547.212695,6661.853478,11261.603821
117.868521,-888.247130,9770.718434,3753.867940
117.868831,-296.082377,6883.915261,4519.963438
117.869140,-5625.565159,3330.926739,16241.224558
117.869450,5181.441594,3182.885551,13559.890315
117.869760,-5921.647536,-1776.494261,13100.233016
117.870069,5625.565159,7179.997637,14555.814462
117.870379,-3034.844362,5551.544565,10418.898773
117.870688,-740.205942,6661.853478,1915.238745
117.870998,-2664.741391,8216.285956,8580.269578
117.871308,1628.453072,14508.036463,3217.601092
117.871617,6661.853478,14137.933492,-6358.592633
117.871927,-1480.411884,14063.912898,13559.890315
117.872237,-0.000000,9770.718434,26353.685131
117.872546,1184.329507,3627.009116,16930.710506
117.872856,4145.153275,5477.523971,9193.145976
117.873165,-2442.679609,5329.482782,12487.356617
117.873475,2738.761985,12213.398043,2374.896044
117.873785,5107.421000,14878.139434,-5592.497135
117.874094,1702.473667,18061.024985,3677.258390
117.874404,-3923.091493,13619.789333,14785.643111
117.874713,-3923.091493,13471.748144,12870.404366
117.875023,962.267725,10881.027347,6818.249932
117.875333,3330.926739,7994.224174,-1762.019645
117.875642,2516.700203,6661.853478,-1838.629195
117.875952,-444.123565,8586.388927,12257.527968
117.876262,-1554.432478,11177.109724,17466.977354
117.876571,2146.597232,8142.265362,7967.393179
117.876881,4737.318029,6439.791695,383.047749
117.877190,-3108.864956,3478.967927,-612.876398
117.877500,-7254.018232,6069.688724,8580.269578
117.877810,-2072.576638,7328.038826,536.266849
117.878119,8068.244768,9400.615463,-8350.440928
117.878429,5995.668130,8512.368333,1302.362347
117.878739,-4737.318029,5329.482782,19612.044749
117.879048,-6735.874072,9474.636058,22063.550342
117.879358,1554.432478,11621.233289,7660.954980
117.879667,5847.626942,9326.594869,-5209.449386
117.879977,-5033.400406,14137.933492,766.095498
117.880287,-9400.615463,12731.542202,4826.401637
117.880596,1332.370696,14508.036463,-4213.525239
117.880906,10807.006753,13619.789333,-5975.544884
117.881216,444.123565,10214.842000,12640.575717
117.881525,-6069.688724,5625.565159,32252.620466
117.881835,3108.864956,5921.647536,17696.806004
117.882144,5995.668130,4219.173869,2221.676944
117.882454,-4515.256246,6217.729913,8580.269578
117.882764,-4959.379811,-6143.709319,8273.831378
117.883073,-1702.473667,-2590.720797,-5745.716235
117.883383,6957.935855,8216.285956,4903.011187
117.883693,-27609.681637,-2590.720797,30720.429470
117.884002,11695.253884,17987.004391,19152.387450
117.884312,5847.626942,518.144159,-8197.221829
117.884621,-5107.421000,13101.645173,1532.190996
117.884931,-2812.782580,10140.821405,12870.404366
117.885241,4515.256246,11695.253884,-5439.278036
117.885550,592.164754,14730.098246,2298.286494
117.885860,-4663.297435,16654.633695,26047.246932
117.886170,2812.782580,13249.686362,12870.404366
117.886479,-8290.306550,7105.977043,1762.019645
117.886789,-1406.391290,14804.118840,12027.699319
117.887098,1480.411884,13249.686362,3600.648841
117.887408,740.205942,12657.521608,-9806.022374
117.887718,-1924.535449,15988.448347,8503.660028
117.888027,-5255.462188,16802.674883,15168.690860
117.888337,3627.009116,14211.954086,-3294.210641
117.888647,4589.276840,5995.668130,-1762.019645
117.888956,-5847.626942,12805.562797,17926.634653
117.889266,-3552.988522,7328.038826,13559.890315
117.889575,6883.915261,2516.700203,-1762.019645
117.889885,1850.514855,4219.173869,4443.353888
117.890195,-3330.926739,1628.453072,8580.269578
117.890504,5477.523971,3552.988522,-995.924147
117.890814,-370.102971,8438.347739,5362.668486
117.891124,-7031.956449,8290.306550,13406.671215
117.891433,1480.411884,11103.089130,5132.839837
117.891743,3034.844362,8364.327145,-8503.660028
117.892052,-4515.256246,2516.700203,-6052.154434
117.892362,-4885.359217,9844.739029,4596.572988
117.892672,-962.267725,9918.759623,3064.381992
117.892981,2146.597232,11103.089130,-1149.143247
117.893291,4293.194464,16950.716072,5056.230287
117.893601,2072.576638,9252.574275,3600.648841
117.893910,-2664.741391,7772.162391,1302.362347
117.894220,-592.164754,11695.253884,2528.115143
117.894529,-3923.091493,11103.089130,-689.485948
117.894839,4737.318029,13323.706956,-8886.707777
117.895149,3849.070898,11695.253884,-13330.061665
117.895458,-1776.494261,9474.636058,-4673.182538
117.895768,-3330.926739,6143.709319,8733.488677
117.896078,-962.267725,8586.388927,9193.145976
117.896387,4737.318029,6143.709319,2374.896044
117.896697,6439.791695,5699.585753,-2681.334243
117.897006,1924.535449,6217.729913,0.000000
117.897316,-3034.844362,6217.729913,5362.668486
117.897626,-2294.638420,11991.336260,3677.258390
117.897935,4885.359217,15026.180623,-9193.145976
117.898245,2590.720797,12509.480420,-12563.966167
117.898555,1776.494261,9400.615463,-4290.134789
117.898864,-3849.070898,10955.047942,2681.334243
117.899174,-1406.391290,8512.368333,1149.143247
117.899483,2146.597232,7254.018232,689.485948
117.899793,5773.606348,5699.585753,-2451.505594
117.900103,2146.597232,3997.112087,-689.485948
117.900412,-962.267725,9252.574275,2911.162892
117.900722,-3775.050304,10214.842000,459.657299
117.901032,5107.421000,14137.933492,-8350.440928
117.901341,10140.821405,10140.821405,-13636.499864
117.901651,-2146.597232,2960.823768,-3753.867940
117.901960,-5329.482782,6365.771101,7660.954980
117.902270,1110.308913,6143.709319,4749.792088
117.902580,6883.915261,8586.388927,-3447.429741
117.902889,4663.297435,7402.059420,-2681.334243
117.903199,370.102971,7698.141797,2374.896044
117.903509,-3330.926739,10955.047942,-1532.190996
117.903818,-6069.688724,11399.171507,-2221.676944
117.904128,518.144159,14582.057057,-6281.983084
117.904437,8438.347739,10510.924376,-16241.224558
117.904747,-0.000000,11103.089130,-7124.688131
117.905057,-8660.409521,11251.130318,14096.157163
117.905366,-592.164754,9548.656652,11261.603821
117.905676,8734.430116,9548.656652,-2145.067394
117.905985,4737.318029,6809.894666,-1608.800546
117.906295,-4515.256246,7105.977043,12257.527968
117.906605,-4219.173869,11029.068536,3830.477490
117.906914,1036.288319,14508.036463,-6052.154434
117.907224,1184.329507,11843.295072,0.000000
117.907534,5921.647536,11917.315666,-10878.556072
117.907843,-3108.864956,5255.462188,-7277.907231
117.908153,-8660.409521,11177.109724,15092.081311
117.908462,-1998.556043,11473.192101,13176.842566
117.908772,9844.739029,4145.153275,-10189.070123
117.909082,4071.132681,6365.771101,-4673.182538
117.909391,-7550.100608,6957.935855,14249.376263
117.909701,-4589.276840,7846.182985,4443.353888
117.910011,-666.185348,11621.233289,-8350.440928
117.910320,1554.432478,10658.965565,-5056.230287
117.910630,3849.070898,8882.471304,-9806.022374
117.910939,-4737.318029,4071.132681,-7354.516781
117.911249,-4589.276840,9474.636058,3677.258390
117.911559,-1258.350101,8216.285956,6741.640382
117.911868,7698.141797,9400.615463,-3140.991542
117.912178,4663.297435,6069.688724,-3370.820191
117.912487,-5921.647536,6365.771101,9729.412825
117.912797,-4145.153275,9474.636058,8350.440928
117.913106,1924.535449,12139.377449,-6971.469032
117.913416,4293.194464,14656.077652,-8044.002729
117.913726,3108.864956,11695.253884,-10112.460574
117.914035,-2442.679609,10658.965565,0.000000
117.914345,-2812.782580,12213.398043,11644.651570
117.914654,1924.535449,12657.521608,7354.516781
117.914964,9474.636058,11325.150913,-2221.676944
117.915274,1998.556043,7031.956449,-2068.457845
117.915583,-8290.306550,6513.812290,9346.365076
117.915893,444.123565,12287.418637,766.095498
117.916202,-0.000000,13693.809927,-12410.747068
117.916512,3997.112087,14211.954086,-12947.013916
117.916821,-518.144159,6883.915261,-4903.011187
117.917131,-5329.482782,7179.997637,3294.210641
117.917441,-1554.432478,9474.636058,8810.098227
117.917750,3404.947333,4293.194464,2987.772442
117.918060,5329.482782,3849.070898,-1302.362347
117.918369,1702.473667,5033.400406,-2298.286494
117.918679,-2516.700203,4367.215058,-1302.362347
117.918989,-2146.597232,10658.965565,-2604.724693
117.919298,-1184.329507,7920.203579,-5056.230287
117.919608,814.226536,11991.336260,-6588.421283
117.919917,370.102971,7476.080014,-9039.926876
117.920227,-962.267725,6883.915261,-2145.067394
117.920537,1184.329507,13101.645173,4136.915689
117.920846,2146.597232,11769.274478,2681.334243
117.921156,7105.977043,9474.636058,0.000000
117.921465,2442.679609,11399.171507,919.314598
117.921775,-5699.585753,8216.285956,8120.612279
117.922084,-296.082377,14063.912898,2604.724693
117.922394,-2886.803174,9622.677246,-4443.353888
117.922704,-0.000000,13767.830521,-10189.070123
117.923013,2220.617826,10140.821405,-12947.013916
117.923323,-6513.812290,7476.080014,-1532.190996
117.923632,-370.102971,11843.295072,8963.317327
117.923942,-2368.659014,10436.903782,2451.505594
117.924252,7105.977043,8068.244768,-5975.544884
117.924561,-2516.700203,4737.318029,7967.393179
117.924871,-2886.803174,7994.224174,7584.345430
117.925180,-1480.411884,6143.709319,-5209.449386
117.925490,-4737.318029,11029.068536,-5515.887586
117.925799,-74.020594,10140.821405,-6588.421283
117.926109,370.102971,5551.544565,-14402.595362
117.926419,-4737.318029,10732.986159,-4136.915689
117.926728,-4811.338623,9770.718434,7048.078582
117.927038,-0.000000,7031.956449,1455.581446
117.927347,6217.729913,7105.977043,-383.047749
117.927657,222.061783,6143.709319,3370.820191
117.927967,-2368.659014,7772.162391,5975.544884
117.928276,2516.700203,9104.533087,-3370.820191
117.928586,-1554.432478,10955.047942,-6281.983084
117.928895,3034.844362,15100.201217,-5592.497135
117.929205,2960.823768,10658.965565,-13483.280765
117.929515,-2146.597232,13915.871710,-1762.019645
117.929824,-2886.803174,13471.748144,9422.974625
117.930134,10436.903782,8586.388927,5056.230287
117.930443,6661.853478,13989.892304,-1378.971896
117.930753,2368.659014,11177.109724,2757.943793
117.931062,-2368.659014,6587.832884,10035.851024
117.931372,-1998.556043,7920.203579,1378.971896
117.931682,2516.700203,8882.471304,-6281.983084
117.931991,5329.482782,12509.480420,-13253.452115
117.932301,-1332.370696,7698.141797,-9499.584175
117.932610,-4663.297435,7994.224174,2374.896044
117.932920,-6365.771101,11251.130318,3370.820191
117.933230,3923.091493,7920.203579,2757.943793
117.933539,6957.935855,6735.874072,2451.505594
117.933849,148.041188,7031.956449,0.000000
117.934158,-3775.050304,6587.832884,7584.345430
117.934468,-2590.720797,7772.162391,2298.286494
117.934777,-2072.576638,10584.944971,-9346.365076
117.935087,4441.235652,11325.150913,-14172.766713
117.935397,-5477.523971,8882.471304,-5898.935335
117.935706,-4663.297435,13101.645173,5898.935335
117.936016,740.205942,12657.521608,153.219100
117.936325,1628.453072,9548.656652,2451.505594
117.936635,2886.803174,9474.636058,4826.401637
117.936945,1554.432478,8142.265362,1072.533697
117.937254,296.082377,9474.636058,4136.915689
117.937564,1998.556043,13175.665768,5362.668486
117.937873,-6365.771101,15766.386565,-2834.553343
117.938183,7105.977043,17616.901420,-17620.196454
117.938493,1924.535449,7031.956449,-12027.699319
117.938802,-4811.338623,12287.418637,5515.887586
117.939112,1184.329507,9030.512492,1455.581446
117.939421,4219.173869,6291.750507,-1838.629195
117.939731,5995.668130,10214.842000,1149.143247
117.940040,-2516.700203,3330.926739,3830.477490
117.940350,-2072.576638,11325.150913,1685.410096
117.940660,-1258.350101,9030.512492,-2221.676944
117.940969,-2812.782580,8660.409521,-3677.258390
117.941279,4145.153275,11251.130318,-17850.025103
117.941588,-2738.761985,4589.276840,-13023.623466
117.941898,-4441.235652,10066.800811,3677.258390
117.942208,-4441.235652,8512.368333,1915.238745
117.942517,2590.720797,6365.771101,-5515.887586
117.942827,4441.235652,8142.265362,-2221.676944
117.943136,-296.082377,3182.885551,3064.381992
117.943446,814.226536,7624.121203,2145.067394
117.943755,-5995.668130,11029.068536,-919.314598
117.944065,-1480.411884,10510.924376,-3983.696590
117.944375,4589.276840,11029.068536,-15015.471761
117.944684,518.144159,10584.944971,-14172.766713
117.944994,-11769.274478,12065.356855,4213.525239
117.945303,-444.123565,9770.718434,7277.907231
117.945613,13619.789333,7772.162391,-5056.230287
117.945923,3330.926739,7550.100608,-6971.469032
117.946232,-0.000000,13027.624579,9882.631924
117.946542,-4219.173869,9400.615463,7660.954980
117.946851,740.205942,10881.027347,-6511.811733
117.947161,-1702.473667,14878.139434,-9882.631924
117.947471,2516.700203,11695.253884,-9806.022374
117.947780,-0.000000,8216.285956,-8656.879127
117.948090,-4663.297435,11991.336260,689.485948
117.948399,-4885.359217,7402.059420,3600.648841
117.948709,6143.709319,7846.182985,-2604.724693
117.949018,6069.688724,7328.038826,-8963.317327
117.949328,-1110.308913,1776.494261,2987.772442
117.949638,-2960.823768,10140.821405,11108.384721
117.949947,-3034.844362,7476.080014,-1838.629195
117.950257,2590.720797,8142.265362,-6358.592633
117.950566,1110.308913,11769.274478,-8656.879127
117.950876,-5699.585753,5847.626942,-7814.174080
117.951186,2294.638420,14508.036463,-4366.744339
117.951495,-4071.132681,11473.192101,995.924147
117.951805,5403.503377,11177.109724,2987.772442
117.952114,8660.409521,8882.471304,-3294.210641
117.952424,-1776.494261,3552.988522,2298.286494
117.952733,4293.194464,6883.915261,16394.443657
117.953043,-4811.338623,13249.686362,1532.190996
117.953353,2590.720797,14508.036463,-14709.033562
117.953662,3034.844362,9844.739029,-5975.544884
117.953972,-2590.720797,10807.006753,2528.115143
117.954281,3256.906145,11103.089130,-7048.078582
117.954591,-4737.318029,9918.759623,229.828649
117.954901,5921.647536,14434.015869,3524.039291
117.955210,5181.441594,4737.318029,-8503.660028
117.955520,-1628.453072,9252.574275,689.485948
117.955829,-1702.473667,11917.315666,13636.499864
117.956139,-5329.482782,6143.709319,4213.525239
117.956448,9474.636058,10510.924376,-11721.261119
117.956758,-3256.906145,3552.988522,-10495.508323
117.957068,-6439.791695,7772.162391,4979.620737
117.957377,-666.185348,13175.665768,-1915.238745
117.957687,592.164754,6513.812290,-9959.241474
117.957996,1554.432478,12435.459826,1532.190996
117.958306,370.102971,4663.297435,76.609550
117.958616,962.267725,1998.556043,-2451.505594
117.958925,-1628.453072,14359.995275,6894.859482
117.959235,-4219.173869,8290.306550,766.095498
117.959544,3775.050304,9030.512492,-7354.516781
117.959854,2442.679609,13693.809927,-10418.898773
117.960164,-12805.562797,10362.883188,-4903.011187
117.960473,4737.318029,9252.574275,3447.429741
117.960783,7402.059420,11547.212695,-5975.544884
117.961092,-4737.318029,8068.244768,-1455.581446
117.961402,3034.844362,12213.398043,689.485948
117.961711,-6957.935855,3923.091493,2145.067394
117.962021,666.185348,12731.542202,-995.924147
117.962331,-3256.906145,14063.912898,2451.505594
117.962640,1184.329507,11029.068536,-9576.193725
117.962950,5033.400406,11029.068536,-15781.567259
117.963259,-5625.565159,9992.780217,1685.410096
117.963569,-4515.256246,9622.677246,5132.839837
117.963879,1036.288319,7031.956449,-2145.067394
117.964188,4737.318029,10510.924376,-4903.011187
117.964498,-148.041188,5033.400406,612.876398
117.964807,-1628.453072,8364.327145,5362.668486
117.965117,2368.659014,10732.986159,-3447.429741
117.965426,-4293.194464,5329.482782,-3907.087040
117.965736,-74.020594,13323.706956,-2834.553343
117.966046,-1554.432478,6439.791695,-9729.412825
117.966355,-592.164754,8808.450710,-4826.401637
117.966665,-1998.556043,12509.480420,4519.963438
117.966974,-2442.679609,7031.956449,7507.735880
117.967284,10732.986159,10510.924376,-6128.763984
117.967594,1554.432478,4293.194464,-5975.544884
117.967903,-4441.235652,9918.759623,10265.679673
117.968213,2812.782580,11843.295072,4596.572988
117.968522,-4589.276840,11103.089130,-10725.336972
117.968832,2368.659014,14285.974681,-3830.477490
117.969142,370.102971,8586.388927,-2298.286494
117.969451,1258.350101,9030.512492,-7201.297681
117.969761,-1332.370696,12287.418637,536.266849
117.970070,-3256.906145,9992.780217,9039.926876
117.970380,9844.739029,10510.924376,-4749.792088
117.970689,296.082377,7846.182985,-8503.660028
117.970999,-3478.967927,9992.780217,7277.907231
117.971309,-1036.288319,11325.150913,0.000000
117.971618,814.226536,11103.089130,-7967.393179
117.971928,1850.514855,10362.883188,-6205.373534
117.972237,-666.185348,5921.647536,-7048.078582
117.972547,-444.123565,7105.977043,-2987.772442
117.972857,-4441.235652,6809.894666,5822.325785
117.973166,-1628.453072,8068.244768,2987.772442
117.973476,6143.709319,9252.574275,-3217.601092
117.973785,222.061783,7031.956449,-4443.353888
117.974095,-1998.556043,5921.647536,4826.401637
117.974404,-1998.556043,11547.212695,306.438199
117.974714,-2886.803174,10066.800811,-6818.249932
117.975024,4811.338623,13767.830521,-8350.440928
117.975333,1628.453072,10214.842000,-8580.269578
117.975643,-5403.503377,8808.450710,4903.011187
117.975952,-1776.494261,11473.192101,9193.145976
117.976262,-1998.556043,9030.512492,1532.190996
117.976572,7772.162391,9622.677246,-5362.668486
117.976881,2294.638420,7328.038826,-306.438199
117.977191,-2146.597232,12287.418637,536.266849
117.977500,-3701.029710,11103.089130,-1225.752797
117.977810,-4219.173869,11399.171507,-919.314598
117.978120,5403.503377,12657.521608,-9193.145976
117.978429,148.041188,6143.709319,-10648.727422
117.978739,-2220.617826,12435.459826,2451.505594
117.979048,-5403.503377,7402.059420,4366.744339
117.979358,-0.000000,6513.812290,1378.971896
117.979667,7920.203579,10732.986159,-2451.505594
117.979977,296.082377,-888.247130,-689.485948
117.980287,-2368.659014,8586.388927,7048.078582
117.980596,-6735.874072,11029.068536,4979.620737
117.980906,-2590.720797,11473.192101,-6741.640382
117.981215,6883.915261,12657.521608,-14862.252661
117.981525,-4145.153275,9104.533087,-12640.575717
117.981835,-4737.318029,10881.027347,2757.943793
117.982144,-2738.761985,11843.295072,3983.696590
117.982454,-444.123565,6143.709319,-153.219100
117.982763,6883.915261,5699.585753,2451.505594
117.983073,2220.617826,5033.400406,1685.410096
117.983382,-3552.988522,7476.080014,7660.954980
117.983692,-3923.091493,13693.809927,4213.525239
117.984002,2368.659014,10955.047942,-10342.289223
117.984311,6587.832884,15248.242405,-15398.519510
117.984621,-1332.370696,8956.491898,-5515.887586
117.984930,-6809.894666,12435.459826,5898.935335
117.985240,-2960.823768,10436.903782,3140.991542
117.985550,3627.009116,10140.821405,5056.230287
117.985859,8882.471304,9400.615463,-1762.019645
117.986169,-592.164754,3552.988522,995.924147
117.986478,-1702.473667,8290.306550,7507.735880
117.986788,-4145.153275,9474.636058,-689.485948
117.987097,1628.453072,7920.203579,-8810.098227
117.987407,5995.668130,12065.356855,-12563.966167
117.987717,-3627.009116,8586.388927,-9346.365076
117.988026,-4145.153275,8734.430116,5592.497135
117.988336,740.205942,9918.759623,4673.182538
117.988645,4441.235652,4071.132681,-766.095498
117.988955,7254.018232,3849.070898,0.000000
117.989265,-3701.029710,4737.318029,2604.724693
117.989574,-3108.864956,6957.935855,4903.011187
117.989884,-74.020594,13693.809927,-3600.648841
117.990193,1702.473667,13693.809927,-12793.794817
117.990503,5181.441594,11621.233289,-15168.690860
117.990813,-4441.235652,8956.491898,-3064.381992
117.991122,-3256.906145,10362.883188,9729.412825
117.991432,-5181.441594,8216.285956,6205.373534
117.991741,7476.080014,5995.668130,229.828649
117.992051,10066.800811,6217.729913,-1915.238745
117.992360,-8882.471304,6513.812290,4519.963438
117.992670,740.205942,13175.665768,4213.525239
117.992980,-5033.400406,10214.842000,-8963.317327
117.993289,1184.329507,14952.160028,-8197.221829
117.993599,3775.050304,15544.324782,-10265.679673
117.993908,-5181.441594,8216.285956,-8733.488677
117.994218,-3478.967927,16580.613101,8503.660028
117.994528,-1406.391290,9104.533087,5669.106685
117.994837,4737.318029,5773.606348,-2451.505594
117.995147,7031.956449,6365.771101,-459.657299
117.995456,-4811.338623,3701.029710,6205.373534
117.995766,-1924.535449,9474.636058,5898.935335
117.996075,-2072.576638,11103.089130,-5515.887586
117.996385,3404.947333,10955.047942,-8044.002729
117.996695,3627.009116,11769.274478,-12027.699319
117.997004,-6513.812290,8068.244768,-3830.477490
117.997314,-3256.906145,9770.718434,5822.325785
117.997623,2812.782580,8734.430116,2068.457845
117.997933,3923.091493,8364.327145,-2068.457845
117.998243,1258.350101,6069.688724,2757.943793
117.998552,-296.082377,9178.553681,9959.241474
117.998862,2368.659014,12213.398043,2834.553343
117.999171,-4737.318029,3404.947333,-2298.286494
117.999481,-2294.638420,13101.645173,-2987.772442
117.999791,-1924.535449,9770.718434,-13866.328514
118.000100,-3552.988522,12139.377449,-7737.564530
118.000410,1036.288319,20281.642811,7584.345430
118.000719,592.164754,9548.656652,-1991.848295
118.001029,5255.462188,8956.491898,-3907.087040
118.001338,-592.164754,8882.471304,3524.039291
118.001648,-74.020594,3108.864956,8273.831378
118.001958,2072.576638,9104.533087,2681.334243
118.002267,-4589.276840,11547.212695,-2145.067394
118.002577,814.226536,10881.027347,-2221.676944
118.002886,4737.318029,12435.459826,-14325.985813
118.003196,-4663.297435,8660.409521,-12180.918418
118.003506,-3256.906145,10288.862594,6588.421283
118.003815,2960.823768,7994.224174,1991.848295
118.004125,3849.070898,7550.100608,-4596.572988
118.004434,2220.617826,7920.203579,5286.058936
118.004744,-6587.832884,4515.256246,12180.918418
118.005053,2960.823768,10436.903782,229.828649
118.005363,296.082377,7772.162391,-5822.325785
118.005673,-888.247130,18949.272115,-5592.497135
118.005982,-0.000000,12953.603985,-14019.547613
118.006292,-444.123565,6661.853478,-9116.536426
118.006601,1998.556043,18135.045579,2451.505594
118.006911,-4885.359217,5699.585753,5898.935335
118.007221,12583.501014,7624.121203,7048.078582
118.007530,2442.679609,9992.780217,2068.457845
118.007840,740.205942,4959.379811,6205.373534
118.008149,-74.020594,8808.450710,11184.994271
118.008459,-5033.400406,9474.636058,-5898.935335
118.008769,7846.182985,12287.418637,-13483.280765
118.009078,592.164754,14656.077652,-11338.213370
118.009387,-2664.741391,10288.862594,-5132.839837
118.009697,-4589.276840,11621.233289,3524.039291
118.010006,1776.494261,11769.274478,919.314598
118.010316,5477.523971,7105.977043,-306.438199
118.010625,2442.679609,5255.462188,3907.087040
118.010934,-1184.329507,6069.688724,8733.488677
118.011244,-1702.473667,6143.709319,1072.533697
118.011553,-296.082377,8364.327145,-3907.087040
118.011862,-0.000000,10140.821405,-6128.763984
118.012172,222.061783,9844.739029,-15092.081311
118.012481,-3701.029710,9548.656652,-5822.325785
118.012790,-296.082377,14804.118840,3753.867940
118.013100,222.061783,4811.338623,1455.581446
118.013409,5329.482782,11103.089130,612.876398
118.013719,-0.000000,5477.523971,4060.306139
118.014028,-1480.411884,2960.823768,6741.640382
118.014337,4367.215058,13767.830521,76.609550
118.014647,-4885.359217,7476.080014,-4060.306139
118.014956,3478.967927,22576.281231,-5745.716235
118.015265,9400.615463,9918.759623,-13176.842566
118.015575,-2220.617826,12139.377449,-9269.755526
118.015884,-10955.047942,11547.212695,12870.404366
118.016193,-1036.288319,7328.038826,2681.334243
118.016503,7624.121203,10807.006753,-7737.564530
118.016812,2442.679609,7846.182985,76.609550
118.017122,-2516.700203,6587.832884,11568.042020
118.017431,-2072.576638,10584.944971,2681.334243
118.017740,-740.205942,11621.233289,-3140.991542
118.018050,370.102971,10510.924376,-6741.640382
118.018359,-74.020594,8290.306550,-10878.556072
118.018668,-3256.906145,11177.109724,-1378.971896
118.018978,-4589.276840,9474.636058,3907.087040
118.019287,2146.597232,6957.935855,-1378.971896
118.019596,8290.306550,8660.409521,-3140.991542
118.019906,296.082377,3552.988522,-842.705048
118.020215,-3034.844362,6143.709319,9422.974625
118.020524,-1924.535449,10362.883188,7124.688131
118.020834,-3552.988522,7550.100608,-1225.752797
118.021143,7105.977043,14804.118840,-9959.241474
118.021453,-444.123565,11695.253884,-16624.272307
118.021762,-8216.285956,8142.265362,-3370.820191
118.022071,-3701.029710,14434.015869,5669.106685
118.022381,2886.803174,8882.471304,-2604.724693
118.022690,7031.956449,4293.194464,-5592.497135
118.022999,-5773.606348,4293.194464,4673.182538
118.023309,-2368.659014,4589.276840,9499.584175
118.023618,-5033.400406,8068.244768,8503.660028
118.023927,4071.132681,15322.262999,-1532.190996
118.024237,5551.544565,12287.418637,-16164.615008
118.024546,-2368.659014,8882.471304,-14096.157163
118.024856,-5921.647536,14063.912898,3830.477490
118.025165,-4589.276840,13101.645173,2298.286494
118.025474,5033.400406,7698.141797,-4366.744339
118.025784,5625.565159,11917.315666,-3753.867940
118.026093,-1554.432478,3478.967927,766.095498
118.026402,-3775.050304,7698.141797,13253.452115
118.026712,-148.041188,11695.253884,4749.792088
118.027021,5255.462188,4293.194464,-7584.345430
118.027330,4515.256246,12139.377449,-9269.755526
118.027640,-4293.194464,5181.441594,-7201.297681
118.027949,-5033.400406,7105.977043,-689.485948
118.028259,-444.123565,15396.283594,2298.286494
118.028568,-1776.494261,8438.347739,-3217.601092
118.028877,12805.562797,7624.121203,-3294.210641
118.029187,-814.226536,9104.533087,-1225.752797
118.029496,-6587.832884,7994.224174,9729.412825
118.029805,-666.185348,10066.800811,5669.106685
118.030115,3627.009116,12139.377449,-8350.440928
118.030424,1184.329507,2072.576638,-8963.317327
118.030733,-15692.365970,7994.224174,-4443.353888
118.031043,-3552.988522,7105.977043,-3447.429741
118.031352,-1924.535449,9474.636058,3217.601092
118.031662,3775.050304,19541.436869,8273.831378
118.031971,9918.759623,12213.398043,-6052.154434
118.032280,-666.185348,2368.659014,-6435.202183
118.032590,-6291.750507,15322.262999,15781.567259
118.032899,-4145.153275,10510.924376,5745.716235
118.033208,5699.585753,3775.050304,-12410.747068
118.033518,6217.729913,15988.448347,-12180.918418
118.033827,-8216.285956,8956.491898,-4903.011187
118.034136,-4145.153275,11251.130318,2987.772442
118.034446,1036.288319,11695.253884,-1225.752797
118.034755,2590.720797,4959.379811,-5515.887586
118.035064,5995.668130,11103.089130,-383.047749
118.035374,-4959.379811,1184.329507,9346.365076
118.035683,-0.000000,7920.203579,8273.831378
118.035993,296.082377,9548.656652,-1685.410096
118.036302,-0.000000,10436.903782,-5592.497135
118.036611,2664.741391,9844.739029,-8656.879127
118.036921,-2590.720797,9104.533087,-8120.612279
118.037230,-4737.318029,14063.912898,766.095498
118.037539,-3701.029710,6661.853478,3600.648841
118.037849,5033.400406,10362.883188,-2834.553343
118.038158,740.205942,-7179.997637,383.047749
118.038467,-23760.610738,2664.741391,5286.058936
118.038777,4515.256246,3627.009116,2451.505594
118.039086,-5255.462188,8364.327145,-536.266849
118.039396,4515.256246,25018.960840,2834.553343
118.039705,7031.956449,16580.613101,-16394.443657
118.040014,-4811.338623,8290.306550,-17160.539155
118.040324,-7031.956449,18875.251521,11797.870669
118.040633,-3775.050304,8512.368333,3907.087040
118.040942,7772.162391,2664.741391,-7507.735880
118.041252,8734.430116,9918.759623,-842.705048
118.041561,-7846.182985,2812.782580,2604.724693
118.041870,-1110.308913,9918.759623,5056.230287
118.042180,2072.576638,11251.130318,229.828649
118.042489,2368.659014,9770.718434,-11491.432470
118.042799,-370.102971,13397.727550,-16088.005458
118.043108,-7476.080014,6217.729913,2604.724693
118.043417,-3034.844362,12139.377449,2145.067394
118.043727,1110.308913,8216.285956,-5439.278036
118.044036,1184.329507,7994.224174,4979.620737
118.044345,3478.967927,5699.585753,4826.401637
118.044655,2368.659014,5551.544565,-3677.258390
118.044964,518.144159,15618.345376,3217.601092
118.045273,-7476.080014,6069.688724,3370.820191
118.045583,3552.988522,13101.645173,-9652.803275
118.045892,-1924.535449,-1184.329507,-9806.022374
118.046202,-19467.416275,6143.709319,-2145.067394
118.046511,9992.780217,6217.729913,689.485948
118.046820,-7105.977043,3997.112087,919.314598
118.047130,6735.874072,21391.951724,4136.915689
118.047439,1850.514855,6365.771101,-4979.620737
118.047748,-3775.050304,5625.565159,-3064.381992
118.048058,-3330.926739,19911.539840,13559.890315
118.048367,-5181.441594,10732.986159,1685.410096
118.048676,8808.450710,9918.759623,-11874.480219
118.048986,1184.329507,12953.603985,-9729.412825
118.049295,-8586.388927,6957.935855,-6128.763984
118.049605,-1406.391290,8808.450710,3447.429741
118.049914,-2368.659014,8882.471304,-842.705048
118.050223,2960.823768,7772.162391,-3983.696590
118.050533,3997.112087,8290.306550,-4366.744339
118.050842,-2516.700203,5329.482782,8427.050478
118.051151,-2442.679609,10362.883188,4136.915689
118.051461,-1554.432478,10955.047942,-4596.572988
118.051770,1850.514855,11843.295072,-2451.505594
118.052079,4737.318029,10510.924376,-10035.851024
118.052389,-2960.823768,10066.800811,-9499.584175
118.052698,-3849.070898,12583.501014,766.095498
118.053007,-4737.318029,5921.647536,9039.926876
118.053317,7476.080014,12435.459826,-1991.848295
118.053626,2516.700203,-6439.791695,-1608.800546
118.053936,-20947.828159,4219.173869,7124.688131
118.054245,2220.617826,7698.141797,3907.087040
118.054554,-5921.647536,7031.956449,-3907.087040
118.054864,4737.318029,28794.011144,-4213.525239
118.055173,3034.844362,13841.851115,-16164.615008
118.055482,-2072.576638,9696.697840,-11338.213370
118.055792,-4811.338623,16876.695478,9193.145976
118.056101,-5773.606348,4367.215058,7431.126331
118.056410,11251.130318,6217.729913,-1072.533697
118.056720,1776.494261,3701.029710,3370.820191
118.057029,-2738.761985,5995.668130,4596.572988
118.057339,-4737.318029,7105.977043,3064.381992
118.057648,-2368.659014,7772.162391,-3447.429741
118.057957,2368.659014,12805.562797,-13253.452115
118.058267,2738.761985,10214.842000,-19995.092498
118.058576,-2960.823768,11399.171507,-4979.620737
118.058885,-9030.512492,13175.665768,5822.325785
118.059195,3552.988522,5107.421000,3370.820191
118.059504,4145.153275,8956.491898,4136.915689
118.059813,3627.009116,2590.720797,3064.381992
118.060123,814.226536,5625.565159,4673.182538
118.060432,-0.000000,13693.809927,2145.067394
118.060742,-3330.926739,8808.450710,-3907.087040
118.061051,2738.761985,16062.468941,-12717.185267
118.061360,-1628.453072,1480.411884,-14479.204912
118.061670,-14582.057057,7179.997637,-4366.744339
118.061979,-4145.153275,10140.821405,-306.438199
118.062288,-2664.741391,6661.853478,4979.620737
118.062598,8068.244768,16876.695478,8503.660028
118.062907,6291.750507,5625.565159,-1915.238745
118.063216,-296.082377,4663.297435,1302.362347
118.063526,-7476.080014,10510.924376,9422.974625
118.063835,-2368.659014,11103.089130,-4979.620737
118.064145,5329.482782,11177.109724,-15781.567259
118.064454,2146.597232,12287.418637,-12640.575717
118.064763,-5255.462188,12139.377449,-4673.182538
118.065073,-7476.080014,7402.059420,5745.716235
118.065382,4219.173869,5033.400406,6818.249932
118.065691,4367.215058,4293.194464,-2757.943793
118.066001,2590.720797,3108.864956,-3677.258390
118.066310,-4663.297435,4885.359217,12487.356617
118.066619,-5403.503377,11177.109724,2068.457845
118.066929,2590.720797,9992.780217,-12870.404366
118.067238,4071.132681,18505.148550,-11338.213370
118.067548,-74.020594,11399.171507,-10725.336972
118.067857,-1998.556043,11547.212695,-4366.744339
118.068166,-0.000000,14878.139434,6205.373534
118.068476,-1480.411884,6809.894666,6358.592633
118.068785,9474.636058,9622.677246,1838.629195
118.069094,444.123565,-9474.636058,3907.087040
118.069404,-18135.045579,7254.018232,5822.325785
118.069713,-3701.029710,7031.956449,-3217.601092
118.070022,-2368.659014,11399.171507,-5975.544884
118.070332,5847.626942,27683.702231,-7354.516781
118.070641,3108.864956,13693.809927,-17237.148705
118.070950,-1406.391290,11473.192101,-8273.831378
118.071260,-8290.306550,14804.118840,14709.033562
118.071569,2072.576638,5403.503377,5286.058936
118.071879,12139.377449,3108.864956,-1608.800546
118.072188,-814.226536,3701.029710,8580.269578
118.072497,-5329.482782,7254.018232,9652.803275
118.072807,-3552.988522,7994.224174,1149.143247
118.073116,2812.782580,13101.645173,-8350.440928
118.073425,-148.041188,14508.036463,-17466.977354
118.073735,888.247130,9178.553681,-20148.311597
118.074044,-7994.224174,10436.903782,1378.971896
118.074353,-5995.668130,10510.924376,5822.325785
118.074663,7772.162391,5773.606348,-4290.134789
118.074972,5921.647536,7846.182985,5286.058936
118.075282,-2220.617826,518.144159,12717.185267
118.075591,2812.782580,5773.606348,4213.525239
118.075900,-814.226536,11473.192101,-2451.505594
118.076210,-3034.844362,9178.553681,-919.314598
118.076519,4071.132681,15100.201217,-11491.432470
118.076828,-962.267725,2072.576638,-15398.519510
118.077138,-13841.851115,15026.180623,-3447.429741
118.077447,-6661.853478,11843.295072,-1225.752797
118.077756,2442.679609,9400.615463,-842.705048
118.078066,6069.688724,15766.386565,8580.269578
118.078375,3849.070898,7772.162391,7201.297681
118.078685,1406.391290,6883.915261,1532.190996
118.078994,-7328.038826,7254.018232,7814.174080
118.079303,2442.679609,11547.212695,-3983.696590
118.079613,3478.967927,5995.668130,-18462.901502
118.079922,-0.000000,9474.636058,-12027.699319
118.080231,-6365.771101,13471.748144,689.485948
118.080541,-2146.597232,7698.141797,-306.438199
118.080850,7624.121203,8586.388927,766.095498
118.081159,-0.000000,7254.018232,2374.896044
118.081469,666.185348,3108.864956,919.314598
118.081778,-74.020594,6883.915261,8350.440928
118.082088,-3701.029710,8364.327145,612.876398
118.082397,1702.473667,10140.821405,-7890.783629
118.082706,1850.514855,13767.830521,-9346.365076
118.083016,-2960.823768,6957.935855,-10035.851024
118.083325,814.226536,14434.015869,-612.876398
118.083634,-592.164754,11843.295072,1302.362347
118.083944,296.082377,9474.636058,5822.325785
118.084253,8586.388927,12583.501014,3907.087040
118.084562,-370.102971,-7328.038826,3907.087040
118.084872,-14656.077652,6587.832884,7737.564530
118.085181,-4589.276840,5329.482782,-1532.190996
118.085490,2664.741391,13323.706956,-8810.098227
118.085800,7031.956449,21614.013506,-10418.898773
118.086109,-1480.411884,12879.583391,-12717.185267
118.086419,1554.432478,15248.242405,-5592.497135
118.086728,-6439.791695,9178.553681,6588.421283
118.087037,2368.659014,5847.626942,9269.755526
118.087347,5921.647536,2812.782580,1225.752797
118.087656,2146.597232,962.267725,5975.544884
118.087965,-1628.453072,7772.162391,6128.763984
118.088275,-6957.935855,6957.935855,-2834.553343
118.088584,6069.688724,15914.427753,-6894.859482
118.088893,-2516.700203,10955.047942,-14096.157163
118.089203,1036.288319,9104.533087,-15398.519510
118.089512,-3701.029710,11769.274478,1225.752797
118.089822,-6365.771101,7994.224174,3140.991542
118.090131,5329.482782,8660.409521,689.485948
118.090440,4737.318029,8882.471304,6281.983084
118.090750,1110.308913,3552.988522,6052.154434
118.091059,444.123565,8068.244768,6741.640382
118.091368,-2146.597232,9326.594869,2987.772442
118.091678,-1628.453072,11843.295072,-2834.553343
118.091987,1628.453072,12879.583391,-14709.033562
118.092296,-5403.503377,1702.473667,-12334.137518
118.092606,-22428.240043,9030.512492,383.047749
118.092915,1998.556043,4589.276840,-3370.820191
118.093225,-1258.350101,10955.047942,383.047749
118.093534,10658.965565,18061.024985,5822.325785
118.093843,296.082377,7402.059420,3217.601092
118.094153,-2368.659014,12065.356855,2451.505594
118.094462,-7402.059420,7105.977043,9652.803275
118.094771,1406.391290,10732.986159,-4903.011187
118.095081,6809.894666,8290.306550,-19995.092498
118.095390,-2220.617826,7402.059420,-8503.660028
118.095699,-7698.141797,14211.954086,-536.266849
118.096009,-5625.565159,6883.915261,-1302.362347
118.096318,9326.594869,15322.262999,-2604.724693
118.096628,592.164754,6735.874072,0.000000
118.096937,-1702.473667,5255.462188,3217.601092
118.097246,296.082377,8882.471304,9652.803275
118.097556,-7179.997637,4959.379811,-1225.752797
118.097865,8068.244768,9918.759623,-8350.440928
118.098174,-1702.473667,7550.100608,-9116.536426
118.098484,-1924.535449,10362.883188,-7967.393179
118.098793,1406.391290,13323.706956,-766.095498
118.099102,-4367.215058,11103.089130,1149.143247
118.099412,1776.494261,12213.398043,4903.011187
118.099721,6069.688724,6735.874072,-842.705048
118.100031,-7179.997637,5847.626942,-1915.238745
118.100340,-10436.903782,2516.700203,9652.803275
118.100649,7550.100608,7105.977043,-766.095498
118.100959,-8734.430116,9474.636058,-7201.297681
118.101268,8142.265362,18135.045579,-10342.289223
118.101577,-6439.791695,13545.768739,-9039.926876
118.101887,-3997.112087,14285.974681,-2987.772442
118.102196,444.123565,10436.903782,4290.134789
118.102505,1628.453072,12435.459826,0.000000
118.102815,11917.315666,8734.430116,-6281.983084
118.103124,-3182.885551,-962.267725,9193.145976
118.103433,-8660.409521,10658.965565,11414.822920
118.103743,1110.308913,2368.659014,1455.581446
118.104052,7402.059420,12657.521608,-12257.527968
118.104362,444.123565,11325.150913,-12793.794817
118.104671,-7846.182985,6809.894666,-2681.334243
118.104980,-370.102971,12879.583391,842.705048
118.105290,-6217.729913,5033.400406,-6971.469032
118.105599,10362.883188,11917.315666,-2604.724693
118.105908,1184.329507,7328.038826,4136.915689
118.106218,-2960.823768,9030.512492,6281.983084
118.106527,4441.235652,10288.862594,9422.974625
118.106836,-3478.967927,7179.997637,3524.039291
118.107146,2516.700203,13397.727550,-4749.792088
118.107455,1924.535449,7105.977043,-10112.460574
118.107765,-14137.933492,13545.768739,-9039.926876
118.108074,-518.144159,4663.297435,-842.705048
118.108383,11251.130318,7920.203579,-3907.087040
118.108693,-9696.697840,11991.336260,383.047749
118.109002,4219.173869,12139.377449,5822.325785
118.109311,-4145.153275,8734.430116,1838.629195
118.109621,-0.000000,13101.645173,3370.820191
118.109930,-1776.494261,8512.368333,6435.202183
118.110239,1850.514855,13027.624579,-4596.572988
118.110549,6957.935855,15100.201217,-16088.005458
118.110858,-8142.265362,8364.327145,-4290.134789
118.111168,-3256.906145,10955.047942,3140.991542
118.111477,-1036.288319,5477.523971,-842.705048
118.111786,6809.894666,14137.933492,-2757.943793
118.112096,2368.659014,3923.091493,995.924147
118.112405,-6587.832884,4515.256246,9039.926876
118.112715,3923.091493,6069.688724,4596.572988
118.113024,-4441.235652,2220.617826,-4290.134789
118.113334,8068.244768,11177.109724,-9882.631924
118.113643,-3775.050304,8364.327145,-7201.297681
118.113953,-2146.597232,14878.139434,-2068.457845
118.114262,-518.144159,12213.398043,-229.828649
118.114572,-2590.720797,8956.491898,0.000000
118.114881,4515.256246,13101.645173,5056.230287
118.115191,222.061783,5551.544565,766.095498
118.115500,-6513.812290,6217.729913,2298.286494
118.115809,-8586.388927,3034.844362,4136.915689
118.116119,4885.359217,4589.276840,-7048.078582
118.116428,-5995.668130,15100.201217,-6665.030833
118.116738,2812.782580,15840.407159,-3140.991542
118.117047,-2960.823768,10584.944971,-3677.258390
118.117357,-740.205942,12879.583391,-4060.306139
118.117666,-2442.679609,9696.697840,5286.058936
118.117976,2812.782580,5921.647536,2834.553343
118.118285,7920.203579,9622.677246,-4673.182538
118.118595,-1036.288319,4367.215058,5898.935335
118.118904,-5699.585753,8660.409521,6741.640382
118.119214,-1332.370696,9326.594869,-2145.067394
118.119523,8290.306550,16580.613101,-11874.480219
118.119832,-1998.556043,7105.977043,-11184.994271
118.120142,-6217.729913,9770.718434,842.705048
118.120451,-962.267725,10436.903782,1991.848295
118.120761,-1036.288319,4885.359217,-3677.258390
118.121070,5181.441594,10066.800811,842.705048
118.121380,-2664.741391,4515.256246,1685.410096
118.121689,1850.514855,9548.656652,2451.505594
118.121999,3182.885551,10436.903782,3064.381992
118.122308,-2072.576638,12213.398043,-2757.943793
118.122618,1554.432478,11621.233289,-2068.457845
118.122927,-74.020594,6809.894666,-4596.572988
118.123237,-2516.700203,592.164754,-3524.039291
118.123546,-13323.706956,6439.791695,1991.848295
118.123856,-1036.288319,5255.462188,-2145.067394
118.124165,1702.473667,10807.006753,-1378.971896
118.124474,4663.297435,15396.283594,5592.497135
118.124784,2442.679609,12065.356855,2451.505594
118.125093,1406.391290,9252.574275,-4366.744339
118.125403,-4811.338623,14211.954086,-2451.505594
118.125712,-370.102971,11917.315666,-4519.963438
118.126022,5329.482782,5625.565159,-14172.766713
118.126331,518.144159,8364.327145,-2451.505594
118.126641,-7920.203579,7624.121203,7814.174080
118.126950,592.164754,6365.771101,7507.735880
118.127260,9844.739029,8512.368333,-3370.820191
118.127569,-148.041188,5033.400406,-4443.353888
118.127879,-3330.926739,11177.109724,6511.811733
118.128188,-2442.679609,10214.842000,3140.991542
118.128497,-370.102971,9548.656652,-9652.803275
118.128807,3552.988522,13397.727550,-8197.221829
118.129116,666.185348,9030.512492,-5592.497135
118.129426,-0.000000,9844.739029,-2834.553343
118.129735,-2738.761985,7476.080014,9346.365076
118.130045,-3775.050304,7254.018232,5132.839837
118.130354,4071.132681,6957.935855,3600.648841
118.130664,2738.761985,6513.812290,1762.019645
118.130973,-2590.720797,10140.821405,2451.505594
118.131283,1850.514855,15026.180623,-1608.800546
118.131592,6513.812290,14285.974681,-7124.688131
118.131902,296.082377,16284.530724,-16088.005458
118.132211,-3923.091493,7846.182985,-9729.412825
118.132520,-4367.215058,10140.821405,3600.648841
118.132830,-0.000000,8808.450710,3677.258390
118.133139,3997.112087,8216.285956,2298.286494
118.133449,3034.844362,5625.565159,4443.353888
118.133758,370.102971,3330.926739,4519.963438
118.134068,-2516.700203,6735.874072,4443.353888
118.134377,-2886.803174,5921.647536,-995.924147
118.134687,-3478.967927,14804.118840,-4903.011187
118.134996,3330.926739,13989.892304,-11414.822920
118.135306,1776.494261,11843.295072,-14709.033562
118.135615,-2442.679609,14434.015869,-1838.629195
118.135925,-5847.626942,8586.388927,7124.688131
118.136234,2812.782580,6809.894666,2451.505594
118.136543,4885.359217,6883.915261,-383.047749
118.136853,-296.082377,2664.741391,3217.601092
118.137162,-2368.659014,5995.668130,9193.145976
118.137472,-1406.391290,8956.491898,-1149.143247
118.137781,3256.906145,15248.242405,-8120.612279
118.138091,1554.432478,16654.633695,-9422.974625
118.138400,-2664.741391,13397.727550,-7124.688131
118.138710,-2886.803174,11917.315666,-1378.971896
118.139019,-3034.844362,9400.615463,-842.705048
118.139329,14952.160028,10881.027347,2221.676944
118.139638,8364.327145,12953.603985,3600.648841
118.139948,-666.185348,9474.636058,2298.286494
118.140257,-962.267725,-1628.453072,9269.755526
118.140566,-5921.647536,7328.038826,1838.629195
118.140876,2442.679609,11177.109724,-8427.050478
118.141185,2516.700203,11325.150913,-17850.025103
118.141495,-148.041188,12435.459826,-10265.679673
118.141804,-3404.947333,10807.006753,-1072.533697
118.142114,222.061783,9104.533087,2145.067394
118.142423,-666.185348,6661.853478,1378.971896
118.142733,-592.164754,9252.574275,5209.449386
118.143042,3849.070898,4663.297435,3907.087040
118.143352,-1258.350101,7105.977043,1608.800546
118.143661,-1110.308913,9696.697840,-1455.581446
118.143971,-0.000000,11769.274478,-6588.421283
118.144280,2146.597232,13693.809927,-15858.176809
118.144590,518.144159,12287.418637,-10801.946522
118.144899,-2738.761985,11029.068536,3447.429741
118.145208,-1110.308913,10140.821405,4366.744339
118.145518,4293.194464,7328.038826,76.609550
118.145827,3034.844362,4811.338623,4903.011187
118.146137,-2146.597232,4071.132681,6818.249932
118.146446,-1998.556043,9622.677246,4443.353888
118.146756,-1184.329507,9696.697840,-5745.716235
118.147065,1924.535449,13323.706956,-12640.575717
118.147375,1924.535449,15766.386565,-13636.499864
118.147684,-2590.720797,11547.212695,-7277.907231
118.147994,-2960.823768,13397.727550,1302.362347
118.148303,3256.906145,6809.894666,6435.202183
118.148613,1554.432478,6587.832884,6588.421283
118.148922,814.226536,3923.091493,7660.954980
118.149231,-518.144159,1776.494261,3907.087040
118.149541,370.102971,6883.915261,1302.362347
118.149850,-3701.029710,10658.965565,-4366.744339
118.150160,-1406.391290,14656.077652,-10572.117872
118.150469,-296.082377,13989.892304,-13789.718964
118.150779,-1924.535449,11695.253884,-10189.070123
118.151088,-2368.659014,10214.842000,3907.087040
118.151398,814.226536,7846.182985,1915.238745
118.151707,2368.659014,6883.915261,4903.011187
118.152017,2442.679609,4589.276840,10112.460574
118.152326,2146.597232,4367.215058,5822.325785
118.152636,962.267725,7254.018232,2221.676944
118.152945,-1924.535449,9400.615463,612.876398
118.153254,-296.082377,15544.324782,-7124.688131
118.153564,2738.761985,12657.521608,-16854.100956
118.153873,-3923.091493,11177.109724,-8120.612279
118.154183,-7105.977043,15248.242405,2834.553343
118.154492,1850.514855,9178.553681,-1378.971896
118.154802,4293.194464,8216.285956,-1532.190996
118.155111,-370.102971,6439.791695,5515.887586
118.155421,-0.000000,4959.379811,12257.527968
118.155730,1628.453072,4811.338623,4673.182538
118.156040,-4219.173869,8216.285956,-1225.752797
118.156349,-2960.823768,14285.974681,-3830.477490
118.156659,2146.597232,9696.697840,-13023.623466
118.156968,592.164754,8956.491898,-12027.699319
118.157277,-4145.153275,12287.418637,383.047749
118.157587,962.267725,7698.141797,2145.067394
118.157896,1924.535449,8808.450710,229.828649
118.158206,1554.432478,6735.874072,5745.716235
118.158515,222.061783,6217.729913,6665.030833
118.158825,-2368.659014,6291.750507,3524.039291
118.159134,962.267725,10881.027347,-3830.477490
118.159444,-518.144159,13175.665768,-8580.269578
118.159753,370.102971,11695.253884,-8886.707777
118.160063,-1184.329507,13027.624579,-6894.859482
118.160372,370.102971,12361.439231,0.000000
118.160682,888.247130,10140.821405,1072.533697
118.160991,2886.803174,8142.265362,4826.401637
118.161301,518.144159,5921.647536,6281.983084
118.161610,1480.411884,6143.709319,3753.867940
118.161919,-1406.391290,7105.977043,3524.039291
118.162229,-1332.370696,10436.903782,-2681.334243
118.162538,370.102971,12731.542202,-12640.575717
118.162848,222.061783,11917.315666,-14785.643111
118.163157,-2812.782580,9400.615463,-8580.269578
118.163467,1332.370696,14730.098246,459.657299
118.163776,2738.761985,8734.430116,1225.752797
118.164086,-814.226536,8438.347739,5592.497135
118.164395,1406.391290,6069.688724,8580.269578
118.164705,-148.041188,740.205942,3524.039291
118.165014,666.185348,6143.709319,766.095498
118.165324,-2516.700203,9252.574275,-1838.629195
118.165633,-1554.432478,14211.954086,-9576.193725
118.165942,-592.164754,12361.439231,-15398.519510
118.166252,-1554.432478,13249.686362,-8886.707777
118.166561,-1406.391290,11251.130318,-995.924147
118.166871,-3256.906145,6587.832884,-3370.820191
118.167180,3701.029710,9696.697840,3447.429741
118.167490,2738.761985,2368.659014,6818.249932
118.167799,3478.967927,5921.647536,7354.516781
118.168109,-3701.029710,8660.409521,6741.640382
118.168418,2516.700203,10362.883188,-2681.334243
118.168728,370.102971,14285.974681,-8963.317327
118.169037,-0.000000,13841.851115,-12640.575717
118.169347,-2886.803174,13027.624579,-8044.002729
118.169656,-3182.885551,13619.789333,-306.438199
118.169965,-1554.432478,11177.109724,-306.438199
118.170275,2516.700203,9030.512492,2451.505594
118.170584,2812.782580,6957.935855,1991.848295
118.170894,-592.164754,2812.782580,5745.716235
118.171203,-3034.844362,7846.182985,7507.735880
118.171513,-592.164754,6365.771101,-842.705048
118.171822,2294.638420,11177.109724,-9882.631924
118.172132,-3034.844362,11547.212695,-10265.679673
118.172441,-2368.659014,10362.883188,-3294.210641
118.172751,-2590.720797,9104.533087,-1072.533697
118.173060,-74.020594,9326.594869,-1532.190996
118.173370,1332.370696,9400.615463,1149.143247
118.173679,1554.432478,5773.606348,1149.143247
118.173988,2960.823768,7105.977043,7201.297681
118.174298,-3552.988522,8438.347739,6741.640382
118.174607,-3404.947333,10732.986159,0.000000
118.174917,2516.700203,15026.180623,-9039.926876
118.175226,2590.720797,10140.821405,-13942.938064
118.175536,-148.041188,8142.265362,-3140.991542
118.175845,-4145.153275,11251.130318,3217.601092
118.176155,1776.494261,9696.697840,-459.657299
118.176464,4293.194464,12361.439231,0.000000
118.176774,2072.576638,8068.244768,3830.477490
118.177083,-1628.453072,6291.750507,7201.297681
118.177393,1332.370696,9104.533087,4366.744339
118.177702,-0.000000,11029.068536,-5286.058936
118.178011,-222.061783,13693.809927,-11031.775171
118.178321,-2294.638420,11399.171507,-8963.317327
118.178630,-1480.411884,9992.780217,-2911.162892
118.178940,-1036.288319,7550.100608,-2221.676944
118.179249,-1110.308913,7920.203579,-1762.019645
118.179559,1258.350101,8882.471304,3447.429741
118.179868,2294.638420,5551.544565,4903.011187
118.180178,2294.638420,7105.977043,3677.258390
118.180487,-2664.741391,6587.832884,5362.668486
118.180797,-1850.514855,11843.295072,-995.924147
118.181106,1480.411884,10510.924376,-9269.755526
118.181416,-2072.576638,10807.006753,-12563.966167
118.181725,-1998.556043,12435.459826,-7048.078582
118.182035,-1110.308913,10066.800811,-4673.182538
118.182344,-74.020594,10881.027347,-2834.553343
118.182653,1036.288319,10955.047942,4673.182538
118.182963,3478.967927,6661.853478,5898.935335
118.183272,666.185348,6217.729913,6205.373534
118.183582,-1628.453072,7550.100608,5056.230287
118.183891,2368.659014,8142.265362,-3064.381992
118.184201,3034.844362,11029.068536,-11721.261119
118.184510,-1554.432478,12065.356855,-8503.660028
118.184820,-4811.338623,11695.253884,0.000000
118.185129,-1036.288319,12805.562797,-2528.115143
118.185439,-1776.494261,9104.533087,-2604.724693
118.185748,3108.864956,12731.542202,-1685.410096
118.186058,444.123565,5921.647536,1149.143247
118.186367,-1332.370696,6661.853478,5439.278036
118.186676,-592.164754,7402.059420,4979.620737
118.186986,-0.000000,8438.347739,-1532.190996
118.187295,2590.720797,11991.336260,-7431.126331
118.187605,-0.000000,8438.347739,-6281.983084
118.187914,-3034.844362,11621.233289,-3524.039291
118.188224,-888.247130,9696.697840,-3524.039291
118.188533,-0.000000,8142.265362,-2298.286494
118.188843,1332.370696,9178.553681,-689.485948
118.189152,2590.720797,5995.668130,919.314598
118.189462,888.247130,6291.750507,4979.620737
118.189771,-2146.597232,8882.471304,4903.011187
118.190081,-74.020594,12435.459826,-2681.334243
118.190390,-148.041188,11621.233289,-7124.688131
118.190699,1702.473667,11473.192101,-8273.831378
118.191009,-444.123565,11843.295072,-4903.011187
118.191318,-814.226536,8660.409521,-1532.190996
118.191628,-74.020594,11695.253884,2374.896044
118.191937,1554.432478,9326.594869,2987.772442
118.192247,2220.617826,4885.359217,3370.820191
118.192556,-2072.576638,8808.450710,4366.744339
118.192866,-962.267725,9252.574275,842.705048
118.193175,-1480.411884,12287.418637,-7507.735880
118.193485,-0.000000,12509.480420,-9499.584175
118.193794,740.205942,12435.459826,-10572.117872
118.194104,-2886.803174,11473.192101,-6205.373534
118.194413,-2960.823768,8734.430116,3677.258390
118.194722,296.082377,7476.080014,4673.182538
118.195032,3330.926739,5995.668130,1072.533697
118.195341,1850.514855,4959.379811,4979.620737
118.195651,-2220.617826,4737.318029,7890.783629
118.195960,1184.329507,9252.574275,-2451.505594
118.196270,962.267725,12213.398043,-10112.460574
118.196579,-0.000000,14063.912898,-8963.317327
118.196889,-2960.823768,11695.253884,-8733.488677
118.197198,-1776.494261,11399.171507,-4749.792088
118.197508,-148.041188,7402.059420,-2528.115143
118.197817,-1110.308913,9252.574275,3064.381992
118.198127,1036.288319,8364.327145,4596.572988
118.198436,4219.173869,5255.462188,2145.067394
118.198746,-444.123565,9030.512492,3140.991542
118.199055,-1036.288319,9474.636058,766.095498
118.199364,592.164754,12805.562797,-6435.202183
118.199674,1924.535449,13545.768739,-7967.393179
118.199983,-2516.700203,11325.150913,-4826.401637
118.200293,-1776.494261,10066.800811,-306.438199
118.200602,1110.308913,8142.265362,-842.705048
118.200912,-1036.288319,9770.718434,1149.143247
118.201221,740.205942,4959.379811,2298.286494
118.201531,2590.720797,6291.750507,383.047749
118.201840,-296.082377,8142.265362,0.000000
118.202150,-1702.473667,10362.883188,306.438199
118.202459,-2738.761985,12287.418637,-5286.058936
118.202769,2886.803174,11325.150913,-10035.851024
118.203078,962.267725,10732.986159,-9116.536426
118.203387,-1258.350101,8438.347739,229.828649
118.203697,-2368.659014,6809.894666,4136.915689
118.204006,-888.247130,6217.729913,1378.971896
118.204316,4219.173869,5921.647536,229.828649
118.204625,666.185348,5255.462188,2145.067394
118.204935,-2368.659014,8808.450710,3677.258390
118.205244,-592.164754,10362.883188,-2145.067394
118.205554,1184.329507,13693.809927,-6435.202183
118.205863,-740.205942,14804.118840,-8886.707777
118.206173,592.164754,10510.924376,-5362.668486
118.206482,-1036.288319,9400.615463,-842.705048
118.206792,444.123565,9548.656652,1072.533697
118.207101,1332.370696,7179.997637,4366.744339
118.207410,3256.906145,7328.038826,3753.867940
118.207720,-0.000000,6883.915261,4443.353888
118.208029,-1480.411884,8734.430116,3447.429741
118.208339,-2590.720797,9918.759623,-4290.134789
118.208648,-2294.638420,15544.324782,-8810.098227
118.208958,-0.000000,13471.748144,-11338.213370
118.209267,518.144159,10584.944971,-9116.536426
118.209577,-0.000000,9844.739029,-2068.457845
118.209886,-1258.350101,7698.141797,5132.839837
118.210196,-0.000000,8438.347739,8503.660028
118.210505,3552.988522,4589.276840,4903.011187
118.210815,2960.823768,3849.070898,2987.772442
118.211124,-2220.617826,7105.977043,-459.657299
118.211433,-2590.720797,7476.080014,-1072.533697
118.211743,-1110.308913,15174.221811,-8733.488677
118.212052,444.123565,16284.530724,-13866.328514
118.212362,666.185348,11399.171507,-10035.851024
118.212671,-2072.576638,12287.418637,-1072.533697
118.212981,1406.391290,8068.244768,1302.362347
118.213290,1628.453072,6143.709319,4290.134789
118.213600,3034.844362,8882.471304,7201.297681
118.213909,1258.350101,4515.256246,8963.317327
118.214219,296.082377,4737.318029,6358.592633
118.214528,222.061783,11251.130318,-3370.820191
118.214838,-296.082377,14730.098246,-10342.289223
118.215147,2516.700203,13767.830521,-11031.775171
118.215457,-2738.761985,15396.283594,-3600.648841
118.215766,-1036.288319,14063.912898,766.095498
118.216076,-2590.720797,6587.832884,2987.772442
118.216385,-370.102971,9918.759623,3294.210641
118.216695,2812.782580,3330.926739,3140.991542
118.217004,1924.535449,3627.009116,2451.505594
118.217314,-2664.741391,4589.276840,2987.772442
118.217623,-2072.576638,9770.718434,0.000000
118.217933,-1332.370696,13693.809927,-6588.421283
118.218242,2294.638420,14211.954086,-13713.109414
118.218552,2146.597232,12287.418637,-7507.735880
118.218861,-2368.659014,10288.862594,612.876398
118.219171,-370.102971,7031.956449,2987.772442
118.219480,296.082377,5847.626942,4749.792088
118.219790,3923.091493,8068.244768,4979.620737
118.220099,2738.761985,6143.709319,3370.820191
118.220409,-3997.112087,8068.244768,1149.143247
118.220718,518.144159,12435.459826,-2681.334243
118.221028,-1702.473667,16654.633695,-12947.013916
118.221337,2368.659014,15396.283594,-14709.033562
118.221647,222.061783,11325.150913,-4903.011187
118.221956,-1480.411884,10510.924376,2451.505594
118.222266,-0.000000,8142.265362,4366.744339
118.222575,5107.421000,6957.935855,5515.887586
118.222885,3552.988522,3034.844362,7890.783629
118.223194,296.082377,5699.585753,8503.660028
118.223504,-2664.741391,7105.977043,3600.648841
118.223813,-2664.741391,12731.542202,-7507.735880
118.224123,-0.000000,15618.345376,-13253.452115
118.224432,2368.659014,14804.118840,-16471.053207
118.224742,-3552.988522,10955.047942,-8963.317327
118.225051,-814.226536,10807.006753,1762.019645
118.225361,-148.041188,5625.565159,4213.525239
118.225670,1184.329507,4219.173869,9193.145976
118.225980,3108.864956,2220.617826,10955.165621
118.226289,296.082377,1480.411884,6894.859482
118.226599,-0.000000,5699.585753,383.047749
118.226908,-1184.329507,11325.150913,-5362.668486
118.227218,-2516.700203,15026.180623,-13330.061665
118.227527,-1184.329507,15322.262999,-12410.747068
118.227837,-0.000000,11325.150913,-6281.983084
118.228146,-2072.576638,11177.109724,-3140.991542
118.228456,3404.947333,8882.471304,1225.752797
118.228765,370.102971,6809.894666,9346.365076
118.229075,4293.194464,6217.729913,8503.660028
118.229384,1776.494261,6735.874072,4519.963438
118.229694,-1554.432478,8512.368333,3600.648841
118.230003,666.185348,12139.377449,-1991.848295
118.230313,592.164754,15174.221811,-11338.213370
118.230622,666.185348,13989.892304,-14479.204912
118.230932,-3627.009116,11251.130318,-5209.449386
118.231241,-1184.329507,15248.242405,-1149.143247
118.231551,592.164754,8068.244768,-919.314598
118.231860,-1998.556043,7624.121203,5975.544884
118.232170,3478.967927,4071.132681,8427.050478
118.232479,148.041188,3330.926739,9346.365076
118.232789,518.144159,5033.400406,3753.867940
118.233098,-2960.823768,10955.047942,-1302.362347
118.233408,-888.247130,10140.821405,-9576.193725
118.233717,-518.144159,13175.665768,-12334.137518
118.234027,-296.082377,11251.130318,-12410.747068
118.234336,740.205942,9844.739029,-4366.744339
118.234646,-148.041188,9770.718434,2221.676944
118.234955,888.247130,10140.821405,7814.174080
118.235265,3775.050304,4737.318029,8273.831378
118.235574,2664.741391,5477.523971,4749.792088
118.235884,-3108.864956,8586.388927,2757.943793
118.236193,-518.144159,10658.965565,-5362.668486
118.236503,1776.494261,11621.233289,-13330.061665
118.236812,-1110.308913,15396.283594,-13176.842566
118.237122,-592.164754,14508.036463,-6205.373534
118.237431,296.082377,11843.295072,1225.752797
118.237741,2368.659014,8808.450710,3830.477490
118.238050,1332.370696,7846.182985,9959.241474
118.238360,2886.803174,7994.224174,11261.603821
118.238669,-518.144159,2886.803174,6205.373534
118.238979,-2738.761985,8808.450710,995.924147
118.239288,-1110.308913,13841.851115,-8427.050478
118.239598,-74.020594,14804.118840,-17007.320056
118.239907,1776.494261,15470.304188,-16088.005458
118.240217,-2368.659014,10807.006753,-6665.030833
118.240526,-1258.350101,10510.924376,1072.533697
118.240836,-2442.679609,7624.121203,6818.249932
118.241145,1184.329507,6291.750507,8580.269578
118.241455,7328.038826,2368.659014,5822.325785
118.241764,-962.267725,3108.864956,4979.620737
118.242074,-2368.659014,6513.812290,4903.011187
118.242383,444.123565,13027.624579,-5745.716235
118.242693,-1184.329507,13471.748144,-14862.252661
118.243002,-962.267725,16210.510130,-12334.137518
118.243312,-2146.597232,10881.027347,-8886.707777
118.243621,1406.391290,10955.047942,-5515.887586
118.243931,518.144159,10214.842000,7354.516781
118.244240,1036.288319,9844.739029,8886.707777
118.244550,7402.059420,4737.318029,6894.859482
118.244859,-1702.473667,2368.659014,9346.365076
118.245169,-740.205942,8438.347739,6128.763984
118.245478,2220.617826,12583.501014,-11108.384721
118.245788,-2220.617826,13323.706956,-14402.595362
118.246097,296.082377,16062.468941,-9806.022374
118.246407,-1924.535449,12583.501014,-8120.612279
118.246716,148.041188,11991.336260,-6358.592633
118.247026,-3108.864956,11103.089130,3907.087040
118.247335,-740.205942,7402.059420,9039.926876
118.247645,6587.832884,4515.256246,3753.867940
118.247954,-0.000000,5181.441594,2911.162892
118.248264,-6809.894666,6883.915261,3370.820191
118.248573,-1258.350101,8660.409521,-2757.943793
118.248883,-0.000000,11917.315666,-12793.794817
118.249192,-222.061783,10955.047942,-11414.822920
118.249502,-1480.411884,7846.182985,-4136.915689
118.249811,-1924.535449,7476.080014,-2604.724693
118.250121,-666.185348,9104.533087,1532.190996
118.250430,2146.597232,8734.430116,4673.182538
118.250740,3404.947333,6439.791695,4060.306139
118.251049,-592.164754,6957.935855,919.314598
118.251359,-1184.329507,7402.059420,2068.457845
118.251668,-1628.453072,13619.789333,-6052.154434
118.251978,1702.473667,14804.118840,-11568.042020
118.252287,1628.453072,13915.871710,-9576.193725
118.252597,-2960.823768,10510.924376,-8197.221829
118.252906,-0.000000,10732.986159,-536.266849
118.253216,-1036.288319,9104.533087,4443.353888
118.253525,1998.556043,8586.388927,4366.744339
118.253835,4293.194464,5847.626942,4136.915689
118.254144,-222.061783,9622.677246,4826.401637
118.254454,-148.041188,9770.718434,2451.505594
118.254763,-4811.338623,11251.130318,-5209.449386
118.255073,518.144159,10955.047942,-10955.165621
118.255382,1184.329507,6143.709319,-6435.202183
118.255692,-1850.514855,9992.780217,-6665.030833
118.256001,-2886.803174,7476.080014,1378.971896
118.256311,-2294.638420,9178.553681,4060.306139
118.256620,5625.565159,8956.491898,2374.896044
118.256930,3034.844362,4811.338623,4443.353888
118.257239,-2294.638420,4959.379811,7277.907231
118.257549,-2812.782580,7402.059420,4979.620737
118.257858,-1998.556043,13249.686362,-6665.030833
118.258168,3701.029710,10066.800811,-13330.061665
118.258477,-1110.308913,11695.253884,-9039.926876
118.258787,-1998.556043,10955.047942,-6511.811733
118.259096,814.226536,8808.450710,-4290.134789
118.259406,-296.082377,12139.377449,1302.362347
118.259715,2664.741391,13471.748144,4290.134789
118.260025,5773.606348,8290.306550,4213.525239
118.260334,1998.556043,3627.009116,6052.154434
118.260644,-1554.432478,9474.636058,4673.182538
118.260953,740.205942,10807.006753,-4519.963438
118.261263,148.041188,9770.718434,-10725.336972
118.261572,-962.267725,8290.306550,-6818.249932
118.261882,-3775.050304,10510.924376,-4749.792088
118.262191,-1036.288319,12361.439231,-3447.429741
118.262501,-2664.741391,12583.501014,3600.648841
118.262810,2738.761985,10362.883188,2834.553343
118.263120,962.267725,7105.977043,2221.676944
118.263429,-222.061783,4219.173869,3064.381992
118.263739,-1110.308913,7994.224174,4366.744339
118.264048,-1776.494261,13027.624579,-3064.381992
118.264358,1332.370696,10881.027347,-8810.098227
118.264667,1184.329507,9770.718434,-7354.516781
118.264977,-666.185348,9400.615463,-5362.668486
118.265286,-2368.659014,10510.924376,842.705048
118.265596,1702.473667,9252.574275,1302.362347
118.265905,4145.153275,6883.915261,229.828649
118.266215,1258.350101,6439.791695,3370.820191
118.266524,-3627.009116,4663.297435,7431.126331
118.266834,-296.082377,10066.800811,1455.581446
118.267143,148.041188,11843.295072,-8886.707777
118.267453,1036.288319,16432.571912,-9652.803275
118.267762,296.082377,13175.665768,-7124.688131
118.268072,-592.164754,11843.295072,-7354.516781
118.268381,370.102971,13175.665768,-1225.752797
118.268691,-1258.350101,10732.986159,3217.601092
118.269000,4737.318029,6957.935855,4596.572988
118.269310,1406.391290,4737.318029,4826.401637
118.269619,-2738.761985,6439.791695,4519.963438
118.269929,222.061783,10955.047942,1608.800546
118.270238,-1258.350101,11695.253884,-9193.145976
118.270548,1850.514855,13989.892304,-11644.651570
118.270857,-2442.679609,13101.645173,-6818.249932
118.271167,-74.020594,7994.224174,-5515.887586
118.271476,814.226536,9474.636058,-919.314598
118.271786,-3256.906145,9548.656652,5439.278036
118.272095,2516.700203,6587.832884,4060.306139
118.272405,3330.926739,2960.823768,2528.115143
118.272714,-888.247130,4367.215058,3217.601092
118.273024,-2886.803174,10584.944971,1608.800546
118.273333,-1924.535449,12435.459826,-5822.325785
118.273643,1998.556043,14137.933492,-12104.308868
118.273952,3404.947333,8808.450710,-7814.174080
118.274262,-4219.173869,6587.832884,-1302.362347
118.274571,-888.247130,9696.697840,2604.724693
118.274881,-1184.329507,7698.141797,2987.772442
118.275190,4737.318029,8660.409521,2068.457845
118.275500,2072.576638,2812.782580,4366.744339
118.275809,-2738.761985,10658.965565,3600.648841
118.276119,-296.082377,16062.468941,-1072.533697
118.276428,-0.000000,13323.706956,-7507.735880
118.276738,2886.803174,16432.571912,-8044.002729
118.277047,-962.267725,11103.089130,-6971.469032
118.277357,-1480.411884,8882.471304,-3753.867940
118.277666,-3330.926739,7994.224174,2604.724693
118.277976,-1628.453072,8438.347739,4060.306139
118.278285,1776.494261,9104.533087,-612.876398
118.278595,3701.029710,5699.585753,1762.019645
118.278904,-1110.308913,5625.565159,4749.792088
118.279214,-3775.050304,11029.068536,1838.629195
118.279523,-3478.967927,12361.439231,-6358.592633
118.279833,2590.720797,7772.162391,-11644.651570
118.280142,518.144159,9104.533087,-9652.803275
118.280452,-2738.761985,7254.018232,-3600.648841
118.280761,-1110.308913,6883.915261,3524.039291
118.281071,-592.164754,9474.636058,4749.792088
118.281380,5847.626942,8068.244768,2604.724693
118.281690,1184.329507,4441.235652,1149.143247
118.281999,-0.000000,8290.306550,2604.724693
118.282309,-3256.906145,13027.624579,1608.800546
118.282618,-0.000000,12731.542202,-6205.373534
118.282928,4515.256246,14878.139434,-12410.747068
118.283237,-888.247130,11325.150913,-9729.412825
118.283547,-2960.823768,10288.862594,-995.924147
118.283856,-222.061783,9178.553681,3524.039291
118.284166,-1036.288319,10066.800811,3830.477490
118.284475,5625.565159,9178.553681,5209.449386
118.284785,666.185348,4737.318029,2834.553343
118.285094,-0.000000,5329.482782,919.314598
118.285404,-3997.112087,9622.677246,-3524.039291
118.285713,-1850.514855,13027.624579,-8656.879127
118.286023,2960.823768,11325.150913,-14402.595362
118.286332,222.061783,10140.821405,-7967.393179
118.286642,-2738.761985,7624.121203,2145.067394
118.286951,-592.164754,8660.409521,5745.716235
118.287261,-0.000000,9548.656652,3447.429741
118.287570,4737.318029,6661.853478,1608.800546
118.287880,-444.123565,2590.720797,2987.772442
118.288189,-1406.391290,5625.565159,-612.876398
118.288499,-5773.606348,13175.665768,-2604.724693
118.288808,1554.432478,12731.542202,-9806.022374
118.289118,4293.194464,13619.789333,-13866.328514
118.289427,-2368.659014,9548.656652,-6511.811733
118.289737,888.247130,10510.924376,1762.019645
118.290046,-2072.576638,9326.594869,4366.744339
118.290356,-444.123565,7550.100608,6052.154434
118.290665,7624.121203,4737.318029,5822.325785
118.290975,74.020594,3182.885551,2528.115143
118.291284,-2294.638420,10214.842000,2298.286494
118.291594,-3775.050304,15544.324782,0.000000
118.291903,-666.185348,19393.395680,-12563.966167
118.292213,5255.462188,16802.674883,-15628.348159
118.292522,-148.041188,10510.924376,-5439.278036
118.292832,-3256.906145,11103.089130,2374.896044
118.293141,-1036.288319,9178.553681,6128.763984
118.293451,740.205942,4737.318029,4903.011187
118.293760,6143.709319,1184.329507,4903.011187
118.294070,-1184.329507,962.267725,4366.744339
118.294379,-5625.565159,4219.173869,5745.716235
118.294689,-4515.256246,13915.871710,1532.190996
118.294998,2516.700203,14285.974681,-14402.595362
118.295308,4737.318029,13619.789333,-19305.606550
118.295617,-2812.782580,9474.636058,-5056.230287
118.295927,-4811.338623,8586.388927,3447.429741
118.296236,-888.247130,10732.986159,3907.087040
118.296546,1406.391290,7105.977043,4749.792088
118.296855,7254.018232,5107.421000,5286.058936
118.297165,-222.061783,4589.276840,2834.553343
118.297474,-2146.597232,10658.965565,1685.410096
118.297784,-2368.659014,14434.015869,-3524.039291
118.298093,2146.597232,15840.407159,-17160.539155
118.298403,4441.235652,13545.768739,-13789.718964
118.298712,-2368.659014,7624.121203,-3140.991542
118.299022,-1332.370696,6809.894666,6205.373534
118.299331,-2220.617826,8216.285956,8044.002729
118.299641,5847.626942,8068.244768,5209.449386
118.299950,6365.771101,6439.791695,4519.963438
118.300260,-3034.844362,6217.729913,-1455.581446
118.300569,-3256.906145,11843.295072,-689.485948
118.300879,-4515.256246,17394.839637,-6511.811733
118.301188,2072.576638,17764.942608,-18462.901502
118.301498,1628.453072,13767.830521,-13559.890315
118.301807,-2368.659014,6957.935855,-383.047749
118.302117,-2368.659014,6069.688724,7201.297681
118.302426,-888.247130,8142.265362,9116.536426
118.302736,1998.556043,2590.720797,6894.859482
118.303045,6439.791695,666.185348,4749.792088
118.303355,-0.000000,2072.576638,919.314598
118.303664,-5699.585753,10436.903782,1072.533697
118.303974,-6217.729913,17987.004391,-6971.469032
118.304283,3552.988522,14656.077652,-17926.634653
118.304593,3997.112087,13027.624579,-16394.443657
118.304902,-3775.050304,10510.924376,-3217.601092
118.305212,-2664.741391,11621.233289,4213.525239
118.305521,-814.226536,11399.171507,4979.620737
118.305831,5551.544565,7476.080014,5592.497135
118.306140,7994.224174,2220.617826,5132.839837
118.306450,-4515.256246,3552.988522,6818.249932
118.306759,-1628.453072,7846.182985,6205.373534
118.307069,-3849.070898,12287.418637,-6281.983084
118.307378,-0.000000,15544.324782,-16088.005458
118.307688,3923.091493,14582.057057,-13559.890315
118.307997,-2960.823768,9474.636058,-7660.954980
118.308306,-666.185348,12065.356855,-2834.553343
118.308616,-1702.473667,9178.553681,5822.325785
118.308925,4071.132681,5181.441594,7354.516781
118.309235,5255.462188,2960.823768,6358.592633
118.309544,-4293.194464,-0.000000,7967.393179
118.309854,-3923.091493,9326.594869,6894.859482
118.310163,-2442.679609,12731.542202,-7201.297681
118.310473,2442.679609,13027.624579,-17313.758255
118.310782,1702.473667,13767.830521,-12334.137518
118.311092,-2442.679609,11769.274478,-8044.002729
118.311401,-518.144159,12731.542202,-306.438199
118.311711,-2960.823768,10066.800811,6894.859482
118.312020,2960.823768,6217.729913,7201.297681
118.312330,6217.729913,2886.803174,3064.381992
118.312639,-1406.391290,2072.576638,3447.429741
118.312949,-4071.132681,10066.800811,6511.811733
118.313259,-1554.432478,12287.418637,-6128.763984
118.313568,5995.668130,12583.501014,-18233.072852
118.313878,-592.164754,14878.139434,-11184.994271
118.314187,-1258.350101,10510.924376,-2681.334243
118.314497,1406.391290,10288.862594,1762.019645
118.314806,-370.102971,12361.439231,6205.373534
118.315116,2368.659014,6957.935855,8197.221829
118.315425,7698.141797,5107.421000,2911.162892
118.315735,-3034.844362,3330.926739,3677.258390
118.316044,-3923.091493,11177.109724,2298.286494
118.316354,-2886.803174,12731.542202,-8503.660028
118.316663,2442.679609,12583.501014,-19918.482948
118.316973,-740.205942,11695.253884,-12563.966167
118.317282,-2590.720797,12361.439231,-3753.867940
118.317592,1332.370696,12435.459826,2987.772442
118.317901,-518.144159,9400.615463,8810.098227
118.318211,6143.709319,5551.544565,5515.887586
118.318520,4219.173869,-1776.494261,4749.792088
118.318830,-1110.308913,-1036.288319,4673.182538
118.319139,-5033.400406,10066.800811,4366.744339
118.319449,-3923.091493,13767.830521,-9346.365076
118.319758,2590.720797,15322.262999,-19382.216099
118.320068,1406.391290,16876.695478,-14402.595362
118.320377,-1628.453072,12731.542202,-6741.640382
118.320687,148.041188,11473.192101,1378.971896
118.320996,-1406.391290,8290.306550,8656.879127
118.321306,6661.853478,3849.070898,7660.954980
118.321615,6439.791695,1036.288319,8580.269578
118.321925,-2812.782580,4737.318029,9193.145976
118.322234,-1776.494261,13027.624579,5515.887586
118.322544,-2368.659014,13545.768739,-11031.775171
118.322853,3404.947333,15840.407159,-18616.120601
118.323163,-1554.432478,13249.686362,-11108.384721
118.323472,-2960.823768,9696.697840,-8044.002729
118.323782,-3182.885551,12509.480420,-842.705048
118.324091,-2590.720797,9030.512492,7354.516781
118.324401,4293.194464,3923.091493,6894.859482
118.324710,5625.565159,2886.803174,2374.896044
118.325020,-2664.741391,1406.391290,9422.974625
118.325329,-2812.782580,10807.006753,12793.794817
118.325639,-1036.288319,13471.748144,-6052.154434
118.325948,4959.379811,11843.295072,-18462.901502
118.326258,-1628.453072,9474.636058,-11951.089769
118.326567,-3775.050304,7402.059420,-4290.134789
118.326877,-518.144159,9178.553681,1838.629195
118.327186,-2072.576638,12435.459826,4673.182538
118.327496,6143.709319,7254.018232,3830.477490
118.327805,3997.112087,4219.173869,1991.848295
118.328115,-444.123565,3552.988522,2757.943793
118.328424,-3627.009116,10955.047942,6511.811733
118.328734,-2146.597232,12805.562797,-8350.440928
118.329043,6661.853478,12583.501014,-15475.129060
118.329353,814.226536,11917.315666,-7737.564530
118.329662,-592.164754,9400.615463,-2298.286494
118.329972,-444.123565,11399.171507,2221.676944
118.330281,-222.061783,11251.130318,5056.230287
118.330591,5773.606348,9400.615463,4979.620737
118.330900,2886.803174,5625.565159,2987.772442
118.331210,-3552.988522,4959.379811,4749.792088
118.331519,-3775.050304,12361.439231,2145.067394
118.331829,-1850.514855,11621.233289,-11951.089769
118.332138,3923.091493,10288.862594,-15015.471761
118.332448,-1850.514855,9474.636058,-5822.325785
118.332757,-4515.256246,6809.894666,-919.314598
118.333067,296.082377,10362.883188,5209.449386
118.333376,-740.205942,8660.409521,6358.592633
118.333686,6217.729913,5551.544565,4903.011187
118.333995,5107.421000,-296.082377,3217.601092
118.334305,-6143.709319,3552.988522,5362.668486
118.334614,-3552.988522,13175.665768,5132.839837
118.334924,-2442.679609,13989.892304,-11797.870669
118.335233,5033.400406,13841.851115,-21833.721693
118.335543,-1924.535449,10288.862594,-9269.755526
118.335852,-5181.441594,10140.821405,-1991.848295
118.336162,740.205942,13101.645173,1072.533697
118.336471,592.164754,8512.368333,1685.410096
118.336781,7105.977043,6439.791695,2604.724693
118.337090,666.185348,2368.659014,6741.640382
118.337400,-74.020594,4293.194464,8886.707777
118.337709,-2294.638420,13693.809927,4060.306139
118.338019,1776.494261,12953.603985,-8656.879127
118.338328,4959.379811,13471.748144,-12947.013916
118.338638,-4737.318029,9104.533087,-7967.393179
118.338947,-4145.153275,9622.677246,-2604.724693
118.339257,-2738.761985,13471.748144,-1378.971896
118.339567,1184.329507,10658.965565,-995.924147
118.339876,6439.791695,7550.100608,1762.019645
118.340186,-3330.926739,2516.700203,4213.525239
118.340495,-1332.370696,5773.606348,6665.030833
118.340805,-962.267725,11103.089130,2298.286494
118.341114,1110.308913,8882.471304,-7660.954980
118.341424,2664.741391,10584.944971,-7354.516781
118.341733,1184.329507,4441.235652,-6971.469032
118.342043,-3627.009116,8364.327145,-3294.210641
118.342352,-1406.391290,9030.512492,5439.278036
118.342662,-2368.659014,7254.018232,1685.410096
118.342971,7179.997637,8364.327145,-2681.334243
118.343281,-0.000000,4885.359217,459.657299
118.343590,-3404.947333,9770.718434,7354.516781
118.343900,-2812.782580,12805.562797,2298.286494
118.344209,3034.844362,11991.336260,-12180.918418
118.344519,5847.626942,13027.624579,-12870.404366
118.344828,-5403.503377,9992.780217,-4519.963438
118.345138,814.226536,9696.697840,153.219100
118.345447,-1480.411884,11473.192101,3753.867940
118.345757,2294.638420,10288.862594,2681.334243
118.346066,5551.544565,5995.668130,5209.449386
118.346376,-3330.926739,4441.235652,5592.497135
118.346685,-1036.288319,5181.441594,5745.716235
118.346995,-1998.556043,13027.624579,-4826.401637
118.347304,888.247130,12065.356855,-13483.280765
118.347614,962.267725,10732.986159,-9882.631924
118.347923,-4071.132681,10510.924376,-4213.525239
118.348233,1406.391290,8142.265362,459.657299
118.348542,1036.288319,8586.388927,4443.353888
118.348852,-296.082377,7920.203579,5132.839837
118.349161,3849.070898,6735.874072,4519.963438
118.349471,1184.329507,4219.173869,995.924147
118.349780,-3256.906145,7698.141797,2451.505594
118.350090,-1480.411884,16580.613101,-383.047749
118.350399,962.267725,12287.418637,-11108.384721
118.350709,3478.967927,11917.315666,-11797.870669
118.351018,-888.247130,5773.606348,-7201.297681
118.351328,-3849.070898,5181.441594,1532.190996
118.351637,-1702.473667,11843.295072,5286.058936
118.351947,1776.494261,5329.482782,153.219100
118.352256,7920.203579,8438.347739,1838.629195
118.352566,-296.082377,7772.162391,5975.544884
118.352875,-2368.659014,10214.842000,4060.306139
118.353185,1332.370696,16284.530724,-1608.800546
118.353494,1184.329507,14730.098246,-12793.794817
118.353804,2664.741391,13915.871710,-7584.345430
118.354113,-4441.235652,11473.192101,-3370.820191
118.354423,-2146.597232,11399.171507,-689.485948
118.354732,-888.247130,10288.862594,1225.752797
118.355042,1258.350101,6217.729913,1838.629195
118.355351,4145.153275,3404.947333,7354.516781
118.355661,-2590.720797,3330.926739,4290.134789
118.355970,-3108.864956,9918.759623,4366.744339
118.356280,-4367.215058,14656.077652,-1225.752797
118.356589,3997.112087,13471.748144,-11491.432470
118.356899,4219.173869,9548.656652,-12104.308868
118.357208,-2812.782580,7994.224174,-6971.469032
118.357518,-2590.720797,7254.018232,1302.362347
118.357827,-1924.535449,9474.636058,4060.306139
118.358137,2516.700203,9104.533087,4366.744339
118.358446,5403.503377,6513.812290,2451.505594
118.358756,-666.185348,5181.441594,2528.115143
118.359065,-2960.823768,10881.027347,4749.792088
118.359375,-2960.823768,14063.912898,-3447.429741
118.359684,3849.070898,10510.924376,-14172.766713
118.359994,4367.215058,12139.377449,-12180.918418
118.360303,-4071.132681,10807.006753,-3677.258390
118.360613,-1110.308913,10732.986159,3064.381992
118.360922,370.102971,12139.377449,5439.278036
118.361232,3034.844362,7772.162391,4060.306139
118.361541,4959.379811,7105.977043,5515.887586
118.361851,-1332.370696,2664.741391,3524.039291
118.362160,-5255.462188,12139.377449,1302.362347
118.362470,-1924.535449,14804.118840,-6435.202183
118.362779,3552.988522,12065.356855,-14632.424012
118.363089,2442.679609,14508.036463,-11644.651570
118.363398,-1850.514855,6957.935855,-2604.724693
118.363708,-2294.638420,8734.430116,5439.278036
118.364017,-1702.473667,6217.729913,6894.859482
118.364327,4441.235652,4367.215058,2604.724693
118.364636,3923.091493,2368.659014,4136.915689
118.364946,-2590.720797,4515.256246,4903.011187
118.365255,-5625.565159,13841.851115,4443.353888
118.365565,-0.000000,17468.860231,-7048.078582
118.365875,3701.029710,14359.995275,-17083.929605
118.366184,2072.576638,14359.995275,-11797.870669
118.366494,-2368.659014,9030.512492,-4366.744339
118.366803,-4737.318029,14952.160028,-766.095498
118.367113,3552.988522,10140.821405,4673.182538
118.367422,3330.926739,1702.473667,5362.668486
118.367732,4737.318029,3256.906145,6971.469032
118.368041,-4293.194464,2368.659014,10725.336972
118.368351,-2812.782580,10732.986159,5745.716235
118.368660,-1480.411884,16580.613101,-8656.879127
118.368970,4663.297435,14656.077652,-20454.749797
118.369279,1036.288319,15692.365970,-14709.033562
118.369589,-3108.864956,8660.409521,-2681.334243
118.369898,-1776.494261,11029.068536,4290.134789
118.370208,1924.535449,9400.615463,7814.174080
118.370517,3256.906145,8068.244768,6511.811733
118.370827,2960.823768,962.267725,6894.859482
118.371136,-2368.659014,814.226536,5975.544884
118.371446,-4737.318029,9326.594869,1762.019645
118.371755,962.267725,13915.871710,-9116.536426
118.372065,2442.679609,12953.603985,-17390.367805
118.372374,-666.185348,14285.974681,-13636.499864
118.372684,-3627.009116,11621.233289,-2757.943793
118.372993,-3923.091493,8956.491898,4596.572988
118.373303,1110.308913,7698.141797,6281.983084
118.373612,7179.997637,5255.462188,2451.505594
118.373922,2442.679609,-518.144159,2757.943793
118.374231,-4885.359217,4145.153275,8427.050478
118.374541,-5403.503377,10584.944971,4443.353888
118.374850,1406.391290,17320.819043,-13253.452115
118.375160,6661.853478,15470.304188,-18769.339701
118.375469,-0.000000,12953.603985,-8044.002729
118.375779,-4959.379811,10955.047942,-1685.410096
118.376088,-370.102971,11769.274478,2604.724693
118.376398,3330.926739,9030.512492,3907.087040
118.376707,6439.791695,3775.050304,6205.373534
118.377017,814.226536,4515.256246,8273.831378
118.377326,-5181.441594,3552.988522,5439.278036
118.377636,-2960.823768,12805.562797,0.000000
118.377945,-0.000000,15100.201217,-13483.280765
118.378255,2664.741391,14656.077652,-16700.881856
118.378564,222.061783,12287.418637,-9959.241474
118.378874,-4515.256246,8068.244768,-536.266849
118.379183,370.102971,9400.615463,6971.469032
118.379493,370.102971,6513.812290,9806.022374
118.379802,2960.823768,5329.482782,8350.440928
118.380112,1628.453072,1036.288319,5515.887586
118.380421,-4219.173869,3775.050304,2834.553343
118.380731,-6957.935855,13915.871710,-459.657299
118.381040,1850.514855,16876.695478,-18845.949251
118.381350,4219.173869,15692.365970,-21910.331243
118.381659,-2442.679609,13397.727550,-10572.117872
118.381969,-5033.400406,11103.089130,1225.752797
118.382278,2146.597232,8216.285956,4213.525239
118.382588,4663.297435,5995.668130,5669.106685
118.382897,4885.359217,4219.173869,10648.727422
118.383207,1628.453072,1702.473667,11414.822920
118.383516,-1998.556043,4959.379811,6588.421283
118.383826,-4441.235652,14137.933492,-1455.581446
118.384135,1924.535449,18653.189738,-15551.738609
118.384445,962.267725,13397.727550,-19612.044749
118.384754,-2886.803174,17024.736666,-10955.165621
118.385064,-3627.009116,13249.686362,-7048.078582
118.385373,-0.000000,11177.109724,-2145.067394
118.385683,3108.864956,9844.739029,5822.325785
118.385992,1480.411884,2738.761985,11797.870669
118.386302,5033.400406,1332.370696,11261.603821
118.386611,-1776.494261,3627.009116,5209.449386
118.386921,-3182.885551,9918.759623,2757.943793
118.387230,2072.576638,10066.800811,-11874.480219
118.387540,-1110.308913,8808.450710,-17007.320056
118.387849,-1776.494261,13841.851115,-9806.022374
118.388159,-1628.453072,14656.077652,-2604.724693
118.388468,-0.000000,12509.480420,-229.828649
118.388778,296.082377,9918.759623,4136.915689
118.389087,2442.679609,5847.626942,6588.421283
118.389397,3478.967927,2294.638420,7354.516781
118.389706,-5625.565159,4885.359217,8503.660028
118.390016,-1628.453072,11695.253884,1991.848295
118.390325,3478.967927,14508.036463,-15092.081311
118.390635,2886.803174,12509.480420,-16700.881856
118.390944,-2738.761985,11843.295072,-7048.078582
118.391254,-962.267725,12805.562797,-1149.143247
118.391563,3256.906145,12509.480420,-459.657299
118.391873,1184.329507,8512.368333,4136.915689
118.392182,3108.864956,4293.194464,12027.699319
118.392492,1850.514855,5995.668130,6435.202183
118.392802,-4589.276840,4071.132681,3217.601092
118.393111,-1258.350101,12731.542202,-766.095498
118.393421,-370.102971,12879.583391,-15858.176809
118.393730,666.185348,14730.098246,-18616.120601
118.394040,-1110.308913,14952.160028,-9193.145976
118.394349,-740.205942,10658.965565,-3140.991542
118.394659,-222.061783,11325.150913,6205.373534
118.394968,1776.494261,7772.162391,10418.898773
118.395278,3849.070898,4145.153275,7814.174080
118.395587,3108.864956,1850.514855,5132.839837
118.395897,-6069.688724,3182.885551,8427.050478
118.396206,-4663.297435,12361.439231,689.485948
118.396516,2516.700203,12731.542202,-18616.120601
118.396825,-2368.659014,13175.665768,-18079.853753
118.397135,-2738.761985,13693.809927,-7967.393179
118.397444,-1998.556043,7994.224174,-4903.011187
118.397754,222.061783,8290.306550,1072.533697
118.398063,4737.318029,9030.512492,8733.488677
118.398373,4959.379811,4737.318029,10342.289223
118.398682,4589.276840,4219.173869,9652.803275
118.398992,-3997.112087,5403.503377,9499.584175
118.399301,-5477.523971,13397.727550,-689.485948
118.399611,2368.659014,14582.057057,-19228.997000
118.399920,-666.185348,11251.130318,-18539.511052
118.400230,-2368.659014,14878.139434,-11568.042020
118.400539,-2664.741391,12657.521608,-4060.306139
118.400849,-1776.494261,11177.109724,2374.896044
118.401158,3552.988522,9844.739029,4673.182538
118.401468,6365.771101,6809.894666,5515.887586
118.401777,1776.494261,1110.308913,9269.755526
118.402087,-5625.565159,3923.091493,11338.213370
118.402396,-740.205942,11177.109724,-2451.505594
118.402706,3330.926739,11251.130318,-15934.786358
118.403015,-1998.556043,11917.315666,-10725.336972
118.403325,-2220.617826,12879.583391,-6894.859482
118.403634,-2368.659014,7476.080014,-4903.011187
118.403944,-3034.844362,9104.533087,3217.601092
118.404253,2220.617826,5033.400406,2911.162892
118.404563,2812.782580,3627.009116,689.485948
118.404872,740.205942,3627.009116,7814.174080
118.405182,-5403.503377,6809.894666,12257.527968
118.405491,-222.061783,13249.686362,-1378.971896
118.405801,4737.318029,11251.130318,-14249.376263
118.406110,-2664.741391,9548.656652,-10418.898773
118.406420,-3849.070898,11917.315666,-5898.935335
118.406729,-5477.523971,9474.636058,-689.485948
118.407039,3034.844362,13471.748144,689.485948
118.407348,4367.215058,12805.562797,689.485948
118.407658,4737.318029,7772.162391,4519.963438
118.407967,-444.123565,5403.503377,9346.365076
118.408277,-4367.215058,8586.388927,9729.412825
118.408586,2368.659014,12879.583391,-5132.839837
118.408896,1480.411884,11325.150913,-18462.901502
118.409205,148.041188,10362.883188,-10725.336972
118.409515,-4589.276840,7920.203579,153.219100
118.409824,-2664.741391,9622.677246,-2604.724693
118.410134,-592.164754,13101.645173,3524.039291
118.410443,6291.750507,10288.862594,4596.572988
118.410753,4589.276840,5329.482782,4443.353888
118.411062,-740.205942,5181.441594,6894.859482
118.411372,-4441.235652,5329.482782,10572.117872
118.411681,518.144159,12213.398043,-5362.668486
118.411991,-0.000000,11251.130318,-15092.081311
118.412300,-1702.473667,10362.883188,-8963.317327
118.412610,-4367.215058,7624.121203,-7201.297681
118.412919,-5033.400406,12657.521608,-3753.867940
118.413229,2442.679609,12065.356855,-1225.752797
118.413538,4071.132681,5699.585753,-1532.190996
118.413848,518.144159,6291.750507,8350.440928
118.414157,-0.000000,4145.153275,12870.404366
118.414467,-2146.597232,7254.018232,9576.193725
118.414776,1998.556043,14434.015869,-3983.696590
118.415086,592.164754,9030.512492,-11261.603821
118.415395,-814.226536,11325.150913,-8580.269578
118.415705,-1702.473667,11103.089130,-9576.193725
118.416014,-2812.782580,13101.645173,-5975.544884
118.416324,296.082377,17912.983796,-2145.067394
118.416633,5847.626942,9622.677246,-2528.115143
118.416943,2368.659014,9770.718434,4903.011187
118.417252,1776.494261,3627.009116,10265.679673
118.417561,-3256.906145,6069.688724,8580.269578
118.417871,2442.679609,11917.315666,-1532.190996
118.418180,-740.205942,7772.162391,-4596.572988
118.418490,-962.267725,9844.739029,-6894.859482
118.418799,-1850.514855,10510.924376,-6588.421283
118.419109,-3256.906145,11177.109724,-3447.429741
118.419418,-666.185348,10140.821405,-153.219100
118.419728,4293.194464,5255.462188,-1455.581446
118.420037,592.164754,7920.203579,4136.915689
118.420347,-2220.617826,2886.803174,9959.241474
118.420656,-3256.906145,6957.935855,7354.516781
118.420965,4145.153275,11547.212695,-4903.011187
118.421275,1258.350101,10288.862594,-9959.241474
118.421584,-518.144159,10288.862594,-4903.011187
118.421894,-4071.132681,10436.903782,-5209.449386
118.422203,962.267725,13027.624579,-995.924147
118.422513,4219.173869,12731.542202,306.438199
118.422822,-0.000000,6143.709319,689.485948
118.423132,-148.041188,9918.759623,6281.983084
118.423441,-222.061783,7698.141797,3524.039291
118.423750,-2294.638420,9030.512492,3447.429741
118.424060,-444.123565,13397.727550,-5209.449386
118.424369,222.061783,11177.109724,-9882.631924
118.424679,2960.823768,14508.036463,-7660.954980
118.424988,-1184.329507,9474.636058,-4136.915689
118.425298,-2886.803174,10732.986159,2451.505594
118.425607,3775.050304,10066.800811,0.000000
118.425917,962.267725,3108.864956,842.705048
118.426226,592.164754,8586.388927,7354.516781
118.426536,1850.514855,5847.626942,3064.381992
118.426845,-2368.659014,9474.636058,689.485948
118.427154,-1184.329507,13767.830521,-2757.943793
118.427464,-1184.329507,9178.553681,-9576.193725
118.427773,2146.597232,10658.965565,-12027.699319
118.428083,-4589.276840,7994.224174,-689.485948
118.428392,-4441.235652,6809.894666,3370.820191
118.428702,2960.823768,6883.915261,-2374.896044
118.429011,2812.782580,2960.823768,1072.533697
118.429321,1702.473667,7698.141797,10265.679673
118.429630,-1924.535449,4293.194464,7048.078582
118.429940,-74.020594,12065.356855,3064.381992
118.430249,3108.864956,14582.057057,-5439.278036
118.430558,444.123565,12435.459826,-11414.822920
118.430868,-518.144159,16136.489536,-7354.516781
118.431177,-2960.823768,9252.574275,-6894.859482
118.431487,-1850.514855,12657.521608,-2451.505594
118.431796,3256.906145,12583.501014,-2757.943793
118.432106,1406.391290,9474.636058,1915.238745
118.432415,2960.823768,10510.924376,7737.564530
118.432725,518.144159,7179.997637,5439.278036
118.433034,-740.205942,10658.965565,2604.724693
118.433344,148.041188,11325.150913,-4213.525239
118.433653,2072.576638,6291.750507,-9499.584175
118.433962,740.205942,11843.295072,-10801.946522
118.434272,-1924.535449,7476.080014,-3753.867940
118.434581,-4589.276840,9474.636058,3830.477490
118.434891,1480.411884,5181.441594,2145.067394
118.435200,2146.597232,2886.803174,0.000000
118.435510,1036.288319,8216.285956,3294.210641
118.435819,-4071.132681,2220.617826,4673.182538
118.436129,-1776.494261,9326.594869,4060.306139
118.436438,2072.576638,12139.377449,-8503.660028
118.436747,592.164754,10658.965565,-11031.775171
118.437057,1332.370696,12287.418637,-6052.154434
118.437366,-5773.606348,7105.977043,-1532.190996
118.437676,1702.473667,14211.954086,1991.848295
118.437985,4071.132681,11177.109724,-1455.581446
118.438295,1702.473667,7624.121203,1685.410096
118.438604,3108.864956,9474.636058,9422.974625
118.438914,-2442.679609,7476.080014,4903.011187
118.439223,-0.000000,12139.377449,-1378.971896
118.439533,3108.864956,15470.304188,-9959.241474
118.439842,-2072.576638,12953.603985,-13100.233016
118.440151,2738.761985,13471.748144,-9039.926876
118.440461,-3256.906145,7994.224174,-2987.772442
118.440770,-1998.556043,11473.192101,1455.581446
118.441080,592.164754,9992.780217,4749.792088
118.441389,5847.626942,6513.812290,8273.831378
118.441699,3478.967927,6291.750507,5669.106685
118.442008,-3330.926739,2146.597232,3524.039291
118.442318,-3256.906145,10510.924376,3217.601092
118.442627,2146.597232,12953.603985,-10878.556072
118.442937,2072.576638,11251.130318,-17543.586904
118.443246,-740.205942,13471.748144,-9039.926876
118.443555,-6291.750507,5773.606348,919.314598
118.443865,1110.308913,10807.006753,10112.460574
118.444174,3923.091493,9474.636058,536.266849
118.444484,3478.967927,2516.700203,4290.134789
118.444793,1702.473667,3108.864956,9729.412825
118.445103,-5477.523971,2664.741391,9422.974625
118.445412,-962.267725,15322.262999,-1149.143247
118.445722,4145.153275,16728.654289,-15398.519510
118.446031,1184.329507,13989.892304,-14402.595362
118.446341,-1850.514855,16580.613101,-6665.030833
118.446650,-4589.276840,10584.944971,-2451.505594
118.446959,5551.544565,12435.459826,-1455.581446
118.447269,1924.535449,8882.471304,1532.190996
118.447578,2442.679609,5329.482782,8273.831378
118.447888,148.041188,5625.565159,7354.516781
118.448197,-1628.453072,3552.988522,3524.039291
118.448507,962.267725,14656.077652,-1838.629195
118.448816,-0.000000,12509.480420,-13636.499864
118.449126,1628.453072,10584.944971,-12104.308868
118.449435,-2368.659014,12731.542202,-4366.744339
118.449744,-1406.391290,6735.874072,-1149.143247
118.450054,-0.000000,9252.574275,3907.087040
118.450363,2590.720797,4293.194464,5439.278036
118.450673,148.041188,4071.132681,7124.688131
118.450982,-666.185348,2738.761985,7048.078582
118.451292,-7105.977043,3701.029710,5209.449386
118.451601,444.123565,16136.489536,-4060.306139
118.451911,1554.432478,16136.489536,-18692.730151
118.452220,-592.164754,14137.933492,-13483.280765
118.452530,-1110.308913,10658.965565,-2298.286494
118.452839,-1924.535449,8734.430116,0.000000
118.453148,4367.215058,12805.562797,3830.477490
118.453458,2960.823768,4441.235652,7354.516781
118.453767,1776.494261,1406.391290,11108.384721
118.454077,3923.091493,4737.318029,7660.954980
118.454386,-5847.626942,7624.121203,1685.410096
118.454696,296.082377,17838.963202,-7124.688131
118.455005,1184.329507,15840.407159,-19305.606550
118.455315,-1480.411884,16210.510130,-17390.367805
118.455624,-962.267725,14508.036463,-6281.983084
118.455934,-0.000000,9622.677246,-1378.971896
118.456243,1628.453072,13249.686362,3753.867940
118.456552,3627.009116,4071.132681,13866.328514
118.456862,2368.659014,740.205942,12257.527968
118.457171,1184.329507,3256.906145,6894.859482
118.457481,-3404.947333,4885.359217,2911.162892
118.457790,-3330.926739,10955.047942,-6128.763984
118.458100,-148.041188,9770.718434,-18845.949251
118.458409,370.102971,14359.995275,-15398.519510
118.458719,-962.267725,10288.862594,-7201.297681
118.459028,-4145.153275,6957.935855,76.609550
118.459338,2072.576638,11103.089130,5209.449386
118.459647,2368.659014,5107.421000,7201.297681
118.459956,3182.885551,1480.411884,10035.851024
118.460266,2146.597232,2442.679609,8810.098227
118.460575,-5403.503377,8734.430116,4596.572988
118.460885,-962.267725,16876.695478,-5515.887586
118.461194,1184.329507,12435.459826,-17543.586904
118.461504,-2220.617826,17468.860231,-12870.404366
118.461813,-1850.514855,15914.427753,-7584.345430
118.462123,-370.102971,9030.512492,-5669.106685
118.462432,592.164754,13397.727550,612.876398
118.462741,1406.391290,7031.956449,7507.735880
118.463051,3330.926739,5033.400406,9729.412825
118.463360,2220.617826,5181.441594,7048.078582
118.463670,-4219.173869,4737.318029,6894.859482
118.463979,2812.782580,15026.180623,-4290.134789
118.464289,296.082377,12805.562797,-17543.586904
118.464598,-1924.535449,13397.727550,-13176.842566
118.464908,-1998.556043,10955.047942,-7124.688131
118.465217,-1628.453072,9622.677246,-3217.601092
118.465527,222.061783,13397.727550,3753.867940
118.465836,2516.700203,4959.379811,11261.603821
118.466145,4737.318029,3034.844362,8656.879127
118.466455,-296.082377,1258.350101,7354.516781
118.466764,-9400.615463,6735.874072,8273.831378
118.467074,-0.000000,12953.603985,-7354.516781
118.467383,3330.926739,10510.924376,-21220.845295
118.467693,-518.144159,15544.324782,-13176.842566
118.468002,-5625.565159,14656.077652,-7048.078582
118.468312,1184.329507,7920.203579,-2987.772442
118.468621,3404.947333,14952.160028,2911.162892
118.468931,3478.967927,6661.853478,9193.145976
118.469240,5033.400406,7031.956449,10112.460574
118.469549,1184.329507,3997.112087,7048.078582
118.469859,-6439.791695,8586.388927,4979.620737
118.470168,2220.617826,14952.160028,-8886.707777
118.470478,-962.267725,12287.418637,-21527.283494
118.470787,-2442.679609,15100.201217,-14019.547613
118.471097,74.020594,15544.324782,-7737.564530
118.471406,1036.288319,11843.295072,-6128.763984
118.471716,666.185348,10807.006753,4903.011187
118.472025,1702.473667,6587.832884,14632.424012
118.472334,4959.379811,4811.338623,8427.050478
118.472644,592.164754,-518.144159,6281.983084
118.472953,-3404.947333,4811.338623,8273.831378
118.473263,-2664.741391,13323.706956,-6281.983084
118.473572,888.247130,11843.295072,-19228.997000
118.473882,-1776.494261,12139.377449,-11951.089769
118.474191,-1776.494261,9992.780217,-7124.688131
118.474501,-3034.844362,12509.480420,-2834.553343
118.474810,1702.473667,8808.450710,4213.525239
118.475120,4441.235652,2738.761985,6665.030833
118.475429,2886.803174,5477.523971,8733.488677
118.475738,-0.000000,2590.720797,11031.775171
118.476048,-8290.306550,7328.038826,9269.755526
118.476357,3552.988522,16358.551318,-9269.755526
118.476667,1776.494261,13693.809927,-20224.921147
118.476976,-2812.782580,16950.716072,-11261.603821
118.477286,-1702.473667,13841.851115,-7201.297681
118.477595,-814.226536,12139.377449,-4979.620737
118.477905,4737.318029,15248.242405,1072.533697
118.478214,2738.761985,6809.894666,7277.907231
118.478524,3404.947333,5995.668130,8656.879127
118.478833,-2220.617826,3923.091493,9576.193725
118.479142,-2516.700203,10658.965565,5592.497135
118.479452,3701.029710,13545.768739,-11108.384721
118.479761,222.061783,8142.265362,-13636.499864
118.480071,-3034.844362,15322.262999,-7048.078582
118.480380,-296.082377,9030.512492,-7737.564530
118.480690,-1036.288319,8142.265362,-3677.258390
118.480999,-1036.288319,7772.162391,3753.867940
118.481309,3627.009116,2516.700203,6128.763984
118.481618,4515.256246,5773.606348,4060.306139
118.481928,-2368.659014,2590.720797,8580.269578
118.482237,-6513.812290,6735.874072,9269.755526
118.482546,1110.308913,12805.562797,-8503.660028
118.482856,1628.453072,8808.450710,-16317.834107
118.483165,-1776.494261,12139.377449,-8350.440928
118.483475,-2960.823768,8956.491898,-5515.887586
118.483784,-3330.926739,8512.368333,-4673.182538
118.484094,3182.885551,11547.212695,0.000000
118.484403,4663.297435,7476.080014,2221.676944
118.484713,4367.215058,10362.883188,5975.544884
118.485022,-3108.864956,6661.853478,9269.755526
118.485331,-3627.009116,12879.583391,6665.030833
118.485641,2664.741391,14730.098246,-10572.117872
118.485950,-222.061783,12657.521608,-16317.834107
118.486260,-222.061783,14434.015869,-9499.584175
118.486569,-1406.391290,7772.162391,-8427.050478
118.486879,-962.267725,12213.398043,-3370.820191
118.487188,3108.864956,11251.130318,2068.457845
118.487498,3849.070898,7402.059420,5592.497135
118.487807,1554.432478,6883.915261,8197.221829
118.488117,-3849.070898,3108.864956,9499.584175
118.488426,-2294.638420,8586.388927,4443.353888
118.488735,-0.000000,9474.636058,-10342.289223
118.489045,-1850.514855,7698.141797,-12870.404366
118.489354,-4145.153275,10214.842000,-7584.345430
118.489664,-3108.864956,5995.668130,-6741.640382
118.489973,-1850.514855,9400.615463,-995.924147
118.490283,1628.453072,11917.315666,1915.238745
118.490592,2590.720797,4367.215058,3294.210641
118.490902,2442.679609,5181.441594,3907.087040
118.491211,-2738.761985,2664.741391,12027.699319
118.491521,296.082377,10362.883188,4903.011187
118.491830,4515.256246,11843.295072,-12947.013916
118.492139,-1776.494261,10436.903782,-11491.432470
118.492449,-4441.235652,16284.530724,-5286.058936
118.492758,-1184.329507,9030.512492,-7354.516781
118.493068,2590.720797,14285.974681,-7048.078582
118.493377,1406.391290,12287.418637,-1302.362347
118.493687,-1036.288319,9844.739029,5898.935335
118.493996,4663.297435,9252.574275,5592.497135
118.494306,-0.000000,6069.688724,7814.174080
118.494615,-666.185348,13841.851115,3753.867940
118.494925,666.185348,13915.871710,-7048.078582
118.495234,-4367.215058,11547.212695,-11951.089769
118.495543,-962.267725,13101.645173,-8273.831378
118.495853,-2368.659014,5699.585753,-7354.516781
118.496162,-814.226536,11621.233289,-1378.971896
118.496472,-1184.329507,8660.409521,2757.943793
118.496781,5699.585753,3330.926739,3064.381992
118.497091,2590.720797,3923.091493,6358.592633
118.497400,-4811.338623,2886.803174,10495.508323
118.497710,-1480.411884,10510.924376,4826.401637
118.498019,2368.659014,8512.368333,-11338.213370
118.498328,-0.000000,9992.780217,-9576.193725
118.498638,-3552.988522,12953.603985,-5669.106685
118.498947,-1036.288319,5699.585753,-5362.668486
118.499257,1184.329507,11843.295072,-2987.772442
118.499566,1406.391290,9696.697840,-1072.533697
118.499876,-74.020594,8290.306550,5056.230287
118.500185,2072.576638,8882.471304,7660.954980
118.500495,-2072.576638,7476.080014,4366.744339
118.500804,-1924.535449,14804.118840,-2451.505594
118.501114,962.267725,13693.809927,-9576.193725
118.501423,-666.185348,11769.274478,-12257.527968
118.501732,-814.226536,15174.221811,-9729.412825
118.502042,1036.288319,9844.739029,-5056.230287
118.502351,-1258.350101,13027.624579,-1302.362347
118.502661,1924.535449,9548.656652,2987.772442
118.502970,2664.741391,6587.832884,5362.668486
118.503280,888.247130,4811.338623,6588.421283
118.503589,-1110.308913,2146.597232,7890.783629
118.503899,-2368.659014,13249.686362,995.924147
118.504208,1480.411884,8660.409521,-10112.460574
118.504518,-592.164754,10510.924376,-10878.556072
118.504827,-740.205942,9548.656652,-5975.544884
118.505136,-3256.906145,6661.853478,689.485948
118.505446,-740.205942,8882.471304,383.047749
118.505755,888.247130,4959.379811,2298.286494
118.506065,1702.473667,3849.070898,7048.078582
118.506374,592.164754,5773.606348,6741.640382
118.506684,888.247130,8956.491898,5975.544884
118.506993,-148.041188,13249.686362,-229.828649
118.507303,-0.000000,13101.645173,-11491.432470
118.507612,-888.247130,15914.427753,-11414.822920
118.507922,-1554.432478,16654.633695,-7967.393179
118.508231,-0.000000,10955.047942,-3983.696590
118.508540,444.123565,11843.295072,-2221.676944
118.508850,2220.617826,7550.100608,766.095498
118.509159,-740.205942,8216.285956,6588.421283
118.509469,2886.803174,6809.894666,6052.154434
118.509778,222.061783,8290.306550,5669.106685
118.510088,-1924.535449,15766.386565,-459.657299
118.510397,1406.391290,13323.706956,-10801.946522
118.510707,592.164754,13175.665768,-12793.794817
118.511016,-2220.617826,9400.615463,-6435.202183
118.511325,-2960.823768,4885.359217,-612.876398
118.511635,-1776.494261,7105.977043,1685.410096
118.511944,4663.297435,3256.906145,2068.457845
118.512254,296.082377,3775.050304,4673.182538
118.512563,666.185348,3997.112087,8580.269578
118.512873,-3478.967927,3404.947333,7431.126331
118.513182,-1998.556043,9474.636058,-2068.457845
118.513492,1480.411884,11843.295072,-12487.356617
118.513801,-666.185348,13101.645173,-11951.089769
118.514111,-2368.659014,10881.027347,-8350.440928
118.514420,-444.123565,9548.656652,-2145.067394
118.514729,1924.535449,14508.036463,-919.314598
118.515039,3775.050304,6069.688724,2374.896044
118.515348,-0.000000,8808.450710,10495.508323
118.515658,1184.329507,8808.450710,9729.412825
118.515967,-3701.029710,6513.812290,3447.429741
118.516277,1406.391290,16210.510130,-4596.572988
118.516586,962.267725,14211.954086,-14249.376263
118.516896,-1332.370696,16358.551318,-16164.615008
118.517205,-0.000000,13175.665768,-7890.783629
118.517515,-370.102971,12213.398043,-766.095498
118.517824,-2072.576638,11991.336260,3524.039291
118.518133,6439.791695,4515.256246,6894.859482
118.518443,1406.391290,4737.318029,7660.954980
118.518752,1036.288319,370.102971,6971.469032
118.519062,-4663.297435,1554.432478,10418.898773
118.519371,-888.247130,11177.109724,-1608.800546
118.519681,-0.000000,10214.842000,-16700.881856
118.519990,-1036.288319,11399.171507,-14249.376263
118.520300,-1850.514855,10881.027347,-5132.839837
118.520609,-2738.761985,10881.027347,-536.266849
118.520919,-296.082377,13471.748144,-459.657299
118.521228,4367.215058,3552.988522,3830.477490
118.521537,814.226536,4219.173869,8656.879127
118.521847,1554.432478,2886.803174,9729.412825
118.522156,-4071.132681,8216.285956,7890.783629
118.522466,1480.411884,14878.139434,-3217.601092
118.522775,3404.947333,13249.686362,-15321.909960
118.523085,-2590.720797,16136.489536,-11491.432470
118.523394,-3849.070898,14952.160028,-7201.297681
118.523704,-0.000000,14434.015869,-4519.963438
118.524013,1924.535449,11843.295072,-2528.115143
118.524322,3701.029710,7846.182985,3294.210641
118.524632,1554.432478,6365.771101,7584.345430
118.524941,1036.288319,5477.523971,8197.221829
118.525251,-1258.350101,5921.647536,7277.907231
118.525560,222.061783,15026.180623,-4673.182538
118.525870,1924.535449,9844.739029,-15015.471761
118.526179,-296.082377,12139.377449,-10265.679673
118.526489,-1110.308913,9474.636058,-5286.058936
118.526798,-2368.659014,6735.874072,-1149.143247
118.527108,2368.659014,8364.327145,4443.353888
118.527417,3404.947333,2368.659014,4903.011187
118.527726,1850.514855,1184.329507,8580.269578
118.528036,-1036.288319,-1702.473667,11951.089769
118.528345,-6143.709319,8808.450710,7124.688131
118.528655,518.144159,13397.727550,-11491.432470
118.528964,1554.432478,12213.398043,-18386.291952
118.529274,-4959.379811,16062.468941,-11491.432470
118.529583,-1702.473667,15322.262999,-5515.887586
118.529893,2664.741391,14656.077652,-3753.867940
118.530202,666.185348,13545.768739,919.314598
118.530512,3182.885551,6365.771101,10495.508323
118.530821,3552.988522,6217.729913,8427.050478
118.531130,-0.000000,3997.112087,7431.126331
118.531440,-4145.153275,12731.542202,2834.553343
118.531749,-666.185348,14434.015869,-10801.946522
118.532059,-888.247130,10140.821405,-20684.578446
118.532368,-6217.729913,15248.242405,-13559.890315
118.532678,-0.000000,12731.542202,-5362.668486
118.532987,-296.082377,11843.295072,-2604.724693
118.533297,2664.741391,8808.450710,5132.839837
118.533606,3404.947333,1036.288319,12180.918418
118.533915,3182.885551,-1776.494261,9959.241474
118.534225,1332.370696,666.185348,10495.508323
118.534534,-6143.709319,6735.874072,10035.851024
118.534844,962.267725,12879.583391,-7660.954980
118.535153,2664.741391,9326.594869,-24591.665486
118.535463,-3182.885551,13767.830521,-11874.480219
118.535772,-4219.173869,13545.768739,-4136.915689
118.536082,-1406.391290,13249.686362,-6665.030833
118.536391,5477.523971,10807.006753,-1302.362347
118.536701,1850.514855,2368.659014,13100.233016
118.537010,1480.411884,2738.761985,13713.109414
118.537319,1110.308913,3775.050304,9346.365076
118.537629,-3923.091493,11029.068536,5056.230287
118.537938,2664.741391,15766.386565,-13253.452115
118.538248,1036.288319,11251.130318,-18386.291952
118.538557,-5107.421000,15766.386565,-9729.412825
118.538867,-1924.535449,14878.139434,-7814.174080
118.539176,518.144159,13101.645173,-8427.050478
118.539486,4885.359217,9030.512492,-612.876398
118.539795,518.144159,3330.926739,10112.460574
118.540105,1554.432478,6291.750507,10035.851024
118.540414,962.267725,4589.276840,10035.851024
118.540723,-3701.029710,10214.842000,5975.544884
118.541033,-148.041188,11843.295072,-7277.907231
118.541342,-1628.453072,10955.047942,-14862.252661
118.541652,-2516.700203,14137.933492,-13789.718964
118.541961,-1702.473667,10288.862594,-10495.508323
118.542271,148.041188,7402.059420,-3753.867940
118.542580,2812.782580,7179.997637,4903.011187
118.542890,4663.297435,1924.535449,8886.707777
118.543199,2590.720797,3256.906145,13636.499864
118.543509,-2516.700203,1628.453072,14709.033562
118.543818,-5255.462188,8438.347739,4136.915689
118.544127,2442.679609,11399.171507,-13866.328514
118.544437,-1998.556043,12583.501014,-18462.901502
118.544746,-4737.318029,16210.510130,-12870.404366
118.545056,-2294.638420,12879.583391,-9039.926876
118.545365,2664.741391,14508.036463,-4136.915689
118.545675,3849.070898,10214.842000,3524.039291
118.545984,2294.638420,4515.256246,12640.575717
118.546294,3627.009116,4959.379811,15168.690860
118.546603,-1480.411884,3923.091493,12104.308868
118.546912,-4071.132681,12435.459826,2528.115143
118.547222,1184.329507,13175.665768,-14096.157163
118.547531,-2294.638420,14582.057057,-19918.482948
118.547841,-4145.153275,18061.024985,-15092.081311
118.548150,-148.041188,11843.295072,-9499.584175
118.548460,-2294.638420,10955.047942,-3370.820191
118.548769,1332.370696,6883.915261,9576.193725
118.549079,4219.173869,888.247130,12257.527968
118.549388,5551.544565,1036.288319,9652.803275
118.549698,370.102971,-2146.597232,14938.862211
118.550007,-4885.359217,9474.636058,11797.870669
118.550316,518.144159,12287.418637,-9806.022374
118.550626,-0.000000,10807.006753,-21680.502593
118.550935,-1924.535449,11843.295072,-17313.758255
118.551245,-4367.215058,8290.306550,-10725.336972
118.551554,-1110.308913,12657.521608,-4903.011187
118.551864,5921.647536,10140.821405,2374.896044
118.552173,4663.297435,6513.812290,7048.078582
118.552483,2368.659014,1332.370696,18233.072852
118.552792,-4071.132681,5181.441594,17850.025103
118.553102,-1110.308913,11917.315666,1991.848295
118.553411,4811.338623,16802.674883,-15858.176809
118.553720,-2738.761985,16062.468941,-18462.901502
118.554030,-5403.503377,16358.551318,-14709.033562
118.554339,-222.061783,9992.780217,-14632.424012
118.554649,-3404.947333,14508.036463,-6052.154434
118.554958,2072.576638,10510.924376,4903.011187
118.555268,4219.173869,7698.141797,11568.042020
118.555577,6809.894666,4441.235652,11644.651570
118.555887,-3404.947333,-74.020594,14632.424012
118.556196,-2812.782580,10955.047942,6205.373534
118.556505,2886.803174,13915.871710,-9652.803275
118.556815,-1628.453072,11621.233289,-16547.662757
118.557124,-5403.503377,12287.418637,-9039.926876
118.557434,-1184.329507,5551.544565,-7814.174080
118.557743,2960.823768,11547.212695,-6435.202183
118.558053,5995.668130,7624.121203,-766.095498
118.558362,518.144159,1850.514855,9882.631924
118.558672,3182.885551,1406.391290,12410.747068
118.558981,-1702.473667,666.185348,12947.013916
118.559291,-1406.391290,11621.233289,4290.134789
118.559600,1628.453072,14434.015869,-10342.289223
118.559909,-1702.473667,16580.613101,-14172.766713
118.560219,-6735.874072,15026.180623,-10801.946522
118.560528,-1036.288319,7402.059420,-12717.185267
118.560838,2960.823768,10214.842000,-7507.735880
118.561147,2960.823768,10436.903782,1225.752797
118.561457,3627.009116,11695.253884,10725.336972
118.561766,4515.256246,9252.574275,14862.252661
118.562076,-444.123565,2812.782580,12640.575717
118.562385,-0.000000,10807.006753,3294.210641
118.562695,2664.741391,14359.995275,-12717.185267
118.563004,-1924.535449,18727.210333,-14709.033562
118.563313,-4515.256246,15914.427753,-9806.022374
118.563623,-0.000000,9548.656652,-11108.384721
118.563932,2146.597232,11325.150913,-8044.002729
118.564242,1406.391290,6957.935855,3140.991542
118.564551,1036.288319,4737.318029,11108.384721
118.564861,4219.173869,1924.535449,12793.794817
118.565170,2664.741391,1406.391290,10572.117872
118.565480,-3997.112087,5477.523971,4673.182538
118.565789,-1184.329507,11103.089130,-7431.126331
118.566099,-1480.411884,15766.386565,-13176.842566
118.566408,-1776.494261,13693.809927,-11338.213370
118.566717,-6735.874072,8660.409521,-7431.126331
118.567027,3552.988522,12583.501014,-10189.070123
118.567336,5033.400406,7550.100608,-7507.735880
118.567646,-1332.370696,7846.182985,11031.775171
118.567955,814.226536,4219.173869,17083.929605
118.568265,5033.400406,3923.091493,6358.592633
118.568574,-296.082377,7698.141797,0.000000
118.568884,-3923.091493,11547.212695,-1685.410096
118.569193,-888.247130,16432.571912,-8963.317327
118.569502,1110.308913,18283.086767,-15321.909960
118.569812,-1776.494261,11547.212695,-10035.851024
118.570121,-3997.112087,11029.068536,-8503.660028
118.570431,3627.009116,6439.791695,-6205.373534
118.570740,-1036.288319,10584.944971,9729.412825
118.571050,1998.556043,7031.956449,16930.710506
118.571359,2220.617826,2664.741391,7354.516781
118.571669,962.267725,7254.018232,919.314598
118.571978,740.205942,9918.759623,-2145.067394
118.572288,-3997.112087,12509.480420,-10418.898773
118.572597,3256.906145,15544.324782,-10035.851024
118.572906,-7254.018232,8364.327145,-3600.648841
118.573216,2146.597232,9474.636058,-5745.716235
118.573525,5107.421000,4515.256246,-7660.954980
118.573835,-3552.988522,5921.647536,5592.497135
118.574144,-370.102971,4367.215058,15934.786358
118.574454,814.226536,4811.338623,7431.126331
118.574763,6735.874072,9548.656652,-3140.991542
118.575073,-222.061783,10510.924376,-1225.752797
118.575382,-3997.112087,17838.963202,-4596.572988
118.575692,518.144159,17542.880825,-11338.213370
118.576001,-1554.432478,15396.283594,-10801.946522
118.576310,3701.029710,10362.883188,-7048.078582
118.576620,5329.482782,5255.462188,-6128.763984
118.576929,-1554.432478,10584.944971,7048.078582
118.577239,-1702.473667,7920.203579,17926.634653
118.577548,1776.494261,5625.565159,7660.954980
118.577858,4441.235652,7402.059420,-5515.887586
118.578167,-2960.823768,9178.553681,-6052.154434
118.578477,-7402.059420,18135.045579,-5898.935335
118.578786,2368.659014,13767.830521,-13253.452115
118.579095,-222.061783,16580.613101,-8886.707777
118.579405,-888.247130,9696.697840,2528.115143
118.579714,3997.112087,962.267725,-1838.629195
118.580024,-814.226536,2960.823768,4136.915689
118.580333,1480.411884,2368.659014,16700.881856
118.580643,74.020594,6365.771101,11184.994271
118.580952,3775.050304,10955.047942,-3753.867940
118.581262,-0.000000,8142.265362,-7354.516781
118.581571,-7105.977043,13693.809927,-5898.935335
118.581881,-592.164754,15988.448347,-10035.851024
118.582190,-814.226536,12213.398043,-7660.954980
118.582499,-148.041188,8512.368333,-6052.154434
118.582809,2516.700203,5477.523971,-2221.676944
118.583118,3256.906145,8364.327145,6052.154434
118.583428,-222.061783,8586.388927,10265.679673
118.583737,-2442.679609,9474.636058,9039.926876
118.584047,4367.215058,10140.821405,-536.266849
118.584356,1258.350101,8142.265362,-8963.317327
118.584666,-3849.070898,15988.448347,-6205.373534
118.584975,518.144159,14878.139434,-6205.373534
118.585285,-3997.112087,12139.377449,-10572.117872
118.585594,-1332.370696,10066.800811,-6894.859482
118.585903,3552.988522,4441.235652,1302.362347
118.586213,592.164754,9918.759623,3907.087040
118.586522,74.020594,7179.997637,9499.584175
118.586832,-1924.535449,9548.656652,9806.022374
118.587141,3256.906145,4367.215058,-1685.410096
118.587451,4145.153275,5773.606348,-10265.679673
118.587760,-3478.967927,13175.665768,-2911.162892
118.588070,-0.000000,14063.912898,-612.876398
118.588379,-3701.029710,9474.636058,-3294.210641
118.588689,1110.308913,7105.977043,-3294.210641
118.588998,3701.029710,2516.700203,-2911.162892
118.589307,-1628.453072,8512.368333,-995.924147
118.589617,814.226536,7328.038826,7354.516781
118.589926,-5699.585753,9622.677246,5975.544884
118.590236,3256.906145,11177.109724,-5362.668486
118.590545,1480.411884,11843.295072,-8963.317327
118.590855,-2072.576638,13619.789333,-7660.954980
118.591164,1332.370696,11621.233289,-4060.306139
118.591474,-4367.215058,13619.789333,-1072.533697
118.591783,4367.215058,9474.636058,-2298.286494
118.592092,2516.700203,3627.009116,-1991.848295
118.592402,-1036.288319,10140.821405,5975.544884
118.592711,-0.000000,7846.182985,9269.755526
118.593021,-4145.153275,11325.150913,1455.581446
118.593330,2812.782580,12139.377449,-9269.755526
118.593640,-592.164754,7920.203579,-13789.718964
118.593949,-4589.276840,12509.480420,-6741.640382
118.594259,518.144159,11473.192101,-2298.286494
118.594568,1332.370696,13915.871710,-1685.410096
118.594878,3478.967927,5773.606348,306.438199
118.595187,-444.123565,1924.535449,6741.640382
118.595496,888.247130,2516.700203,8044.002729
118.595806,740.205942,5847.626942,6588.421283
118.596115,-2368.659014,8734.430116,6205.373534
118.596425,1924.535449,11621.233289,-2757.943793
118.596734,-148.041188,13323.706956,-17007.320056
118.597044,-3552.988522,14582.057057,-9269.755526
118.597353,-3034.844362,11621.233289,-2221.676944
118.597663,-3923.091493,11991.336260,-4519.963438
118.597972,5255.462188,4737.318029,-689.485948
118.598282,1702.473667,2294.638420,6358.592633
118.598591,-222.061783,5181.441594,8810.098227
118.598900,-148.041188,7476.080014,8886.707777
118.599210,-1184.329507,12361.439231,4749.792088
118.599519,-74.020594,12657.521608,-8197.221829
118.599829,-1036.288319,13249.686362,-12410.747068
118.600138,-3775.050304,19023.292709,-9576.193725
118.600448,-0.000000,13471.748144,-10265.679673
118.600757,-3478.967927,13471.748144,-4290.134789
118.601067,3552.988522,8290.306550,919.314598
118.601376,1554.432478,3775.050304,5592.497135
118.601685,1776.494261,4959.379811,8656.879127
118.601995,296.082377,4663.297435,12410.747068
118.602304,-7698.141797,8882.471304,3830.477490
118.602614,5847.626942,8290.306550,-9346.365076
118.602923,1036.288319,11621.233289,-13483.280765
118.603233,-3552.988522,14063.912898,-6205.373534
118.603542,-3627.009116,11399.171507,2528.115143
118.603852,-222.061783,10955.047942,-766.095498
118.604161,6957.935855,3182.885551,-4903.011187
118.604471,-888.247130,-666.185348,3064.381992
118.604780,-2664.741391,5329.482782,15092.081311
118.605089,-1702.473667,9326.594869,9422.974625
118.605399,-296.082377,9844.739029,-4596.572988
118.605708,3627.009116,14359.995275,-9806.022374
118.606018,-2442.679609,15988.448347,-8197.221829
118.606327,-2294.638420,18061.024985,-7048.078582
118.606637,3923.091493,15544.324782,-5975.544884
118.606946,1480.411884,13915.871710,-4596.572988
118.607256,2886.803174,4589.276840,919.314598
118.607565,-1554.432478,3923.091493,11108.384721
118.607875,2664.741391,6661.853478,8963.317327
118.608184,3775.050304,7698.141797,612.876398
118.608493,-3923.091493,11251.130318,-1532.190996
118.608803,-1850.514855,11473.192101,-8580.269578
118.609112,-1406.391290,16136.489536,-15245.300410
118.609422,-74.020594,17172.777854,-14938.862211
118.609731,-1184.329507,11917.315666,-3064.381992
118.610041,-3404.947333,5921.647536,3370.820191
118.610350,4811.338623,888.247130,2834.553343
118.610660,4959.379811,-888.247130,5975.544884
118.610969,-148.041188,1850.514855,14172.766713
118.611279,-1184.329507,5403.503377,14709.033562
118.611588,-1628.453072,10732.986159,-2374.896044
118.611897,3552.988522,11473.192101,-17083.929605
118.612207,-5181.441594,10732.986159,-14019.547613
118.612516,-4885.359217,15692.365970,-7048.078582
118.612826,-1332.370696,15988.448347,-9269.755526
118.613135,1924.535449,12287.418637,-5822.325785
118.613445,3552.988522,3775.050304,3600.648841
118.613754,-740.205942,888.247130,12717.185267
118.614064,2516.700203,7550.100608,14172.766713
118.614373,1776.494261,8734.430116,8120.612279
118.614682,740.205942,9104.533087,-612.876398
118.614992,814.226536,9548.656652,-10495.508323
118.615301,-3997.112087,16876.695478,-12487.356617
118.615611,-4663.297435,19171.333898,-12257.527968
118.615911,1850.514855,16432.571912,-10265.679673
118.616221,-888.247130,15396.283594,-4443.353888
118.616530,1998.556043,5403.503377,2451.505594
118.616840,-1628.453072,5773.606348,8273.831378
118.617149,4663.297435,3775.050304,8886.707777
118.617458,-370.102971,5033.400406,7967.393179
118.617768,-3404.947333,5477.523971,5056.230287
118.618077,3478.967927,9474.636058,-8120.612279
118.618387,-1406.391290,12805.562797,-14709.033562
118.618696,-3182.885551,15840.407159,-6665.030833
118.619006,-370.102971,14508.036463,-2604.724693
118.619315,2664.741391,11103.089130,-5286.058936
118.619625,4293.194464,2812.782580,-1149.143247
118.619934,-1776.494261,1258.350101,10189.070123
118.620244,1702.473667,4219.173869,10495.508323
118.620553,-0.000000,6513.812290,8656.879127
118.620862,-4959.379811,13027.624579,1532.190996
118.621172,3330.926739,9844.739029,-13253.452115
118.621481,-2294.638420,15766.386565,-15398.519510
118.621791,-740.205942,21317.931130,-7431.126331
118.622100,-1036.288319,18283.086767,-6511.811733
118.622410,4811.338623,14952.160028,-5362.668486
118.622719,5033.400406,4441.235652,3753.867940
118.623029,-1554.432478,5551.544565,9806.022374
118.623338,2442.679609,6069.688724,9422.974625
118.623648,-1332.370696,5847.626942,5822.325785
118.623957,-4515.256246,10066.800811,-383.047749
