#time,accel_x,accel_y,accel_z
159.423594,444.123565,9548.656652,-1991.848295
159.423903,-592.164754,8290.306550,0.000000
159.424213,-518.144159,9474.636058,-766.095498
159.424523,-296.082377,9548.656652,-459.657299
159.424832,222.061783,9918.759623,-1378.971896
159.425142,-518.144159,9474.636058,-4290.134789
159.425452,-0.000000,9622.677246,-1685.410096
159.425761,-370.102971,9474.636058,-1455.581446
159.426071,-592.164754,9400.615463,-689.485948
159.426381,-0.000000,9474.636058,-766.095498
159.426690,962.267725,11177.109724,4826.401637
159.427000,-148.041188,9548.656652,-689.485948
159.427310,-592.164754,9178.553681,0.000000
159.427619,296.082377,8808.450710,-1838.629195
159.427929,1480.411884,9622.677246,-2374.896044
159.428239,-962.267725,8734.430116,-1762.019645
159.428548,666.185348,9844.739029,-306.438199
159.428858,-0.000000,10584.944971,0.000000
159.429168,-592.164754,8808.450710,-612.876398
159.429477,592.164754,8142.265362,-306.438199
159.429787,518.144159,8364.327145,-2374.896044
159.430097,222.061783,9474.636058,-766.095498
159.430406,-0.000000,8734.430116,306.438199
159.430716,740.205942,8438.347739,1225.752797
159.431026,1850.514855,7105.977043,3064.381992
159.431335,5477.523971,7031.956449,766.095498
159.431645,1924.535449,6291.750507,7890.783629
159.431955,-814.226536,7031.956449,11644.651570
159.432264,518.144159,6661.853478,11414.822920
159.432574,7402.059420,9474.636058,4213.525239
159.432884,5181.441594,6587.832884,1762.019645
159.433193,-1628.453072,8808.450710,10342.289223
159.433503,-1776.494261,11547.212695,15092.081311
159.433813,740.205942,12583.501014,7737.564530
159.434122,1850.514855,11991.336260,4673.182538
159.434432,-0.000000,13249.686362,10342.289223
159.434742,-11473.192101,16506.592507,11414.822920
159.435051,11399.171507,24648.857869,-3140.991542
159.435361,1036.288319,1924.535449,383.047749
159.435671,-592.164754,14063.912898,17850.025103
159.435980,-21095.869347,9326.594869,31563.134518
159.436290,5033.400406,19615.457463,1991.848295
159.436600,7254.018232,5477.523971,-10112.460574
159.436909,-5921.647536,9696.697840,6741.640382
159.437219,-10658.965565,8586.388927,13253.452115
159.437529,222.061783,10881.027347,689.485948
159.437839,-444.123565,6439.791695,2374.896044
159.438148,-7254.018232,4811.338623,17313.758255
159.438458,5921.647536,6217.729913,12104.308868
159.438768,-6217.729913,-370.102971,9806.022374
159.439077,3849.070898,5625.565159,14479.204912
159.439387,-3034.844362,6217.729913,13100.233016
159.439697,-1184.329507,5699.585753,3294.210641
159.440006,-518.144159,11325.150913,6971.469032
159.440316,-370.102971,13323.706956,-229.828649
159.440626,5477.523971,13397.727550,-6052.154434
159.440935,740.205942,13693.809927,12947.013916
159.441245,74.020594,11399.171507,24208.617737
159.441555,1258.350101,5181.441594,19612.044749
159.441864,3701.029710,6809.894666,11874.480219
159.442174,-2960.823768,4811.338623,11951.089769
159.442484,3404.947333,13767.830521,0.000000
159.442793,7328.038826,14730.098246,-6665.030833
159.443103,2294.638420,17690.922014,2145.067394
159.443413,-4663.297435,16728.654289,16471.053207
159.443722,-6513.812290,10732.986159,17773.415554
159.444032,2368.659014,10658.965565,4290.134789
159.444342,3182.885551,7254.018232,-4366.744339
159.444651,2886.803174,6957.935855,-766.095498
159.444961,-444.123565,9548.656652,12257.527968
159.445271,-814.226536,11547.212695,17926.634653
159.445580,2072.576638,8364.327145,9806.022374
159.445890,3701.029710,4885.359217,4673.182538
159.446200,-1110.308913,2590.720797,3294.210641
159.446509,-7550.100608,4219.173869,6741.640382
159.446819,-3108.864956,7476.080014,2068.457845
159.447129,6957.935855,9400.615463,-7584.345430
159.447438,6883.915261,8142.265362,-3217.601092
159.447748,-3330.926739,7402.059420,15858.176809
159.448058,-6365.771101,7550.100608,22063.550342
159.448367,592.164754,10807.006753,11108.384721
159.448677,5403.503377,9622.677246,-2757.943793
159.448987,-1480.411884,10881.027347,-995.924147
159.449296,-7328.038826,12953.603985,2145.067394
159.449606,296.082377,13619.789333,-4060.306139
159.449916,9104.533087,13989.892304,-6588.421283
159.450225,1332.370696,10807.006753,12257.527968
159.450535,-4885.359217,6883.915261,27809.266577
159.450845,3256.906145,4811.338623,17543.586904
159.451154,4293.194464,4219.173869,6511.811733
159.451464,1258.350101,5181.441594,4596.572988
159.451774,2294.638420,5921.647536,3064.381992
159.452083,4145.153275,5625.565159,-919.314598
159.452393,74.020594,8882.471304,6205.373534
159.452703,-5033.400406,12139.377449,19841.873398
159.453013,-10584.944971,-11325.150913,17466.977354
159.453322,-12213.398043,3923.091493,7354.516781
159.453632,7772.162391,11843.295072,1149.143247
159.453942,-19023.292709,1480.411884,4060.306139
159.454251,15544.324782,22576.281231,1685.410096
159.454561,-2294.638420,4737.318029,-383.047749
159.454871,-2072.576638,15618.345376,10725.336972
159.455180,-9992.780217,11547.212695,26277.075581
159.455490,-7105.977043,7105.977043,10342.289223
159.455800,3849.070898,8808.450710,459.657299
159.456109,3404.947333,12879.583391,6741.640382
159.456419,1850.514855,10881.027347,1149.143247
159.456729,-2738.761985,6439.791695,689.485948
159.457038,1406.391290,18949.272115,14019.547613
159.457348,666.185348,9992.780217,5975.544884
159.457658,4959.379811,7772.162391,-306.438199
159.457967,-3627.009116,12065.356855,24821.494135
159.458277,-8734.430116,7254.018232,25357.760984
159.458587,8808.450710,5995.668130,6588.421283
159.458896,5107.421000,4663.297435,5592.497135
159.459206,-444.123565,3034.844362,12717.185267
159.459516,4441.235652,4589.276840,7507.735880
159.459825,-1110.308913,9474.636058,7660.954980
159.460135,-6513.812290,13397.727550,18922.558801
159.460445,1480.411884,13471.748144,11568.042020
159.460754,2442.679609,7402.059420,-306.438199
159.461064,-4515.256246,6809.894666,5669.106685
159.461374,-6735.874072,10584.944971,12104.308868
159.461683,-3478.967927,12805.562797,6588.421283
159.461993,4071.132681,12879.583391,3140.991542
159.462303,5255.462188,14582.057057,4903.011187
159.462612,-3182.885551,12065.356855,13559.890315
159.462922,-6217.729913,11325.150913,13176.842566
159.463232,-1924.535449,12139.377449,5975.544884
159.463541,5403.503377,8808.450710,-3447.429741
159.463851,2664.741391,8364.327145,-4903.011187
159.464161,-7105.977043,6735.874072,10189.070123
159.464470,1702.473667,9178.553681,10495.508323
159.464780,1924.535449,4885.359217,6818.249932
159.465090,5699.585753,3923.091493,10035.851024
159.465399,-4959.379811,1776.494261,15475.129060
159.465709,-5551.544565,740.205942,13176.842566
159.466019,8142.265362,9770.718434,-612.876398
159.466328,8734.430116,8142.265362,-7584.345430
159.466638,-1480.411884,9992.780217,11108.384721
159.466948,-3108.864956,14211.954086,20301.530697
159.467257,3478.967927,7994.224174,12257.527968
159.467567,7550.100608,10510.924376,4213.525239
159.467877,-6735.874072,4737.318029,15628.348159
159.468187,-3478.967927,12731.542202,12870.404366
159.468496,1924.535449,10214.842000,-8044.002729
159.468806,7105.977043,15618.345376,-14785.643111
159.469116,-2146.597232,12435.459826,7814.174080
159.469425,-1628.453072,13397.727550,20071.702048
159.469735,7328.038826,10140.821405,9269.755526
159.470045,3330.926739,8216.285956,6205.373534
159.470354,-3182.885551,5773.606348,15934.786358
159.470664,-3404.947333,3404.947333,12257.527968
159.470974,11251.130318,3256.906145,-4749.792088
159.471283,5773.606348,5995.668130,-7431.126331
159.471593,-3923.091493,6661.853478,10801.946522
159.471903,-3997.112087,7846.182985,20761.187996
159.472212,3849.070898,8142.265362,10955.165621
159.472522,962.267725,6883.915261,5745.716235
159.472832,-7254.018232,3923.091493,7201.297681
159.473141,2294.638420,13249.686362,1302.362347
159.473451,-9030.512492,5699.585753,-612.876398
159.473761,2220.617826,19023.292709,-8733.488677
159.474070,1184.329507,17024.736666,-8656.879127
159.474380,-4959.379811,14211.954086,-229.828649
159.474690,-12065.356855,16580.613101,15858.176809
159.474999,-4219.173869,17838.963202,5669.106685
159.475309,10362.883188,10214.842000,-13023.623466
159.475619,-3627.009116,-0.000000,3064.381992
159.475928,-4293.194464,8216.285956,18156.463303
159.476238,7105.977043,3923.091493,-689.485948
159.476548,6661.853478,444.123565,-5898.935335
159.476857,-2886.803174,8586.388927,12410.747068
159.477167,-6143.709319,2146.597232,9959.241474
159.477477,10584.944971,4219.173869,-7890.783629
159.477786,-1258.350101,-370.102971,-995.924147
159.478096,-2072.576638,1702.473667,16088.005458
159.478406,7105.977043,5181.441594,12410.747068
159.478715,-1924.535449,9474.636058,7431.126331
159.479025,-0.000000,15840.407159,3830.477490
159.479335,-3182.885551,13693.809927,-5056.230287
159.479644,4293.194464,18949.272115,-15475.129060
159.479954,2294.638420,21317.931130,-10495.508323
159.480263,-4515.256246,16358.551318,4979.620737
159.480573,-2886.803174,16210.510130,8886.707777
159.480883,-2738.761985,10658.965565,4826.401637
159.481192,4515.256246,8364.327145,0.000000
159.481502,814.226536,7994.224174,-306.438199
159.481811,592.164754,12435.459826,-1072.533697
159.482121,2812.782580,10066.800811,1762.019645
159.482431,4589.276840,11473.192101,2145.067394
159.482740,-518.144159,6661.853478,3524.039291
159.483050,-7476.080014,3627.009116,6435.202183
159.483360,-6143.709319,3701.029710,2834.553343
159.483669,888.247130,5181.441594,-11108.384721
159.483979,3404.947333,12139.377449,-13330.061665
159.484288,-666.185348,15544.324782,-1608.800546
159.484598,1258.350101,8808.450710,7201.297681
159.484908,-3478.967927,7772.162391,7890.783629
159.485217,-4145.153275,5921.647536,3524.039291
159.485527,3775.050304,5329.482782,-5975.544884
159.485837,-370.102971,11621.233289,-7737.564530
159.486146,-7254.018232,8586.388927,1378.971896
159.486456,3701.029710,10362.883188,1072.533697
159.486765,4737.318029,5921.647536,-2987.772442
159.487075,1776.494261,8586.388927,459.657299
159.487385,-444.123565,5181.441594,7584.345430
159.487694,-1258.350101,-370.102971,3830.477490
159.488004,3849.070898,9326.594869,919.314598
159.488313,2072.576638,16210.510130,6971.469032
159.488623,7698.141797,9770.718434,2451.505594
159.488933,-1110.308913,13323.706956,-1991.848295
159.489242,-7402.059420,14137.933492,3064.381992
159.489552,2516.700203,18135.045579,-8886.707777
159.489862,7624.121203,18949.272115,-21144.235745
159.490171,2368.659014,18875.251521,-6128.763984
159.490481,-222.061783,9770.718434,15321.909960
159.490790,-4959.379811,6513.812290,11031.775171
159.491100,-2368.659014,6661.853478,2068.457845
159.491410,-444.123565,4589.276840,2681.334243
159.491719,3627.009116,4293.194464,-11568.042020
159.492029,-1776.494261,7179.997637,-15245.300410
159.492339,1332.370696,14508.036463,612.876398
159.492648,-888.247130,5329.482782,5515.887586
159.492958,-1924.535449,4663.297435,-1455.581446
159.493267,-8956.491898,4885.359217,9039.926876
159.493577,962.267725,3701.029710,4596.572988
159.493887,6883.915261,12139.377449,-17007.320056
159.494196,-5625.565159,10066.800811,-6128.763984
159.494506,-2516.700203,18579.169144,12257.527968
159.494816,444.123565,14211.954086,-3524.039291
159.495125,-4811.338623,6957.935855,-14709.033562
159.495435,-4145.153275,11251.130318,1149.143247
159.495744,-3330.926739,7179.997637,-2451.505594
159.496054,6217.729913,7994.224174,-14709.033562
159.496364,1258.350101,14804.118840,2834.553343
159.496673,1480.411884,5995.668130,13023.623466
159.496983,1258.350101,4811.338623,-1149.143247
159.497292,-6069.688724,4663.297435,1991.848295
159.497602,888.247130,7772.162391,4290.134789
159.497912,10362.883188,10214.842000,-19688.654299
159.498221,444.123565,8364.327145,-12870.404366
159.498531,-666.185348,12657.521608,15628.348159
159.498841,-5033.400406,8956.491898,6971.469032
159.499150,1184.329507,4441.235652,-6971.469032
159.499460,-5033.400406,14211.954086,10035.851024
159.499769,-2368.659014,11621.233289,-536.266849
159.500079,9252.574275,14878.139434,-26660.123330
159.500389,2590.720797,23242.466579,-10955.165621
159.500698,-6513.812290,11547.212695,7277.907231
159.501008,1998.556043,4515.256246,-3524.039291
159.501318,-8882.471304,8586.388927,2681.334243
159.501627,-0.000000,5847.626942,7048.078582
159.501937,10584.944971,4811.338623,-13789.718964
159.502246,4515.256246,4293.194464,-5669.106685
159.502556,-7105.977043,11769.274478,25894.027832
159.502866,3034.844362,8438.347739,6128.763984
159.503175,6587.832884,444.123565,-16394.443657
159.503485,-888.247130,9918.759623,76.609550
159.503794,-8438.347739,10584.944971,229.828649
159.504104,5847.626942,14211.954086,-17083.929605
159.504414,2590.720797,15248.242405,-2681.334243
159.504723,-222.061783,11843.295072,9346.365076
159.505033,-3108.864956,4811.338623,1915.238745
159.505343,-1258.350101,5107.421000,153.219100
159.505652,-2442.679609,5551.544565,612.876398
159.505962,5181.441594,10066.800811,-6588.421283
159.506271,3404.947333,16506.592507,-1915.238745
159.506581,1184.329507,10584.944971,2911.162892
159.506891,4737.318029,9696.697840,-3830.477490
159.507200,-5995.668130,518.144159,612.876398
159.507510,-2738.761985,6883.915261,9422.974625
159.507820,3330.926739,8956.491898,-3064.381992
159.508129,370.102971,8808.450710,-9882.631924
159.508439,4811.338623,15248.242405,-2681.334243
159.508748,-5773.606348,7624.121203,8273.831378
159.509058,1628.453072,10436.903782,-536.266849
159.509368,-4441.235652,11917.315666,2374.896044
159.509677,-1110.308913,11843.295072,-1149.143247
159.509987,-1924.535449,11769.274478,-8656.879127
159.510296,-3627.009116,14137.933492,-3753.867940
159.510606,4515.256246,15470.304188,-6588.421283
159.510916,-7402.059420,7772.162391,-4826.401637
159.511225,-4737.318029,9252.574275,3830.477490
159.511535,-740.205942,-814.226536,2068.457845
159.511845,6217.729913,5477.523971,-7354.516781
159.512154,-1924.535449,5255.462188,3600.648841
159.512464,-5625.565159,7624.121203,14402.595362
159.512773,1776.494261,7105.977043,-2757.943793
159.513083,2368.659014,1998.556043,-12563.966167
159.513393,-2146.597232,9918.759623,2834.553343
159.513702,-8882.471304,10066.800811,1072.533697
159.514012,4071.132681,12583.501014,-15245.300410
159.514322,1258.350101,20059.581028,-7967.393179
159.514631,148.041188,15396.283594,1915.238745
159.514941,1184.329507,10732.986159,-4519.963438
159.515250,-4145.153275,9474.636058,-536.266849
159.515560,5773.606348,6883.915261,612.876398
159.515870,3182.885551,9178.553681,-4136.915689
159.516179,296.082377,7105.977043,689.485948
159.516489,1554.432478,8364.327145,1838.629195
159.516798,8808.450710,4145.153275,-7201.297681
159.517108,1998.556043,5699.585753,-7277.907231
159.517418,-6069.688724,7772.162391,10801.946522
159.517727,-1998.556043,7624.121203,8810.098227
159.518037,4737.318029,11473.192101,-13789.718964
159.518347,4441.235652,14359.995275,-12410.747068
159.518656,-8364.327145,11251.130318,3140.991542
159.518966,-0.000000,13323.706956,-1072.533697
159.519275,1998.556043,15470.304188,-7660.954980
159.519585,2368.659014,10362.883188,-1302.362347
159.519895,-4737.318029,11695.253884,4213.525239
159.520204,-3923.091493,8290.306550,-2604.724693
159.520514,7550.100608,6513.812290,-9499.584175
159.520824,-1628.453072,10955.047942,-7201.297681
159.521133,-11769.274478,5181.441594,4213.525239
159.521443,9622.677246,9770.718434,-229.828649
159.521752,4515.256246,-0.000000,-8886.707777
159.522062,-2812.782580,7179.997637,4290.134789
159.522372,-4959.379811,7994.224174,13100.233016
159.522681,222.061783,1776.494261,612.876398
159.522991,10436.903782,10214.842000,-10648.727422
159.523300,-7476.080014,9030.512492,3370.820191
159.523610,-518.144159,13841.851115,2451.505594
159.523920,3404.947333,14804.118840,-12640.575717
159.524229,-3404.947333,17172.777854,-6358.592633
159.524539,1406.391290,18357.107362,2068.457845
159.524849,-1628.453072,14804.118840,-6971.469032
159.525158,-2812.782580,12361.439231,-1991.848295
159.525468,4219.173869,10658.965565,3370.820191
159.525777,3404.947333,2516.700203,-2987.772442
159.526087,-1702.473667,4145.153275,3294.210641
159.526397,1628.453072,8586.388927,15245.300410
159.526706,1628.453072,592.164754,2068.457845
159.527016,4071.132681,8290.306550,-9652.803275
159.527326,-4737.318029,8956.491898,4903.011187
159.527635,-3997.112087,8142.265362,2451.505594
159.527945,3552.988522,13027.624579,-13023.623466
159.528254,-1702.473667,11325.150913,-2757.943793
159.528564,-4441.235652,12287.418637,6281.983084
159.528874,-5033.400406,11843.295072,-2604.724693
159.529183,-3775.050304,14211.954086,-5132.839837
159.529493,5255.462188,12213.398043,-2911.162892
159.529802,-1258.350101,9030.512492,-8580.269578
159.530112,-3404.947333,11917.315666,1991.848295
159.530422,-518.144159,9474.636058,8580.269578
159.530731,5699.585753,2442.679609,-4903.011187
159.531041,-74.020594,4811.338623,-3830.477490
159.531351,-6957.935855,7402.059420,13100.233016
159.531660,-1184.329507,5847.626942,3830.477490
159.531970,4737.318029,7550.100608,-15934.786358
159.532279,1480.411884,9104.533087,-9806.022374
159.532589,-6957.935855,9548.656652,4903.011187
159.532899,-2220.617826,9030.512492,-2834.553343
159.533208,1998.556043,13101.645173,-5745.716235
159.533518,2960.823768,14137.933492,76.609550
159.533828,-3701.029710,11251.130318,1149.143247
159.534137,-2220.617826,11399.171507,0.000000
159.534447,4219.173869,15396.283594,-2681.334243
159.534756,2664.741391,8068.244768,-8503.660028
159.535066,-5181.441594,11917.315666,-2221.676944
159.535376,-1258.350101,13027.624579,2221.676944
159.535685,3923.091493,3404.947333,-12870.404366
159.535995,2516.700203,3923.091493,-9806.022374
159.536304,-5773.606348,11399.171507,10648.727422
159.536614,-1628.453072,592.164754,12180.918418
159.536924,8068.244768,4811.338623,-6588.421283
159.537233,-2516.700203,5181.441594,1302.362347
159.537543,-6291.750507,5625.565159,9806.022374
159.537853,3034.844362,12583.501014,-8350.440928
159.538162,7550.100608,15026.180623,-18386.291952
159.538472,1110.308913,18431.127956,-2604.724693
159.538781,-6513.812290,9178.553681,5745.716235
159.539091,-3701.029710,8364.327145,-2145.067394
159.539401,592.164754,13323.706956,-6741.640382
159.539710,4663.297435,10066.800811,-10112.460574
159.540020,4145.153275,7994.224174,-6665.030833
159.540330,-3182.885551,9548.656652,10801.946522
159.540639,962.267725,6587.832884,7584.345430
159.540949,3701.029710,3923.091493,-9576.193725
159.541258,-74.020594,9918.759623,-6818.249932
159.541568,-1258.350101,6957.935855,-1302.362347
159.541878,962.267725,10658.965565,-9269.755526
159.542187,1036.288319,11843.295072,-2221.676944
159.542497,3108.864956,10807.006753,8963.317327
159.542806,2812.782580,4885.359217,3524.039291
159.543116,740.205942,6217.729913,0.000000
159.543426,-2072.576638,9030.512492,4136.915689
159.543735,-592.164754,10584.944971,-4979.620737
159.544045,1776.494261,17172.777854,-15245.300410
159.544355,-592.164754,16580.613101,-6588.421283
159.544664,-740.205942,12583.501014,-5592.497135
159.544974,-5773.606348,9770.718434,-9422.974625
159.545283,-6809.894666,9474.636058,5592.497135
159.545593,5699.585753,5921.647536,1149.143247
159.545903,3701.029710,1184.329507,-11797.870669
159.546212,-3330.926739,5921.647536,6741.640382
159.546522,740.205942,3627.009116,17620.196454
159.546832,6143.709319,4145.153275,-3677.258390
159.547141,2072.576638,6587.832884,-2681.334243
159.547451,-5773.606348,9622.677246,9269.755526
159.547760,-3775.050304,8956.491898,-2298.286494
159.548070,3256.906145,14804.118840,-18003.244203
159.548380,1332.370696,18801.230927,-8656.879127
159.548689,-4737.318029,8956.491898,153.219100
159.548999,-2072.576638,14359.995275,-2604.724693
159.549308,-3478.967927,16580.613101,0.000000
159.549618,6365.771101,10288.862594,-1225.752797
159.549928,1258.350101,13101.645173,-3217.601092
159.550237,-4515.256246,8956.491898,5286.058936
159.550547,6661.853478,3775.050304,1455.581446
159.550857,4515.256246,6661.853478,-8963.317327
159.551166,-7994.224174,3701.029710,8503.660028
159.551476,-2072.576638,7624.121203,9576.193725
159.551785,444.123565,7179.997637,-9422.974625
159.552095,5551.544565,13101.645173,-14709.033562
159.552405,888.247130,18357.107362,-5898.935335
159.552714,-3849.070898,6291.750507,-4290.134789
159.553024,3849.070898,8068.244768,-2221.676944
159.553334,-1036.288319,9844.739029,6588.421283
159.553643,-4293.194464,4071.132681,2834.553343
159.553953,-740.205942,11917.315666,1149.143247
159.554262,-888.247130,12361.439231,842.705048
159.554572,9844.739029,12213.398043,-11874.480219
159.554882,-370.102971,15766.386565,-12334.137518
159.555191,-7402.059420,12213.398043,4979.620737
159.555501,3701.029710,8956.491898,-3217.601092
159.555810,3701.029710,7031.956449,-11108.384721
159.556120,-4071.132681,9178.553681,2451.505594
159.556430,-1628.453072,8512.368333,7431.126331
159.556739,6587.832884,-296.082377,-2834.553343
159.557049,7179.997637,5329.482782,-3370.820191
159.557359,-3034.844362,10510.924376,7431.126331
159.557668,-4515.256246,5107.421000,7431.126331
159.557978,5921.647536,13397.727550,-7660.954980
159.558287,2738.761985,14285.974681,-9346.365076
159.558597,-814.226536,14952.160028,-2681.334243
159.558907,-6291.750507,20207.622217,-2834.553343
159.559216,-3552.988522,13619.789333,-4596.572988
159.559526,10214.842000,8364.327145,-11261.603821
159.559836,-1332.370696,12213.398043,-7201.297681
159.560145,-6365.771101,8808.450710,6052.154434
159.560455,4885.359217,5921.647536,2834.553343
159.560764,5773.606348,5477.523971,-9346.365076
159.561074,-1924.535449,6217.729913,4826.401637
159.561384,-3478.967927,4663.297435,10418.898773
159.561693,-592.164754,666.185348,-1072.533697
159.562003,2886.803174,10436.903782,-11491.432470
159.562312,1332.370696,11325.150913,-6971.469032
159.562622,-2368.659014,10436.903782,-1685.410096
159.562932,-2664.741391,10732.986159,2298.286494
159.563241,-740.205942,8068.244768,1838.629195
159.563551,1628.453072,6735.874072,-5745.716235
159.563861,-2664.741391,6957.935855,-612.876398
159.564170,-4145.153275,9030.512492,5132.839837
159.564480,2368.659014,12953.603985,-3140.991542
159.564789,2220.617826,13397.727550,-9269.755526
159.565099,-2146.597232,14359.995275,-4979.620737
159.565409,-222.061783,10881.027347,-4366.744339
159.565718,-0.000000,7772.162391,-9039.926876
159.566028,1554.432478,6439.791695,-4290.134789
159.566338,-1332.370696,6735.874072,5362.668486
159.566647,1628.453072,1332.370696,7201.297681
159.566957,-0.000000,2146.597232,8963.317327
159.567266,-2368.659014,4145.153275,4903.011187
159.567576,6735.874072,7772.162391,-7354.516781
159.567886,-1258.350101,11991.336260,-7967.393179
159.568195,-1776.494261,10510.924376,1378.971896
159.568505,4071.132681,17394.839637,-4213.525239
159.568814,444.123565,11473.192101,-6818.249932
159.569124,-4367.215058,13323.706956,5515.887586
159.569434,-8290.306550,11769.274478,9959.241474
159.569743,-814.226536,7179.997637,-995.924147
159.570053,7624.121203,13323.706956,-10725.336972
159.570363,-666.185348,13471.748144,-6435.202183
159.570672,-1850.514855,8734.430116,0.000000
159.570982,-6291.750507,9622.677246,1302.362347
159.571291,-1332.370696,7772.162391,1302.362347
159.571601,5699.585753,9104.533087,-4519.963438
159.571911,3775.050304,8882.471304,-4903.011187
159.572220,-2072.576638,-222.061783,7048.078582
159.572530,3404.947333,7328.038826,9499.584175
159.572840,1850.514855,3701.029710,1225.752797
159.573149,-814.226536,3997.112087,-1149.143247
159.573459,5699.585753,11399.171507,459.657299
159.573768,-2220.617826,4071.132681,-11338.213370
159.574078,4811.338623,14063.912898,-5362.668486
159.574388,-2368.659014,18727.210333,4136.915689
159.574697,-2738.761985,12657.521608,2681.334243
159.575007,-1258.350101,15988.448347,-4136.915689
159.575316,2294.638420,15174.221811,-8503.660028
159.575626,2886.803174,13101.645173,-10342.289223
159.575936,-1258.350101,11103.089130,-2068.457845
159.576245,1702.473667,11473.192101,5286.058936
159.576555,9030.512492,6661.853478,-1378.971896
159.576865,-2368.659014,1332.370696,4213.525239
159.577174,-9474.636058,1924.535449,13406.671215
159.577484,666.185348,2590.720797,1532.190996
159.577794,8364.327145,4811.338623,-18003.244203
159.578103,3182.885551,15692.365970,-13176.842566
159.578413,3404.947333,14952.160028,5515.887586
159.578723,-2886.803174,3775.050304,10265.679673
159.579032,-888.247130,10807.006753,6435.202183
159.579342,-2146.597232,7031.956449,8580.269578
159.579652,-3552.988522,8882.471304,4060.306139
159.579961,1702.473667,21910.095883,-13559.890315
159.580271,2072.576638,12953.603985,-17237.148705
159.580581,1184.329507,14730.098246,-10648.727422
159.580890,-7328.038826,11695.253884,-2145.067394
159.581200,-1628.453072,9844.739029,4749.792088
159.581510,4515.256246,4737.318029,4903.011187
159.581819,-518.144159,7994.224174,2451.505594
159.582129,-1406.391290,4885.359217,8503.660028
159.582439,4219.173869,1554.432478,3907.087040
159.582748,3404.947333,666.185348,-6971.469032
159.583058,3256.906145,7328.038826,-3830.477490
159.583368,-5329.482782,9474.636058,3064.381992
159.583677,-6291.750507,6217.729913,-536.266849
159.583987,7698.141797,15692.365970,-7890.783629
159.584297,-1258.350101,14211.954086,-8197.221829
159.584606,-3182.885551,11843.295072,-612.876398
159.584916,-1628.453072,13915.871710,4519.963438
159.585226,-3108.864956,12435.459826,153.219100
159.585536,4145.153275,12879.583391,-6358.592633
159.585845,1998.556043,10584.944971,-5898.935335
159.586155,-0.000000,8364.327145,-842.705048
159.586465,1702.473667,10584.944971,1608.800546
159.586774,1702.473667,5477.523971,76.609550
159.587084,-7105.977043,5255.462188,4826.401637
159.587394,-2960.823768,6365.771101,4673.182538
159.587703,-814.226536,888.247130,-4979.620737
159.588013,7402.059420,8734.430116,-4749.792088
159.588323,444.123565,11843.295072,-1915.238745
159.588632,-74.020594,6439.791695,8810.098227
159.588942,-0.000000,12213.398043,8350.440928
159.589252,-1036.288319,11547.212695,1149.143247
159.589561,-4663.297435,8438.347739,-306.438199
159.589871,-2294.638420,15692.365970,-2528.115143
159.590181,1998.556043,13397.727550,-14555.814462
159.590490,7105.977043,14285.974681,-13253.452115
159.590800,-4219.173869,11917.315666,1532.190996
159.591110,-4515.256246,10066.800811,7277.907231
159.591419,-1924.535449,8808.450710,2987.772442
159.591729,1406.391290,6143.709319,-1225.752797
159.592039,2368.659014,4737.318029,-3677.258390
159.592348,1628.453072,2590.720797,-689.485948
159.592658,740.205942,4293.194464,4213.525239
159.592968,-1924.535449,4811.338623,2374.896044
159.593277,2960.823768,5477.523971,383.047749
159.593587,1406.391290,7179.997637,-766.095498
159.593897,666.185348,11325.150913,612.876398
159.594206,3849.070898,13841.851115,919.314598
159.594516,962.267725,14804.118840,1532.190996
159.594826,-3108.864956,17468.860231,-2604.724693
159.595136,-5329.482782,10510.924376,-11338.213370
159.595445,3552.988522,14211.954086,-11721.261119
159.595755,-3330.926739,11029.068536,-9039.926876
159.596065,-592.164754,11325.150913,-995.924147
159.596374,9474.636058,13841.851115,3217.601092
159.596684,2072.576638,2960.823768,4903.011187
159.596994,-1850.514855,3923.091493,14555.814462
159.597303,-2886.803174,1406.391290,13866.328514
159.597613,-444.123565,1110.308913,-2221.676944
159.597923,5181.441594,12065.356855,-12027.699319
159.598232,-666.185348,12065.356855,-11184.994271
159.598542,1924.535449,9622.677246,-6894.859482
159.598852,-5181.441594,14211.954086,-995.924147
159.599161,-5699.585753,9992.780217,5056.230287
159.599471,1036.288319,11991.336260,689.485948
159.599781,2072.576638,8660.409521,-3524.039291
159.600090,-0.000000,13323.706956,-2681.334243
159.600400,6513.812290,12065.356855,-1991.848295
159.600710,2220.617826,5551.544565,-4443.353888
159.601019,2146.597232,10807.006753,-919.314598
159.601329,-3182.885551,9400.615463,10648.727422
159.601639,-3330.926739,8438.347739,7584.345430
159.601948,-296.082377,10214.842000,-6511.811733
159.602258,2960.823768,7698.141797,-11874.480219
159.602568,1184.329507,11399.171507,-5515.887586
159.602877,1184.329507,7772.162391,-5362.668486
159.603187,222.061783,7624.121203,-689.485948
159.603497,-2664.741391,9326.594869,7584.345430
159.603806,-2812.782580,5995.668130,9806.022374
159.604116,-1554.432478,15248.242405,1455.581446
159.604426,5329.482782,17542.880825,-5132.839837
159.604736,-148.041188,8586.388927,-8656.879127
159.605045,-1110.308913,9918.759623,-6894.859482
159.605355,-1110.308913,9326.594869,2145.067394
159.605665,-2368.659014,5477.523971,1838.629195
159.605974,-2442.679609,6735.874072,-612.876398
159.606284,-1628.453072,6069.688724,-1532.190996
159.606594,-1998.556043,3627.009116,-3600.648841
159.606903,1184.329507,9104.533087,-1608.800546
159.607213,-1628.453072,1406.391290,2528.115143
159.607523,1850.514855,7698.141797,2145.067394
159.607832,-3997.112087,10955.047942,-536.266849
159.608142,-74.020594,7254.018232,-3140.991542
159.608452,3701.029710,13693.809927,-3830.477490
159.608761,-3256.906145,9770.718434,-536.266849
159.609071,-3256.906145,14211.954086,2987.772442
159.609381,4737.318029,12879.583391,-4443.353888
159.609690,-370.102971,9622.677246,-10265.679673
159.610000,-74.020594,12139.377449,-1072.533697
159.610310,-2442.679609,10955.047942,2068.457845
159.610619,4959.379811,8216.285956,-9269.755526
159.610929,2072.576638,7994.224174,-1685.410096
159.611239,-1850.514855,7328.038826,10495.508323
159.611548,-1110.308913,4885.359217,5898.935335
159.611858,3478.967927,8216.285956,-2221.676944
159.612168,1702.473667,7328.038826,-6818.249932
159.612477,1776.494261,11991.336260,-4979.620737
159.612787,518.144159,8364.327145,-4826.401637
159.613097,-5329.482782,11325.150913,229.828649
159.613407,3034.844362,11547.212695,383.047749
159.613716,4071.132681,6069.688724,-766.095498
159.614026,-3478.967927,11769.274478,4749.792088
159.614336,888.247130,8808.450710,9422.974625
159.614645,-2812.782580,8734.430116,-4366.744339
159.614955,-74.020594,11917.315666,-12027.699319
159.615265,-2886.803174,8808.450710,-7584.345430
159.615574,3182.885551,13693.809927,-10648.727422
159.615884,-370.102971,10140.821405,-7201.297681
159.616194,-2886.803174,7994.224174,8197.221829
159.616503,5625.565159,4367.215058,5822.325785
159.616813,2738.761985,-296.082377,3370.820191
159.617123,-2294.638420,2146.597232,11414.822920
159.617432,-2516.700203,4441.235652,8044.002729
159.617742,740.205942,6069.688724,-7890.783629
159.618052,5329.482782,17838.963202,-12947.013916
159.618361,592.164754,13545.768739,-6665.030833
159.618671,-6513.812290,16210.510130,-2145.067394
159.618981,-370.102971,20429.683999,-3217.601092
159.619290,2220.617826,12879.583391,-1685.410096
159.619600,-4293.194464,10140.821405,-229.828649
159.619910,-2072.576638,11991.336260,3294.210641
159.620219,-962.267725,6069.688724,-383.047749
159.620529,5033.400406,5847.626942,-7354.516781
159.620839,-2812.782580,9326.594869,-5745.716235
159.621148,-4737.318029,6069.688724,5745.716235
159.621458,5403.503377,9770.718434,-383.047749
159.621768,3034.844362,4441.235652,-7584.345430
159.622077,-5995.668130,7105.977043,5362.668486
159.622387,-0.000000,6809.894666,9959.241474
159.622697,-2294.638420,814.226536,-4673.182538
159.623007,2960.823768,8290.306550,-4366.744339
159.623316,-4145.153275,8882.471304,2681.334243
159.623626,-3478.967927,11547.212695,-4673.182538
159.623936,1184.329507,17024.736666,-5898.935335
159.624245,-2072.576638,16580.613101,-4903.011187
159.624555,2146.597232,15988.448347,-5745.716235
159.624865,-5107.421000,15100.201217,-2145.067394
159.625174,-3256.906145,8438.347739,3370.820191
159.625484,7179.997637,9696.697840,-5822.325785
159.625794,6661.853478,3701.029710,-8273.831378
159.626103,-8512.368333,5773.606348,9116.536426
159.626413,1628.453072,10288.862594,9806.022374
159.626723,7105.977043,-222.061783,-6281.983084
159.627032,-0.000000,6069.688724,-3524.039291
159.627342,-6661.853478,7994.224174,10801.946522
159.627652,-3627.009116,7179.997637,-689.485948
159.627961,7179.997637,14211.954086,-14938.862211
159.628271,-592.164754,11103.089130,-6128.763984
159.628581,-2072.576638,14285.974681,153.219100
159.628890,-3627.009116,13323.706956,766.095498
159.629200,1332.370696,14730.098246,-383.047749
159.629510,2368.659014,14804.118840,383.047749
159.629819,-2738.761985,11177.109724,-3370.820191
159.630129,-3627.009116,9400.615463,-2681.334243
159.630439,814.226536,5773.606348,-2604.724693
159.630748,962.267725,3034.844362,-4519.963438
159.631058,-5181.441594,6661.853478,-1455.581446
159.631368,3108.864956,8438.347739,-1149.143247
159.631677,1184.329507,1850.514855,-5209.449386
159.631987,962.267725,4737.318029,383.047749
159.632297,-1998.556043,7772.162391,6665.030833
159.632607,4737.318029,8142.265362,1991.848295
159.632916,1332.370696,9030.512492,-1302.362347
159.633226,3478.967927,11399.171507,766.095498
159.633536,-148.041188,9918.759623,-153.219100
159.633845,-5107.421000,11843.295072,-3524.039291
159.634155,518.144159,15100.201217,-8044.002729
159.634465,5699.585753,16136.489536,-11108.384721
159.634774,-4589.276840,14137.933492,-4903.011187
159.635084,-9696.697840,19023.292709,2528.115143
159.635394,3330.926739,15322.262999,-1838.629195
159.635703,6217.729913,7550.100608,-14019.547613
159.636013,1850.514855,8068.244768,-3294.210641
159.636323,-1184.329507,1332.370696,10035.851024
159.636632,5921.647536,888.247130,2757.943793
159.636942,518.144159,2812.782580,1685.410096
159.637252,-2368.659014,3108.864956,12487.356617
159.637561,1406.391290,8216.285956,3753.867940
159.637871,296.082377,7328.038826,-11031.775171
159.638181,1776.494261,11251.130318,-8733.488677
159.638490,-814.226536,15544.324782,-3294.210641
159.638800,-3256.906145,11473.192101,-4596.572988
159.639110,-2368.659014,18283.086767,306.438199
159.639419,-2146.597232,19985.560434,1838.629195
159.639729,-1406.391290,10362.883188,-5439.278036
159.640039,740.205942,11547.212695,-5669.106685
159.640348,-2294.638420,8734.430116,1685.410096
159.640658,-518.144159,7476.080014,-612.876398
159.640968,2294.638420,6587.832884,-4519.963438
159.641277,-1554.432478,8142.265362,1225.752797
159.641587,1554.432478,7476.080014,-1225.752797
159.641897,1258.350101,1776.494261,-459.657299
159.642207,-1776.494261,4219.173869,2604.724693
159.642516,-370.102971,6217.729913,5362.668486
159.642826,-1998.556043,7550.100608,-2451.505594
159.643136,5625.565159,9326.594869,-9806.022374
159.643445,1110.308913,10584.944971,-5822.325785
159.643755,-5699.585753,9696.697840,4060.306139
159.644065,-0.000000,14211.954086,1532.190996
159.644374,5551.544565,16654.633695,-6128.763984
159.644684,-1776.494261,13027.624579,-3294.210641
159.644994,-9474.636058,13397.727550,4903.011187
159.645303,222.061783,13175.665768,-1915.238745
159.645613,8364.327145,11621.233289,-16624.272307
159.645923,-2960.823768,8808.450710,-4749.792088
159.646232,-5995.668130,8290.306550,8810.098227
159.646542,5995.668130,4293.194464,536.266849
159.646852,4367.215058,-1184.329507,-3447.429741
159.647161,-5403.503377,3849.070898,11184.994271
159.647471,-4441.235652,6143.709319,12027.699319
159.647781,-2146.597232,7105.977043,-4749.792088
159.648090,6883.915261,8586.388927,-13330.061665
159.648400,1406.391290,12805.562797,-10418.898773
159.648710,-4959.379811,12361.439231,306.438199
159.649019,-4515.256246,16580.613101,4596.572988
159.649329,740.205942,14063.912898,-3830.477490
159.649639,1110.308913,10510.924376,-7660.954980
159.649948,-3256.906145,9400.615463,-919.314598
159.650258,-1184.329507,5329.482782,842.705048
159.650568,7846.182985,7402.059420,-10955.165621
159.650877,1702.473667,6365.771101,-6128.763984
159.651187,-3108.864956,9844.739029,11874.480219
159.651497,1480.411884,4811.338623,7124.688131
159.651807,-2294.638420,3701.029710,-3830.477490
159.652116,1184.329507,11029.068536,-1685.410096
159.652426,4515.256246,6217.729913,-7201.297681
159.652736,-2072.576638,5329.482782,-7507.735880
159.653045,-3256.906145,10881.027347,5286.058936
159.653355,-1184.329507,10955.047942,-536.266849
159.653665,4589.276840,14434.015869,-13406.671215
159.653974,-592.164754,18135.045579,-1915.238745
159.654284,-2368.659014,10584.944971,7277.907231
159.654594,4589.276840,9030.512492,-1302.362347
159.654903,2368.659014,13471.748144,-3600.648841
159.655213,-8660.409521,9770.718434,2451.505594
159.655523,5107.421000,8142.265362,-7354.516781
159.655832,2442.679609,-0.000000,-14325.985813
159.656142,-8068.244768,5477.523971,2528.115143
159.656452,296.082377,9622.677246,8886.707777
159.656761,5625.565159,3997.112087,-6588.421283
159.657071,-3627.009116,9400.615463,3370.820191
159.657381,-518.144159,6957.935855,9269.755526
159.657690,1850.514855,5181.441594,-7584.345430
159.658000,1628.453072,5773.606348,-9116.536426
159.658310,-1480.411884,11251.130318,4673.182538
159.658619,-1184.329507,14952.160028,1378.971896
159.658929,-0.000000,13767.830521,-4903.011187
159.659239,-1998.556043,15692.365970,-1378.971896
159.659548,-4589.276840,14656.077652,-1608.800546
159.659858,2664.741391,13693.809927,-8120.612279
159.660168,-4737.318029,12805.562797,-6894.859482
159.660478,6365.771101,11399.171507,-6894.859482
159.660787,2738.761985,4589.276840,-6894.859482
159.661097,-7031.956449,7994.224174,4596.572988
159.661407,888.247130,7402.059420,9652.803275
159.661716,6883.915261,-222.061783,-1838.629195
159.662026,2072.576638,4811.338623,-1991.848295
159.662336,370.102971,7476.080014,6588.421283
159.662645,-296.082377,5921.647536,-1608.800546
159.662955,-2072.576638,8438.347739,-4673.182538
159.663265,2664.741391,12879.583391,-1532.190996
159.663574,-2960.823768,11843.295072,-5975.544884
159.663884,-4811.338623,14656.077652,-3983.696590
159.664194,-2664.741391,16210.510130,-383.047749
159.664503,2146.597232,16358.551318,-9422.974625
159.664813,4663.297435,14878.139434,-11797.870669
159.665123,-8734.430116,16284.530724,-766.095498
159.665432,-518.144159,9474.636058,2221.676944
159.665742,7254.018232,2368.659014,-3294.210641
159.666052,1406.391290,7550.100608,1608.800546
159.666361,-666.185348,2812.782580,9729.412825
159.666671,5403.503377,1406.391290,5669.106685
159.666981,-4885.359217,6365.771101,1915.238745
159.667290,2294.638420,8660.409521,-459.657299
159.667600,4885.359217,11769.274478,-9116.536426
159.667910,-6143.709319,6809.894666,-9193.145976
159.668219,-1036.288319,11621.233289,229.828649
159.668529,-148.041188,10510.924376,1225.752797
159.668839,2738.761985,9918.759623,-2298.286494
159.669148,-1924.535449,16284.530724,6052.154434
159.669458,-1332.370696,11473.192101,4136.915689
159.669768,-740.205942,8290.306550,-3753.867940
159.670078,962.267725,14804.118840,-7814.174080
159.670387,1110.308913,15544.324782,-7277.907231
159.670697,2442.679609,10807.006753,-5669.106685
159.671007,-4811.338623,7328.038826,766.095498
159.671316,444.123565,4811.338623,1685.410096
159.671626,3627.009116,1036.288319,-842.705048
159.671936,222.061783,1628.453072,3370.820191
159.672245,-2812.782580,-1850.514855,9346.365076
159.672555,2664.741391,3701.029710,2145.067394
159.672865,2294.638420,6661.853478,-3907.087040
159.673174,1628.453072,12879.583391,-1685.410096
159.673484,4145.153275,14730.098246,-153.219100
159.673794,-4367.215058,11103.089130,-4443.353888
159.674103,-4293.194464,19245.354492,-383.047749
159.674413,-0.000000,16136.489536,-2834.553343
159.674723,1258.350101,12287.418637,-9729.412825
159.675032,-3849.070898,14137.933492,-9039.926876
159.675342,444.123565,12361.439231,-3600.648841
159.675652,3997.112087,10584.944971,-5745.716235
159.675961,2516.700203,8586.388927,459.657299
159.676271,-1998.556043,6661.853478,12334.137518
159.676581,4885.359217,4589.276840,10495.508323
159.676890,5921.647536,2664.741391,-1915.238745
159.677200,-1184.329507,1110.308913,1455.581446
159.677510,1184.329507,2368.659014,3370.820191
159.677819,-740.205942,5551.544565,-5439.278036
159.678129,1110.308913,13545.768739,-6665.030833
159.678439,-1406.391290,15766.386565,1302.362347
159.678748,-4145.153275,14434.015869,-2068.457845
159.679058,-4959.379811,16728.654289,-3983.696590
159.679368,1406.391290,15692.365970,-6052.154434
159.679681,4145.153275,14508.036463,-12334.137518
159.679991,2516.700203,9844.739029,-7277.907231
159.680300,-2368.659014,6735.874072,5822.325785
159.680610,666.185348,8142.265362,3830.477490
159.680920,2516.700203,2590.720797,4366.744339
159.681229,-0.000000,4737.318029,9499.584175
159.681539,1036.288319,6735.874072,1608.800546
159.681848,1110.308913,2072.576638,-8427.050478
159.682158,-1702.473667,7328.038826,-3217.601092
159.682468,3552.988522,8660.409521,-5132.839837
159.682777,2886.803174,6069.688724,-7737.564530
159.683087,-3478.967927,13619.789333,2604.724693
159.683396,-3849.070898,9844.739029,11031.775171
159.683706,1554.432478,11769.274478,1455.581446
159.684016,1036.288319,14582.057057,-4903.011187
159.684325,1184.329507,13027.624579,-3753.867940
159.684635,-2072.576638,15988.448347,-6971.469032
159.684944,-1480.411884,12065.356855,-7431.126331
159.685254,-1184.329507,13471.748144,-3830.477490
159.685563,1628.453072,14656.077652,-5439.278036
159.685873,814.226536,2738.761985,-4290.134789
159.686183,740.205942,-0.000000,3677.258390
159.686492,3701.029710,814.226536,9806.022374
159.686802,1850.514855,-1184.329507,7737.564530
159.687111,-222.061783,1924.535449,8273.831378
159.687421,1406.391290,6587.832884,3294.210641
159.687731,888.247130,8438.347739,-4903.011187
159.688040,3627.009116,14730.098246,-10418.898773
159.688350,2368.659014,18061.024985,-9652.803275
159.688659,-2590.720797,15840.407159,-2298.286494
159.688969,-7920.203579,21614.013506,3830.477490
159.689279,1628.453072,15396.283594,-1915.238745
159.689588,1628.453072,15988.448347,-9193.145976
159.689898,3849.070898,7994.224174,-1991.848295
159.690207,-3775.050304,7031.956449,2911.162892
159.690517,4071.132681,7179.997637,-3600.648841
159.690827,3034.844362,-370.102971,995.924147
159.691136,-2516.700203,9548.656652,8963.317327
159.691446,1776.494261,2368.659014,5439.278036
159.691755,3627.009116,3034.844362,-3753.867940
159.692065,1628.453072,7624.121203,-4136.915689
159.692374,-3256.906145,9474.636058,0.000000
159.692684,3404.947333,10214.842000,-1378.971896
159.692994,1036.288319,8216.285956,-4903.011187
159.693303,-2664.741391,15248.242405,459.657299
159.693613,-3330.926739,15026.180623,766.095498
159.693922,1184.329507,15840.407159,-5209.449386
159.694232,-1258.350101,14878.139434,-3983.696590
159.694542,3627.009116,15766.386565,-4519.963438
159.694851,-444.123565,7920.203579,-6741.640382
159.695161,-2368.659014,11399.171507,1608.800546
159.695470,4145.153275,9918.759623,689.485948
159.695780,-0.000000,3330.926739,-5669.106685
159.696090,-1850.514855,7624.121203,3370.820191
159.696399,1110.308913,5033.400406,6128.763984
159.696709,4515.256246,814.226536,-7507.735880
159.697018,962.267725,5255.462188,306.438199
159.697328,-1776.494261,7105.977043,9652.803275
159.697638,-1998.556043,8956.491898,1072.533697
159.697947,3775.050304,12139.377449,-4596.572988
159.698257,2368.659014,13841.851115,-4213.525239
159.698566,888.247130,16950.716072,-5975.544884
159.698876,1036.288319,16802.674883,-5822.325785
159.699185,-4293.194464,16136.489536,2298.286494
159.699495,-888.247130,15100.201217,1378.971896
159.699805,148.041188,9770.718434,-4213.525239
159.700114,-2294.638420,12361.439231,-1762.019645
159.700424,3404.947333,6735.874072,-3677.258390
159.700733,1332.370696,2664.741391,-4443.353888
159.701043,-4071.132681,4737.318029,2834.553343
159.701353,2146.597232,7105.977043,6511.811733
159.701662,4515.256246,6365.771101,-5286.058936
159.701972,3701.029710,5403.503377,-3753.867940
159.702281,-2442.679609,3627.009116,8886.707777
159.702591,-0.000000,6513.812290,1455.581446
159.702901,4515.256246,5773.606348,-5975.544884
159.703210,-518.144159,12139.377449,4903.011187
159.703520,-4219.173869,14063.912898,4903.011187
159.703829,-0.000000,12953.603985,-6435.202183
159.704139,-740.205942,18061.024985,-6205.373534
159.704449,-3701.029710,18579.169144,-6971.469032
159.704758,5847.626942,13767.830521,-14172.766713
159.705068,-6661.853478,11325.150913,-2374.896044
159.705377,-74.020594,14804.118840,3217.601092
159.705687,6439.791695,9252.574275,-3524.039291
159.705996,1628.453072,5995.668130,1991.848295
159.706306,592.164754,1776.494261,13406.671215
159.706616,444.123565,2294.638420,4749.792088
159.706925,8290.306550,2146.597232,-2528.115143
159.707235,-3701.029710,7254.018232,5132.839837
159.707544,-1332.370696,9844.739029,4826.401637
159.707854,222.061783,11621.233289,-10955.165621
159.708164,296.082377,17098.757260,-10418.898773
159.708473,592.164754,16062.468941,-5975.544884
159.708783,-2590.720797,11325.150913,-7048.078582
159.709092,-3627.009116,15322.262999,459.657299
159.709402,3627.009116,14063.912898,4213.525239
159.709712,1184.329507,12287.418637,229.828649
159.710021,-222.061783,11843.295072,229.828649
159.710331,2960.823768,7846.182985,-1302.362347
159.710640,2072.576638,4811.338623,-9193.145976
159.710950,-3849.070898,5403.503377,-1685.410096
159.711259,-1628.453072,6439.791695,5592.497135
159.711569,4737.318029,6735.874072,-2757.943793
159.711879,3701.029710,3923.091493,-1685.410096
159.712188,-4145.153275,5403.503377,10342.289223
159.712498,1850.514855,2738.761985,3753.867940
159.712807,444.123565,2664.741391,-5592.497135
159.713117,444.123565,13989.892304,-995.924147
159.713427,-0.000000,11769.274478,-2451.505594
159.713736,-2220.617826,13101.645173,-5745.716235
159.714046,-888.247130,21317.931130,-2757.943793
159.714355,-2368.659014,18357.107362,-4290.134789
159.714665,7402.059420,17320.819043,-10418.898773
159.714975,-3182.885551,8882.471304,-919.314598
159.715284,-3627.009116,6957.935855,7048.078582
159.715594,6735.874072,5699.585753,-1455.581446
159.715903,814.226536,3923.091493,-4136.915689
159.716213,592.164754,3182.885551,10189.070123
159.716523,1628.453072,4219.173869,5592.497135
159.716832,-962.267725,3849.070898,-5515.887586
159.717142,-1406.391290,8956.491898,1532.190996
159.717451,740.205942,9918.759623,-1072.533697
159.717761,-592.164754,7476.080014,-9576.193725
159.718070,-3256.906145,15618.345376,-3140.991542
159.718380,296.082377,12879.583391,-842.705048
159.718690,1036.288319,12139.377449,-4903.011187
159.718999,1406.391290,17838.963202,1915.238745
159.719309,-2146.597232,9474.636058,7048.078582
159.719618,1406.391290,12361.439231,-3677.258390
159.719928,-5033.400406,7550.100608,-4213.525239
159.720238,1332.370696,9918.759623,-1302.362347
159.720547,3997.112087,7179.997637,-8503.660028
159.720857,-4515.256246,4737.318029,-10112.460574
159.721166,-6365.771101,6883.915261,6128.763984
159.721476,-370.102971,7846.182985,3064.381992
159.721786,4737.318029,5033.400406,-7431.126331
159.722095,1998.556043,8512.368333,995.924147
159.722405,888.247130,5773.606348,4366.744339
159.722714,1332.370696,2590.720797,-229.828649
159.723024,-3627.009116,9992.780217,4903.011187
159.723334,-148.041188,14285.974681,2298.286494
159.723643,6883.915261,18135.045579,-13176.842566
159.723953,3997.112087,10140.821405,-9193.145976
159.724262,-2812.782580,12213.398043,5822.325785
159.724572,-5403.503377,12731.542202,4060.306139
159.724881,-4145.153275,12879.583391,-306.438199
159.725191,-2146.597232,14359.995275,2068.457845
159.725501,3330.926739,8586.388927,-11338.213370
159.725810,3034.844362,518.144159,-15704.957709
159.726120,-6735.874072,6587.832884,4366.744339
159.726429,666.185348,8142.265362,8580.269578
159.726739,1332.370696,2738.761985,3983.696590
159.727049,74.020594,7846.182985,13559.890315
159.727358,-2072.576638,6883.915261,10572.117872
159.727668,7698.141797,1554.432478,-10112.460574
159.727977,-222.061783,4515.256246,-8733.488677
159.728287,-5181.441594,9252.574275,5898.935335
159.728597,-3256.906145,15914.427753,1762.019645
159.728906,-2220.617826,16284.530724,-8197.221829
159.729216,-8142.265362,22798.343014,-5132.839837
159.729525,4885.359217,14137.933492,-8044.002729
159.729835,7105.977043,9622.677246,-17313.758255
159.730144,-3552.988522,12805.562797,-2757.943793
159.730454,-518.144159,7031.956449,11568.042020
159.730764,4219.173869,-296.082377,7048.078582
159.731073,1480.411884,5477.523971,10495.508323
159.731383,3997.112087,7402.059420,10342.289223
159.731692,444.123565,3552.988522,-5056.230287
159.732002,1998.556043,4737.318029,-10112.460574
159.732312,-0.000000,12657.521608,-7048.078582
159.732621,-814.226536,16358.551318,-10572.117872
159.732931,-518.144159,12509.480420,-5822.325785
159.733240,-4885.359217,14730.098246,2834.553343
159.733550,-1184.329507,12213.398043,-1072.533697
159.733860,7920.203579,5477.523971,-5822.325785
159.734169,-1258.350101,4737.318029,2451.505594
159.734479,-1998.556043,8586.388927,7584.345430
159.734788,-592.164754,10881.027347,0.000000
159.735098,-740.205942,16580.613101,0.000000
159.735408,1406.391290,15396.283594,-7201.297681
159.735717,2294.638420,7698.141797,-14479.204912
159.736027,-4737.318029,2294.638420,-3677.258390
159.736336,222.061783,5403.503377,3370.820191
159.736646,-3330.926739,6291.750507,-1532.190996
159.736955,1332.370696,3849.070898,5822.325785
159.737265,-1036.288319,8512.368333,7354.516781
159.737575,2220.617826,9844.739029,-3524.039291
159.737884,3404.947333,7254.018232,-12027.699319
159.738194,-5551.544565,13915.871710,-4596.572988
159.738503,-0.000000,11251.130318,-6435.202183
159.738813,5773.606348,15100.201217,-13330.061665
159.739123,-7920.203579,14508.036463,2298.286494
159.739432,-666.185348,14878.139434,13483.280765
159.739742,5107.421000,9178.553681,-6205.373534
159.740051,296.082377,6513.812290,-2681.334243
159.740361,-3701.029710,5477.523971,5056.230287
159.740671,1480.411884,5921.647536,-7354.516781
159.740980,296.082377,6661.853478,-7277.907231
159.741290,4441.235652,13989.892304,2298.286494
159.741599,-7698.141797,13767.830521,-383.047749
159.741909,4293.194464,9400.615463,-6281.983084
159.742219,592.164754,6069.688724,-5362.668486
159.742528,148.041188,3330.926739,766.095498
159.742838,-2294.638420,3034.844362,4213.525239
159.743147,-5551.544565,9622.677246,3294.210641
159.743457,5033.400406,16728.654289,-1149.143247
159.743766,5995.668130,14359.995275,-6205.373534
159.744076,-3775.050304,14137.933492,0.000000
159.744386,-2294.638420,17172.777854,-2911.162892
159.744695,2664.741391,7476.080014,-14096.157163
159.745005,-2886.803174,4071.132681,-3140.991542
159.745314,444.123565,10066.800811,9806.022374
159.745624,2960.823768,8216.285956,-2987.772442
159.745934,1480.411884,10584.944971,-2528.115143
159.746243,-2368.659014,12731.542202,7201.297681
159.746553,3923.091493,5255.462188,-2911.162892
159.746862,4811.338623,8512.368333,-9269.755526
159.747172,-5699.585753,11399.171507,1302.362347
159.747482,-666.185348,12361.439231,3524.039291
159.747791,2516.700203,9770.718434,-3600.648841
159.748101,-1776.494261,5255.462188,-2145.067394
159.748410,3330.926739,11251.130318,459.657299
159.748720,2294.638420,10066.800811,-3907.087040
159.749029,-4737.318029,5551.544565,6971.469032
159.749339,3404.947333,14952.160028,7660.954980
159.749649,1406.391290,13471.748144,-11338.213370
159.749958,-3552.988522,8068.244768,-7660.954980
159.750268,-4589.276840,13323.706956,3907.087040
159.750577,3997.112087,5995.668130,-12257.527968
159.750887,666.185348,8734.430116,-11491.432470
159.751197,-5699.585753,12509.480420,10572.117872
159.751506,222.061783,5921.647536,5439.278036
159.751816,7105.977043,10584.944971,-7431.126331
159.752125,-518.144159,7105.977043,153.219100
159.752435,-2664.741391,3330.926739,5822.325785
159.752745,5699.585753,4293.194464,-3983.696590
159.753054,-5625.565159,9474.636058,-2221.676944
159.753364,-222.061783,14063.912898,4060.306139
159.753673,2072.576638,16654.633695,-9116.536426
159.753983,2146.597232,7254.018232,-11797.870669
159.754293,-2294.638420,11843.295072,3370.820191
159.754602,-7772.162391,11769.274478,6588.421283
159.754912,-666.185348,13397.727550,-2834.553343
159.755221,3108.864956,17172.777854,-8427.050478
159.755531,4663.297435,11547.212695,-9806.022374
159.755840,1776.494261,10066.800811,-2528.115143
159.756150,-0.000000,12805.562797,1915.238745
159.756460,2146.597232,1776.494261,919.314598
159.756769,296.082377,2442.679609,2528.115143
159.757079,-8290.306550,3627.009116,9806.022374
159.757388,814.226536,6217.729913,153.219100
159.757698,2368.659014,6143.709319,-10342.289223
159.758008,3627.009116,2738.761985,-5515.887586
159.758317,-1776.494261,7846.182985,2528.115143
159.758627,-6735.874072,13397.727550,459.657299
159.758936,-7105.977043,12213.398043,1685.410096
159.759246,148.041188,18801.230927,-1991.848295
159.759556,5625.565159,12435.459826,-18462.901502
159.759865,1258.350101,7920.203579,-12104.308868
159.760175,-5625.565159,14508.036463,5745.716235
159.760484,3182.885551,8956.491898,0.000000
159.760794,5033.400406,6513.812290,-2528.115143
159.761104,-7550.100608,7476.080014,14402.595362
159.761413,1702.473667,5773.606348,7354.516781
159.761723,9104.533087,8734.430116,-16394.443657
159.762032,-1332.370696,2886.803174,-9806.022374
159.762342,-5107.421000,6439.791695,7431.126331
159.762651,-3849.070898,6143.709319,995.924147
159.762961,222.061783,11843.295072,-7124.688131
159.763271,-962.267725,16802.674883,459.657299
159.763580,2368.659014,9918.759623,-5898.935335
159.763890,2294.638420,11399.171507,-11261.603821
159.764199,-2442.679609,14285.974681,306.438199
159.764509,222.061783,12509.480420,4213.525239
159.764819,1998.556043,6513.812290,-1991.848295
159.765128,-666.185348,14211.954086,2451.505594
159.765438,-1702.473667,9104.533087,3064.381992
159.765747,6735.874072,5329.482782,-7507.735880
159.766057,-5329.482782,3849.070898,-3447.429741
159.766367,-6217.729913,8956.491898,3907.087040
159.766676,4293.194464,6735.874072,-5209.449386
159.766986,740.205942,2072.576638,-6358.592633
159.767295,2442.679609,12953.603985,6588.421283
159.767605,-7846.182985,5995.668130,7431.126331
159.767915,6513.812290,8290.306550,-2834.553343
159.768224,-1184.329507,13619.789333,-3217.601092
159.768534,1702.473667,11695.253884,-2145.067394
159.768843,-1850.514855,9252.574275,-2911.162892
159.769153,-3552.988522,18949.272115,995.924147
159.769462,4515.256246,18505.148550,-2911.162892
159.769772,1998.556043,8586.388927,-8580.269578
159.770082,-592.164754,10066.800811,-383.047749
159.770391,-1850.514855,3478.967927,1915.238745
159.770701,3256.906145,6513.812290,-3524.039291
159.771010,-2368.659014,5033.400406,3753.867940
159.771320,444.123565,7624.121203,4903.011187
159.771630,4293.194464,7920.203579,-4979.620737
159.771939,2886.803174,3997.112087,-5209.449386
159.772249,1850.514855,5181.441594,5515.887586
159.772558,-3256.906145,5255.462188,6052.154434
159.772868,1036.288319,13693.809927,-612.876398
159.773178,2516.700203,17616.901420,842.705048
159.773487,3552.988522,14730.098246,-383.047749
159.773797,814.226536,13693.809927,-2681.334243
159.774106,-8660.409521,15396.283594,-2911.162892
159.774416,1110.308913,12435.459826,-8120.612279
159.774725,-1258.350101,9696.697840,-11491.432470
159.775035,-7328.038826,11621.233289,-76.609550
159.775345,592.164754,12583.501014,3677.258390
159.775654,4071.132681,11621.233289,-4136.915689
159.775964,444.123565,1554.432478,3524.039291
159.776273,-1184.329507,-1406.391290,11874.480219
159.776583,3404.947333,370.102971,1149.143247
159.776893,222.061783,3701.029710,-3524.039291
159.777202,-3478.967927,8882.471304,3294.210641
159.777512,4145.153275,13619.789333,-6358.592633
159.777821,6069.688724,9844.739029,-15475.129060
159.778131,-5625.565159,10881.027347,1149.143247
159.778441,-4959.379811,11769.274478,3753.867940
159.778750,2516.700203,14434.015869,-9882.631924
159.779060,-962.267725,8956.491898,-1608.800546
159.779369,1406.391290,11547.212695,4596.572988
159.779679,-74.020594,13249.686362,-3677.258390
159.779989,-1776.494261,13175.665768,-1455.581446
159.780298,-740.205942,10066.800811,5822.325785
159.780608,2664.741391,7402.059420,-9729.412825
159.780917,-3849.070898,9252.574275,-9806.022374
159.781227,-6883.915261,14137.933492,6971.469032
159.781536,3256.906145,6143.709319,-4673.182538
159.781846,8142.265362,1998.556043,-10955.165621
159.782155,-6513.812290,10066.800811,8733.488677
159.782465,-3034.844362,1628.453072,9806.022374
159.782774,6069.688724,5921.647536,-4290.134789
159.783084,3330.926739,9918.759623,2145.067394
159.783393,-2146.597232,11399.171507,6435.202183
159.783703,-740.205942,12065.356855,-2451.505594
159.784012,740.205942,9178.553681,-6128.763984
159.784322,-0.000000,15988.448347,-5898.935335
159.784631,1110.308913,16062.468941,-7354.516781
159.784941,-4367.215058,13693.809927,-1149.143247
159.785250,-3256.906145,15322.262999,-1991.848295
159.785560,3182.885551,7624.121203,-6281.983084
159.785869,1406.391290,7994.224174,-2451.505594
159.786179,-2590.720797,9844.739029,5132.839837
159.786488,5995.668130,3552.988522,306.438199
159.786798,6365.771101,1184.329507,-1991.848295
159.787107,-2294.638420,3552.988522,9652.803275
159.787417,-2664.741391,8142.265362,10112.460574
159.787726,3849.070898,7624.121203,-5745.716235
159.788036,-740.205942,5329.482782,-6435.202183
159.788345,-0.000000,15322.262999,-919.314598
159.788655,-6439.791695,11547.212695,-6971.469032
159.788964,-1332.370696,15914.427753,-8886.707777
159.789274,3701.029710,15766.386565,-3217.601092
159.789583,444.123565,15026.180623,-3600.648841
159.789893,-518.144159,10288.862594,4443.353888
159.790202,296.082377,10362.883188,6435.202183
159.790512,5551.544565,5477.523971,-306.438199
159.790821,592.164754,6291.750507,6128.763984
159.791131,-1036.288319,8438.347739,5898.935335
159.791440,-1776.494261,5255.462188,536.266849
159.791750,4737.318029,12435.459826,-4979.620737
159.792059,-2590.720797,9844.739029,-4749.792088
159.792369,962.267725,10732.986159,-2145.067394
159.792678,-0.000000,9992.780217,-3983.696590
159.792988,-2590.720797,6069.688724,-4596.572988
159.793297,222.061783,9548.656652,1762.019645
159.793607,-814.226536,11991.336260,2451.505594
159.793916,3478.967927,11103.089130,-2911.162892
159.794226,2146.597232,8290.306550,4749.792088
159.794535,2590.720797,5773.606348,6281.983084
159.794845,-5403.503377,11695.253884,3753.867940
159.795154,-5403.503377,15692.365970,536.266849
159.795464,3034.844362,12879.583391,-14479.204912
159.795773,4293.194464,8438.347739,-20991.016645
159.796083,-4737.318029,8364.327145,-2145.067394
159.796392,-5773.606348,11769.274478,3370.820191
159.796702,4145.153275,9178.553681,-5822.325785
159.797011,7031.956449,2738.761985,4903.011187
159.797321,-592.164754,4959.379811,15781.567259
159.797630,-1628.453072,4293.194464,6052.154434
159.797940,2442.679609,4367.215058,-7048.078582
159.798249,1480.411884,13175.665768,-3983.696590
159.798558,6513.812290,10288.862594,-11644.651570
159.798868,-1110.308913,10881.027347,-9652.803275
159.799177,-8290.306550,16654.633695,9039.926876
159.799487,-1776.494261,13989.892304,3524.039291
159.799796,4219.173869,9252.574275,-7890.783629
159.800106,-5551.544565,12435.459826,612.876398
159.800415,-1554.432478,7402.059420,306.438199
159.800725,5699.585753,9918.759623,-15781.567259
159.801034,2072.576638,7624.121203,-7660.954980
159.801344,-1480.411884,10881.027347,9499.584175
159.801653,148.041188,14211.954086,612.876398
159.801963,3923.091493,11547.212695,-306.438199
159.802272,5329.482782,10362.883188,6358.592633
159.802582,3997.112087,1702.473667,-995.924147
159.802891,-222.061783,1702.473667,-4673.182538
159.803201,-5329.482782,7105.977043,1378.971896
159.803510,-1628.453072,3701.029710,2528.115143
159.803820,-296.082377,14434.015869,-1991.848295
159.804129,-2738.761985,21762.054695,-1225.752797
159.804439,5033.400406,14211.954086,-8503.660028
159.804748,-2738.761985,10807.006753,-10955.165621
159.805058,-1184.329507,5477.523971,-7814.174080
159.805367,-888.247130,8660.409521,-2604.724693
159.805677,6217.729913,10584.944971,-6894.859482
159.805986,-592.164754,5921.647536,6128.763984
159.806296,-74.020594,8586.388927,14019.547613
159.806605,-1258.350101,8142.265362,3600.648841
159.806915,4885.359217,6291.750507,-4213.525239
159.807224,-814.226536,5773.606348,-2604.724693
159.807534,-592.164754,1850.514855,-3677.258390
159.807843,-148.041188,8142.265362,-6052.154434
159.808153,-2368.659014,15840.407159,-3907.087040
159.808462,2886.803174,13323.706956,-2068.457845
159.808772,-0.000000,11991.336260,-689.485948
159.809081,-2812.782580,9104.533087,4366.744339
159.809391,2220.617826,8660.409521,612.876398
159.809700,4959.379811,9104.533087,-6665.030833
159.810010,-4441.235652,8142.265362,-229.828649
159.810319,-1554.432478,11029.068536,6818.249932
159.810629,6587.832884,16802.674883,-995.924147
159.810938,2072.576638,11029.068536,-5439.278036
159.811248,-5255.462188,9622.677246,5439.278036
159.811557,3404.947333,8142.265362,-2834.553343
159.811867,2738.761985,3108.864956,-12640.575717
159.812176,-3775.050304,5033.400406,2528.115143
159.812486,-3034.844362,2812.782580,9959.241474
159.812795,814.226536,11177.109724,-306.438199
159.813105,2960.823768,10362.883188,3370.820191
159.813414,1258.350101,11399.171507,3830.477490
159.813724,-5403.503377,6661.853478,-2604.724693
159.814033,-2442.679609,8586.388927,-4366.744339
159.814343,7031.956449,13841.851115,-9116.536426
159.814652,-2368.659014,15026.180623,-10112.460574
159.814962,-2960.823768,19615.457463,6052.154434
159.815271,-2812.782580,16580.613101,9193.145976
159.815580,8068.244768,8290.306550,-3830.477490
159.815890,3849.070898,7105.977043,-4903.011187
159.816199,-10066.800811,6069.688724,3677.258390
159.816509,3997.112087,1406.391290,-383.047749
159.816818,5107.421000,3552.988522,-10725.336972
159.817128,-2738.761985,8956.491898,-1685.410096
159.817437,-5699.585753,11991.336260,8503.660028
159.817747,6957.935855,12583.501014,-3447.429741
159.818056,9696.697840,3849.070898,-5822.325785
159.818366,5329.482782,5625.565159,6665.030833
159.818675,-9622.677246,8512.368333,10648.727422
159.818985,-1554.432478,6809.894666,3830.477490
159.819294,3478.967927,13989.892304,-2451.505594
159.819604,-2368.659014,10214.842000,-8656.879127
159.819913,-7994.224174,17468.860231,-5669.106685
159.820223,-1036.288319,18875.251521,-8197.221829
159.820532,2812.782580,8660.409521,-14862.252661
159.820842,-5921.647536,10658.965565,76.609550
159.821151,-4293.194464,17838.963202,6818.249932
159.821461,3552.988522,8808.450710,-2451.505594
159.821770,7476.080014,5477.523971,1072.533697
159.822080,-222.061783,666.185348,9576.193725
159.822389,-888.247130,1258.350101,1378.971896
159.822699,3404.947333,10732.986159,229.828649
159.823008,1480.411884,2442.679609,1378.971896
159.823318,4663.297435,7624.121203,-4290.134789
159.823627,-5625.565159,9326.594869,-2604.724693
159.823937,-7920.203579,11251.130318,3064.381992
159.824246,148.041188,9770.718434,-5056.230287
159.824556,3330.926739,4737.318029,-12793.794817
159.824865,-1406.391290,11325.150913,-2604.724693
159.825175,-7254.018232,19245.354492,4596.572988
159.825484,7476.080014,13027.624579,-6128.763984
159.825794,3404.947333,12361.439231,-3600.648841
159.826103,-1258.350101,10510.924376,11414.822920
159.826413,1998.556043,6143.709319,6894.859482
159.826722,-1332.370696,6883.915261,-3140.991542
159.827032,444.123565,-0.000000,2451.505594
159.827341,1110.308913,8882.471304,-459.657299
159.827651,-296.082377,13027.624579,-14555.814462
159.827960,-4959.379811,12213.398043,-4519.963438
159.828270,-1702.473667,15100.201217,4060.306139
159.828579,2516.700203,9696.697840,-3524.039291
159.828889,1332.370696,11473.192101,-1915.238745
159.829198,-2442.679609,13249.686362,5822.325785
159.829508,3478.967927,-2368.659014,-536.266849
159.829817,7179.997637,3256.906145,-1915.238745
159.830127,-3775.050304,10881.027347,5132.839837
159.830436,740.205942,11103.089130,612.876398
159.830746,3404.947333,15174.221811,-2451.505594
159.831055,666.185348,7624.121203,766.095498
159.831365,-444.123565,12139.377449,-2757.943793
159.831674,-3478.967927,13249.686362,-7814.174080
159.831984,-7402.059420,7772.162391,-5745.716235
159.832293,2664.741391,5403.503377,-4749.792088
159.832603,518.144159,6217.729913,-8197.221829
159.832912,1998.556043,10807.006753,-2911.162892
159.833221,-3627.009116,14285.974681,10418.898773
159.833531,3108.864956,7550.100608,7277.907231
159.833840,1036.288319,8808.450710,1302.362347
159.834150,-148.041188,11325.150913,3370.820191
159.834459,4441.235652,10584.944971,-6128.763984
159.834769,-3627.009116,7328.038826,-9193.145976
159.835078,-3330.926739,7179.997637,5286.058936
159.835388,222.061783,13619.789333,-5286.058936
159.835697,4071.132681,11991.336260,-14402.595362
159.836007,-1406.391290,6513.812290,612.876398
159.836316,-3997.112087,5995.668130,12104.308868
159.836626,-1554.432478,4885.359217,5362.668486
159.836935,4663.297435,8438.347739,-3217.601092
159.837245,-4515.256246,13101.645173,-1838.629195
159.837554,3849.070898,7920.203579,-6358.592633
159.837864,222.061783,10436.903782,-8886.707777
159.838173,-1554.432478,16654.633695,-3524.039291
159.838483,3034.844362,10955.047942,-1072.533697
159.838792,-370.102971,10436.903782,2298.286494
159.839102,-6365.771101,3997.112087,10495.508323
159.839411,-222.061783,4515.256246,536.266849
159.839721,2738.761985,9474.636058,-12563.966167
159.840030,1998.556043,814.226536,-3217.601092
159.840340,-2590.720797,4737.318029,4290.134789
159.840649,-518.144159,14804.118840,-3217.601092
159.840959,-2590.720797,12879.583391,-2298.286494
159.841268,1480.411884,17098.757260,5898.935335
159.841578,6735.874072,10658.965565,-7890.783629
159.841887,-1332.370696,5403.503377,-9806.022374
159.842197,-7920.203579,9326.594869,10725.336972
159.842506,2368.659014,5699.585753,919.314598
159.842816,10732.986159,9844.739029,-11568.042020
159.843125,-6365.771101,9474.636058,7354.516781
159.843435,-4441.235652,11695.253884,13100.233016
159.843744,1036.288319,11251.130318,-7354.516781
159.844054,-1258.350101,6809.894666,-5822.325785
159.844363,-370.102971,11473.192101,-2145.067394
159.844673,592.164754,8068.244768,-14555.814462
159.844982,-3552.988522,8290.306550,-2757.943793
159.845292,-3627.009116,14582.057057,9269.755526
159.845601,5625.565159,12139.377449,-3677.258390
159.845911,4219.173869,11325.150913,-8350.440928
159.846220,-8068.244768,8734.430116,10801.946522
159.846530,4219.173869,1702.473667,6818.249932
159.846839,8068.244768,666.185348,-9806.022374
159.847149,518.144159,11177.109724,2451.505594
159.847458,-8882.471304,9696.697840,7890.783629
159.847768,666.185348,7920.203579,-7507.735880
159.848077,1554.432478,9252.574275,-4519.963438
159.848387,-1480.411884,13693.809927,-842.705048
159.848696,-1776.494261,15026.180623,-10189.070123
159.849006,962.267725,7994.224174,-5822.325785
159.849315,-2294.638420,5403.503377,6128.763984
159.849625,1924.535449,6513.812290,2451.505594
159.849934,-666.185348,11251.130318,-1838.629195
159.850243,-1406.391290,11917.315666,5286.058936
159.850553,4885.359217,8068.244768,153.219100
159.850862,1406.391290,6809.894666,-5975.544884
159.851172,-7328.038826,15618.345376,459.657299
159.851481,1480.411884,13915.871710,-3447.429741
159.851791,1850.514855,8586.388927,-12027.699319
159.852100,4145.153275,6809.894666,4290.134789
159.852410,-8586.388927,9252.574275,6205.373534
159.852719,2590.720797,9844.739029,-5592.497135
159.853029,814.226536,5033.400406,-4060.306139
159.853338,1258.350101,7105.977043,5209.449386
159.853648,-2960.823768,7105.977043,1685.410096
159.853957,-3108.864956,10066.800811,-3830.477490
159.854267,-2072.576638,11547.212695,-2374.896044
159.854576,9178.553681,10658.965565,-8197.221829
159.854886,-1702.473667,8734.430116,-6665.030833
159.855195,-5329.482782,11843.295072,8044.002729
159.855505,4589.276840,6291.750507,3064.381992
159.855814,4293.194464,5329.482782,-7737.564530
159.856124,-6661.853478,7105.977043,2681.334243
159.856433,-7698.141797,11917.315666,10189.070123
159.856743,1850.514855,9770.718434,-11261.603821
159.857052,6365.771101,7698.141797,-10418.898773
159.857362,-3997.112087,12805.562797,383.047749
159.857671,-5699.585753,10807.006753,-1532.190996
159.857981,296.082377,12139.377449,-383.047749
159.858290,4885.359217,12731.542202,2298.286494
159.858600,1924.535449,5551.544565,-536.266849
159.858909,-814.226536,8068.244768,-536.266849
159.859219,-4293.194464,13471.748144,1225.752797
159.859528,5107.421000,7772.162391,-9652.803275
159.859838,5773.606348,7846.182985,-10572.117872
159.860147,-5107.421000,12731.542202,1762.019645
159.860457,-2146.597232,11325.150913,1685.410096
159.860766,9326.594869,5403.503377,-4060.306139
159.861076,1924.535449,4515.256246,3524.039291
159.861385,-1776.494261,6217.729913,8963.317327
159.861695,-3034.844362,6957.935855,-842.705048
159.862004,370.102971,7105.977043,-6665.030833
159.862314,-1776.494261,13027.624579,-4979.620737
159.862623,4811.338623,12657.521608,-9269.755526
159.862933,-4737.318029,12805.562797,-6665.030833
159.863242,-2368.659014,18505.148550,2298.286494
159.863552,666.185348,2664.741391,5975.544884
159.863861,3256.906145,8068.244768,2451.505594
159.864171,-7328.038826,11917.315666,6588.421283
159.864480,2442.679609,12583.501014,-3217.601092
159.864790,2516.700203,6661.853478,-12947.013916
159.865099,2516.700203,5995.668130,-2757.943793
159.865409,-4293.194464,11399.171507,1915.238745
159.865718,-2442.679609,16654.633695,-2987.772442
159.866028,5255.462188,12361.439231,-3140.991542
159.866337,5921.647536,7179.997637,-995.924147
159.866647,-2738.761985,2442.679609,1838.629195
159.866956,-3034.844362,3404.947333,4366.744339
159.867266,-1850.514855,7994.224174,2451.505594
159.867575,5403.503377,5773.606348,-5515.887586
159.867884,370.102971,10436.903782,-4213.525239
159.868194,-7624.121203,16876.695478,-2221.676944
159.868503,222.061783,11991.336260,-5669.106685
159.868813,3256.906145,13545.768739,-4443.353888
159.869122,-1554.432478,4515.256246,689.485948
159.869432,-2442.679609,7476.080014,383.047749
159.869741,-1850.514855,10881.027347,-383.047749
159.870051,-592.164754,2960.823768,2987.772442
159.870360,5255.462188,9030.512492,153.219100
159.870670,-592.164754,12361.439231,-7431.126331
159.870979,-4811.338623,14508.036463,-842.705048
159.871289,814.226536,12953.603985,2145.067394
159.871598,8586.388927,6661.853478,-6894.859482
159.871908,666.185348,11769.274478,-2451.505594
159.872217,-2442.679609,6661.853478,12563.966167
159.872527,-0.000000,5033.400406,4290.134789
159.872836,962.267725,4441.235652,-2451.505594
159.873146,-1554.432478,9844.739029,2987.772442
159.873455,-4071.132681,13397.727550,-4749.792088
159.873765,-814.226536,16210.510130,-11491.432470
159.874074,-5921.647536,10955.047942,-3447.429741
159.874384,148.041188,11177.109724,-5515.887586
159.874693,962.267725,11769.274478,-11491.432470
159.875003,-4811.338623,9696.697840,7890.783629
159.875312,-1110.308913,7846.182985,12410.747068
159.875622,11029.068536,2738.761985,-4060.306139
159.875931,4737.318029,3330.926739,-3370.820191
159.876241,-9178.553681,6439.791695,12717.185267
159.876550,2294.638420,6217.729913,2145.067394
159.876860,6883.915261,6439.791695,-10725.336972
159.877169,-0.000000,9918.759623,1225.752797
159.877479,-4293.194464,8216.285956,2987.772442
159.877788,1332.370696,11399.171507,-9039.926876
159.878098,-888.247130,4145.153275,-995.924147
159.878407,-1776.494261,15100.201217,153.219100
159.878717,-1332.370696,17246.798449,-9346.365076
159.879026,2812.782580,12361.439231,-2681.334243
159.879336,-4293.194464,13767.830521,8273.831378
159.879645,3404.947333,13693.809927,-3753.867940
159.879955,1110.308913,11251.130318,-4749.792088
159.880264,-2294.638420,11251.130318,7354.516781
159.880574,1628.453072,6661.853478,-383.047749
159.880883,3182.885551,6587.832884,-6894.859482
159.881193,-6365.771101,8734.430116,2298.286494
159.881502,-0.000000,8438.347739,-3370.820191
159.881811,4737.318029,6513.812290,-12257.527968
159.882121,-0.000000,6217.729913,-3140.991542
159.882430,-5995.668130,9326.594869,8810.098227
159.882740,1924.535449,6809.894666,1838.629195
159.883049,9474.636058,3997.112087,-612.876398
159.883359,-4589.276840,6513.812290,6971.469032
159.883668,-592.164754,11917.315666,2528.115143
159.883978,1406.391290,11843.295072,-8580.269578
159.884287,-148.041188,14878.139434,-10418.898773
159.884597,296.082377,10955.047942,-6052.154434
159.884906,-5181.441594,13175.665768,-4060.306139
159.885215,-5847.626942,18727.210333,-1532.190996
159.885525,2368.659014,10140.821405,-3753.867940
159.885834,6587.832884,6513.812290,-6741.640382
159.886144,-5995.668130,2442.679609,4903.011187
159.886453,2368.659014,5995.668130,7814.174080
159.886763,4145.153275,2220.617826,-2528.115143
159.887072,6439.791695,1850.514855,153.219100
159.887382,-2738.761985,7179.997637,12717.185267
159.887691,-1406.391290,11843.295072,3447.429741
159.888001,2960.823768,9844.739029,-8733.488677
159.888310,1406.391290,13175.665768,-2834.553343
159.888619,-1184.329507,12213.398043,-5592.497135
159.888929,-148.041188,12731.542202,-8656.879127
159.889238,-2960.823768,17172.777854,-1685.410096
159.889548,-2516.700203,11103.089130,919.314598
159.889857,-666.185348,11917.315666,-3217.601092
159.890167,-148.041188,11843.295072,919.314598
159.890476,-444.123565,10732.986159,76.609550
159.890786,-222.061783,8956.491898,-3677.258390
159.891095,-0.000000,8882.471304,-459.657299
159.891404,-0.000000,8586.388927,-4596.572988
159.891714,4071.132681,8586.388927,-6281.983084
159.892023,3330.926739,3404.947333,2604.724693
159.892333,-1184.329507,-0.000000,7048.078582
159.892642,1628.453072,1628.453072,4290.134789
159.892952,3404.947333,7402.059420,-536.266849
159.893261,-5847.626942,6217.729913,5209.449386
159.893571,-1924.535449,9400.615463,2834.553343
159.893880,1554.432478,12361.439231,-9959.241474
159.894190,-1850.514855,16136.489536,-12180.918418
159.894499,-592.164754,17764.942608,-7814.174080
159.894808,1628.453072,16284.530724,-5669.106685
159.895118,296.082377,17394.839637,1149.143247
159.895427,148.041188,11473.192101,4519.963438
159.895737,4071.132681,10584.944971,-1072.533697
159.896046,-74.020594,1554.432478,3140.991542
159.896356,-2442.679609,2738.761985,7814.174080
159.896665,-0.000000,6957.935855,-2757.943793
159.896975,6957.935855,8882.471304,-10572.117872
159.897284,-2220.617826,9474.636058,-536.266849
159.897594,-2664.741391,7105.977043,-459.657299
159.897903,5181.441594,6217.729913,-5056.230287
159.898212,1554.432478,11325.150913,383.047749
159.898522,1258.350101,9178.553681,2681.334243
159.898831,-1184.329507,9844.739029,1532.190996
159.899141,-1554.432478,10510.924376,5592.497135
159.899450,1110.308913,15248.242405,-4136.915689
159.899760,1850.514855,15988.448347,-11951.089769
159.900069,-2812.782580,10955.047942,-5286.058936
159.900379,-2442.679609,10955.047942,-2145.067394
159.900688,-1776.494261,10436.903782,-9193.145976
159.900998,4441.235652,7402.059420,-2528.115143
159.901307,-4737.318029,5329.482782,9882.631924
159.901616,-518.144159,6957.935855,5362.668486
159.901926,1998.556043,3627.009116,-4749.792088
159.902235,-2812.782580,9474.636058,-4903.011187
159.902545,3552.988522,6513.812290,-4136.915689
159.902854,2294.638420,8660.409521,-5898.935335
159.903164,-2664.741391,13027.624579,-919.314598
159.903473,2146.597232,8808.450710,-536.266849
159.903783,7920.203579,8438.347739,-459.657299
159.904092,-2368.659014,6883.915261,8886.707777
159.904402,1332.370696,7105.977043,7737.564530
159.904711,148.041188,12213.398043,-4213.525239
159.905020,5921.647536,8364.327145,-1455.581446
159.905330,-7920.203579,9992.780217,919.314598
159.905639,-2294.638420,17987.004391,-7967.393179
159.905949,296.082377,15544.324782,-14096.157163
159.906258,-3330.926739,13027.624579,-7354.516781
159.906568,444.123565,5625.565159,1072.533697
159.906877,1850.514855,6957.935855,-1072.533697
159.907187,-3849.070898,9252.574275,5669.106685
159.907496,6291.750507,5107.421000,5669.106685
159.907806,5033.400406,9474.636058,-689.485948
159.908115,3478.967927,3108.864956,2451.505594
159.908424,-3478.967927,6513.812290,7814.174080
159.908734,-1110.308913,10732.986159,459.657299
159.909043,2220.617826,7698.141797,-5209.449386
159.909353,-3627.009116,8882.471304,-919.314598
159.909662,-5551.544565,11325.150913,-1991.848295
159.909972,-2146.597232,10140.821405,-7431.126331
159.910281,-444.123565,15248.242405,-6588.421283
159.910591,1036.288319,11917.315666,-7354.516781
159.910900,-5181.441594,10140.821405,-2451.505594
159.911210,-4737.318029,16432.571912,4060.306139
159.911519,2590.720797,9400.615463,-306.438199
159.911828,5921.647536,6143.709319,-5286.058936
159.912138,1924.535449,7846.182985,2604.724693
159.912447,-666.185348,4737.318029,6511.811733
159.912757,1628.453072,5847.626942,-766.095498
159.913066,5625.565159,3849.070898,-153.219100
159.913376,2368.659014,8660.409521,5515.887586
159.913685,-2886.803174,7550.100608,2145.067394
159.913995,-2294.638420,12879.583391,-4136.915689
159.914304,-592.164754,11473.192101,-7967.393179
159.914614,1850.514855,10066.800811,-11491.432470
159.914923,-4663.297435,11769.274478,-8350.440928
159.915232,-3701.029710,14952.160028,3370.820191
159.915542,7031.956449,11547.212695,306.438199
159.915851,7772.162391,11991.336260,1455.581446
159.916161,-6291.750507,7994.224174,12563.966167
159.916470,-888.247130,7698.141797,6665.030833
159.916780,2146.597232,9178.553681,-8197.221829
159.917089,5181.441594,5329.482782,-9193.145976
159.917399,-8290.306550,7846.182985,-842.705048
159.917708,-2516.700203,17764.942608,-3447.429741
159.918017,1924.535449,8808.450710,-9193.145976
159.918327,1036.288319,6883.915261,-6128.763984
159.918636,-4589.276840,4737.318029,2451.505594
159.918946,2738.761985,3775.050304,4443.353888
159.919255,1258.350101,2738.761985,8350.440928
159.919565,3478.967927,6143.709319,1838.629195
159.919874,-518.144159,9770.718434,2681.334243
159.920184,-0.000000,17394.839637,2374.896044
159.920493,3330.926739,14063.912898,-5439.278036
159.920803,-962.267725,13619.789333,-7737.564530
159.921112,-8068.244768,9474.636058,459.657299
159.921421,740.205942,11177.109724,-6205.373534
159.921731,1258.350101,6809.894666,-12947.013916
159.922040,-444.123565,6661.853478,-919.314598
159.922350,-6661.853478,6217.729913,12180.918418
159.922659,-222.061783,7031.956449,7507.735880
159.922969,7624.121203,7846.182985,-3140.991542
159.923278,-1036.288319,9770.718434,-2528.115143
159.923588,-3108.864956,14804.118840,919.314598
159.923897,2294.638420,13323.706956,-5669.106685
159.924207,2960.823768,14285.974681,-11261.603821
159.924516,6217.729913,10732.986159,-6128.763984
159.924825,-7328.038826,9548.656652,10418.898773
159.925135,-2072.576638,11843.295072,12027.699319
159.925444,6291.750507,6365.771101,-5669.106685
159.925754,5995.668130,7994.224174,-9959.241474
159.926063,-7031.956449,2368.659014,4366.744339
159.926373,-7846.182985,8586.388927,383.047749
159.926682,2886.803174,10066.800811,-8350.440928
159.926992,5403.503377,12731.542202,-10418.898773
159.927301,-5995.668130,13989.892304,459.657299
159.927611,-2960.823768,14137.933492,2987.772442
159.927920,5625.565159,11695.253884,-10035.851024
159.928229,4145.153275,10140.821405,-12027.699319
159.928539,-518.144159,4589.276840,4596.572988
159.928848,-8290.306550,8734.430116,12563.966167
159.929158,-3330.926739,13767.830521,2604.724693
159.929467,8364.327145,13397.727550,-18539.511052
159.929777,-0.000000,11473.192101,-18462.901502
159.930086,-3404.947333,8882.471304,-5592.497135
159.930396,-8660.409521,7105.977043,-4596.572988
159.930705,1702.473667,8438.347739,-9576.193725
159.931015,1850.514855,8956.491898,-7507.735880
159.931324,-4145.153275,7179.997637,3064.381992
159.931633,444.123565,5921.647536,1302.362347
159.931943,7772.162391,5921.647536,-11951.089769
159.932252,6069.688724,5551.544565,-17390.367805
159.932562,1702.473667,5181.441594,-4673.182538
159.932871,-2960.823768,8364.327145,1915.238745
159.933181,-1480.411884,11547.212695,-1762.019645
159.933490,5847.626942,14434.015869,-5056.230287
159.933800,2368.659014,11917.315666,-14862.252661
159.934109,-592.164754,8142.265362,-11721.261119
159.934419,-5107.421000,6661.853478,-12717.185267
159.934728,4589.276840,10807.006753,-17160.539155
159.935037,5181.441594,15026.180623,-13100.233016
159.935347,-5551.544565,10807.006753,-153.219100
159.935656,-6883.915261,14211.954086,3677.258390
159.935966,5255.462188,10955.047942,-12717.185267
159.936275,5847.626942,4071.132681,-19688.654299
159.936585,-3552.988522,3627.009116,-11261.603821
159.936894,-2368.659014,3923.091493,-7201.297681
159.937204,3108.864956,7624.121203,-10112.460574
159.937513,2368.659014,11177.109724,-7354.516781
159.937823,-5403.503377,10066.800811,-612.876398
159.938132,-1924.535449,9918.759623,-5209.449386
159.938441,-0.000000,10214.842000,-15245.300410
159.938751,-0.000000,6735.874072,-20454.749797
159.939060,-3330.926739,7920.203579,-14479.204912
159.939370,-3849.070898,12139.377449,-11721.261119
159.939679,1850.514855,15100.201217,-13176.842566
159.939989,518.144159,13915.871710,-7124.688131
159.940298,-4293.194464,10066.800811,383.047749
159.940608,296.082377,8290.306550,-1991.848295
159.940917,814.226536,5699.585753,-15934.786358
159.941227,740.205942,4293.194464,-19382.216099
159.941536,-4293.194464,5773.606348,-11414.822920
159.941845,-666.185348,13693.809927,-10572.117872
159.942155,3849.070898,9400.615463,-16394.443657
159.942464,4515.256246,8512.368333,-11951.089769
159.942774,-5255.462188,4441.235652,-1302.362347
159.943083,-2886.803174,7105.977043,-1762.019645
159.943393,5181.441594,7846.182985,-12563.966167
159.943702,6291.750507,11399.171507,-20224.921147
159.944012,-888.247130,11769.274478,-11338.213370
159.944321,-3478.967927,13619.789333,-2757.943793
159.944630,3478.967927,16432.571912,-12563.966167
159.944940,8290.306550,10584.944971,-23289.303139
159.945249,814.226536,8882.471304,-8197.221829
159.945559,-7328.038826,8734.430116,2604.724693
159.945868,-2812.782580,7846.182985,-3753.867940
159.946178,3552.988522,10214.842000,-17543.586904
159.946487,-222.061783,8142.265362,-19841.873398
159.946797,-5329.482782,10140.821405,-10035.851024
159.947106,-3701.029710,10955.047942,-7890.783629
159.947416,-592.164754,13693.809927,-15015.471761
159.947725,6365.771101,11251.130318,-14709.033562
159.948034,-1110.308913,6735.874072,-7584.345430
159.948344,-1406.391290,4737.318029,1762.019645
159.948653,1332.370696,3552.988522,0.000000
159.948963,2072.576638,5329.482782,-4903.011187
159.949272,-2886.803174,8734.430116,-8350.440928
159.949582,-4589.276840,12509.480420,-10572.117872
159.949891,-1480.411884,16062.468941,-17160.539155
159.950201,666.185348,17320.819043,-20378.140247
159.950510,-1702.473667,18579.169144,-17926.634653
159.950820,-3256.906145,16358.551318,-11031.775171
159.951129,-2072.576638,8956.491898,-10189.070123
159.951438,1406.391290,4663.297435,-10572.117872
159.951748,6143.709319,4145.153275,-6205.373534
159.952057,4145.153275,3849.070898,2911.162892
159.952367,-592.164754,7031.956449,4213.525239
159.952676,888.247130,8364.327145,-2528.115143
159.952986,1998.556043,12583.501014,-13789.718964
159.953295,-2368.659014,14285.974681,-19995.092498
159.953605,370.102971,14730.098246,-20607.968896
159.953914,-2220.617826,13323.706956,-19688.654299
159.954224,-370.102971,10140.821405,-15168.690860
159.954533,-0.000000,7476.080014,-8427.050478
159.954842,-1850.514855,10066.800811,-2068.457845
159.955152,-1036.288319,9474.636058,-536.266849
159.955461,3478.967927,11325.150913,-7048.078582
159.955771,6217.729913,9326.594869,-13636.499864
159.956080,1554.432478,10140.821405,-13023.623466
159.956390,-5181.441594,9252.574275,-9652.803275
159.956699,-2146.597232,12139.377449,-10648.727422
159.957009,-370.102971,9474.636058,-14785.643111
159.957318,-3404.947333,11843.295072,-12257.527968
159.957628,-5773.606348,11029.068536,-10265.679673
159.957937,2146.597232,9770.718434,-17773.415554
159.958246,1184.329507,7254.018232,-18309.682402
159.958556,-2072.576638,7179.997637,-9806.022374
159.958865,-2220.617826,7624.121203,-3447.429741
159.959175,2664.741391,8956.491898,-7354.516781
159.959484,4293.194464,7698.141797,-8197.221829
159.959794,-296.082377,5699.585753,-5439.278036
159.960103,-2516.700203,7254.018232,-5822.325785
159.960413,370.102971,9992.780217,-11951.089769
159.960722,1554.432478,13693.809927,-19535.435199
159.961032,1258.350101,15026.180623,-17390.367805
159.961341,-3108.864956,13397.727550,-8197.221829
159.961650,-1110.308913,12953.603985,-5056.230287
159.961960,-1480.411884,10066.800811,-8580.269578
159.962269,2738.761985,4737.318029,-11951.089769
159.962579,-3923.091493,4885.359217,-8350.440928
159.962888,-2368.659014,6735.874072,-7201.297681
159.963198,-222.061783,12657.521608,-11031.775171
159.963507,3775.050304,16284.530724,-16088.005458
159.963817,1184.329507,15248.242405,-15475.129060
159.964126,-148.041188,12731.542202,-10878.556072
159.964436,1184.329507,8216.285956,-9806.022374
159.964745,3404.947333,3108.864956,-10342.289223
159.965054,1480.411884,-0.000000,-5975.544884
159.965364,-2516.700203,-1776.494261,-1225.752797
159.965673,-2738.761985,2442.679609,-2987.772442
159.965983,370.102971,7254.018232,-11797.870669
159.966292,1332.370696,14730.098246,-17160.539155
159.966602,-1406.391290,15470.304188,-15475.129060
159.966911,-2220.617826,18431.127956,-14479.204912
159.967221,148.041188,15766.386565,-16700.881856
159.967530,296.082377,11843.295072,-14479.204912
159.967840,-2146.597232,9326.594869,-5975.544884
159.968149,-2294.638420,6809.894666,-2681.334243
159.968458,-222.061783,8290.306550,-5286.058936
159.968768,2664.741391,8438.347739,-11644.651570
159.969077,1110.308913,9918.759623,-14402.595362
159.969387,296.082377,10436.903782,-14402.595362
159.969696,-444.123565,11843.295072,-11644.651570
159.970006,1184.329507,9844.739029,-11491.432470
159.970315,1776.494261,7920.203579,-10035.851024
159.970625,444.123565,4663.297435,-6128.763984
159.970934,-518.144159,1776.494261,-4366.744339
159.971243,1998.556043,2812.782580,-8120.612279
159.971553,1850.514855,8660.409521,-9269.755526
159.971862,-296.082377,11473.192101,-7048.078582
159.972172,-296.082377,17172.777854,-6894.859482
159.972481,1184.329507,16284.530724,-12947.013916
159.972791,-0.000000,14730.098246,-14325.985813
159.973100,-2738.761985,12361.439231,-11031.775171
159.973410,-2886.803174,9326.594869,-10418.898773
159.973719,222.061783,9400.615463,-11414.822920
159.974029,-74.020594,8216.285956,-8810.098227
159.974338,-740.205942,8956.491898,-5669.106685
159.974647,-0.000000,8364.327145,-6894.859482
159.974957,1628.453072,5033.400406,-9729.412825
159.975266,888.247130,6661.853478,-7660.954980
159.975576,814.226536,5995.668130,-6435.202183
159.975885,-148.041188,6439.791695,-4979.620737
159.976195,-1184.329507,6217.729913,-2221.676944
159.976504,1850.514855,9474.636058,-4749.792088
159.976814,2368.659014,8512.368333,-8810.098227
159.977123,-814.226536,10288.862594,-5515.887586
159.977433,-3552.988522,11917.315666,-1991.848295
159.977742,-888.247130,10732.986159,-6205.373534
159.978051,-3034.844362,11843.295072,-11338.213370
159.978361,-4515.256246,10584.944971,-9806.022374
159.978670,-4219.173869,9918.759623,-10955.165621
159.978980,-2146.597232,11547.212695,-14709.033562
159.979289,-1702.473667,13397.727550,-12640.575717
159.979599,-1480.411884,14137.933492,-10418.898773
159.979908,1332.370696,13545.768739,-11568.042020
159.980218,-0.000000,13101.645173,-9959.241474
159.980527,-1480.411884,11843.295072,-6358.592633
159.980837,-222.061783,11991.336260,-10878.556072
159.981146,-222.061783,11251.130318,-14862.252661
159.981455,444.123565,8808.450710,-17237.148705
159.981765,1036.288319,8290.306550,-18539.511052
159.982074,1924.535449,10066.800811,-15628.348159
159.982384,2960.823768,6957.935855,-10725.336972
159.982693,3034.844362,6217.729913,-4903.011187
159.983003,2294.638420,4515.256246,-1991.848295
159.983312,10584.944971,-2072.576638,-4979.620737
159.983622,-9400.615463,-2738.761985,-5822.325785
159.983931,-370.102971,8956.491898,-10955.165621
159.984241,-3627.009116,10066.800811,-21680.502593
159.984550,4959.379811,18801.230927,-31103.477219
159.984860,-3182.885551,16876.695478,-22676.426741
159.985169,-2294.638420,15840.407159,-16547.662757
159.985478,2516.700203,13989.892304,-12104.308868
159.985788,2072.576638,9104.533087,-6818.249932
159.986097,1406.391290,7254.018232,-2451.505594
159.986407,10362.883188,-5551.544565,-6358.592633
159.986716,-7920.203579,6439.791695,-5209.449386
159.987026,10510.924376,24426.796086,2451.505594
159.987335,-2368.659014,8882.471304,-20991.016645
159.987645,3997.112087,-370.102971,-37845.117601
159.987954,-21984.116477,7031.956449,-10035.851024
159.988264,-3997.112087,28719.990550,-306.438199
159.988573,296.082377,16950.716072,-17850.025103
159.988883,1554.432478,9548.656652,-22982.864940
159.989192,-10066.800811,5107.421000,-8886.707777
159.989502,-6291.750507,-3849.070898,-9193.145976
159.989811,-3330.926739,10288.862594,-10572.117872
159.990120,3775.050304,18431.127956,-9039.926876
159.990430,10288.862594,17764.942608,-18692.730151
159.990739,-3256.906145,6587.832884,-11721.261119
159.991049,-7550.100608,10955.047942,4519.963438
159.991358,-2220.617826,6735.874072,-8044.002729
159.991668,4441.235652,5181.441594,-31409.915418
159.991977,1184.329507,6735.874072,-20914.407095
159.992287,-7328.038826,6217.729913,-5362.668486
159.992596,-1184.329507,7772.162391,-9806.022374
159.992906,7254.018232,13397.727550,-12563.966167
159.993215,9770.718434,8068.244768,-7048.078582
159.993525,-2960.823768,1998.556043,5209.449386
159.993834,-2960.823768,5773.606348,5362.668486
159.994144,1184.329507,7105.977043,-8656.879127
159.994453,7254.018232,13101.645173,-25127.932334
159.994762,-2294.638420,12361.439231,-20684.578446
159.995072,-3034.844362,16802.674883,-9806.022374
159.995381,2368.659014,16358.551318,-11414.822920
159.995691,2442.679609,17320.819043,-13636.499864
159.996000,-2738.761985,12953.603985,-2374.896044
159.996310,-2738.761985,9474.636058,-3830.477490
159.996619,2368.659014,6735.874072,-10342.289223
159.996929,148.041188,4441.235652,-17160.539155
159.997238,2146.597232,7624.121203,-15245.300410
159.997548,592.164754,10510.924376,-7124.688131
159.997857,592.164754,14063.912898,-1915.238745
159.998167,-1480.411884,12805.562797,-1685.410096
159.998476,1850.514855,12953.603985,-6128.763984
159.998786,-0.000000,8068.244768,-7737.564530
159.999095,-5551.544565,5033.400406,-8350.440928
159.999404,-4441.235652,2812.782580,-11261.603821
159.999714,-3627.009116,7920.203579,-12257.527968
160.000023,-1480.411884,14508.036463,-10418.898773
160.000333,-2368.659014,15322.262999,-8733.488677
160.000642,1184.329507,13545.768739,-14172.766713
160.000952,2442.679609,10510.924376,-8350.440928
160.001261,-888.247130,7105.977043,-1991.848295
160.001571,-1480.411884,5477.523971,-3753.867940
160.001880,-4071.132681,4959.379811,-5592.497135
160.002190,1036.288319,14285.974681,-10878.556072
160.002499,3775.050304,11251.130318,-18156.463303
160.002809,1036.288319,14656.077652,-16471.053207
160.003118,-2294.638420,16284.530724,-9499.584175
160.003428,-2146.597232,9474.636058,-12257.527968
160.003737,-666.185348,7624.121203,-13559.890315
160.004046,4737.318029,7624.121203,-8350.440928
160.004356,-3552.988522,3034.844362,-6281.983084
160.004665,-222.061783,6809.894666,-3753.867940
160.004975,-222.061783,8512.368333,-8273.831378
160.005284,1628.453072,13989.892304,-18539.511052
160.005594,2442.679609,10955.047942,-20607.968896
160.005903,-3923.091493,10436.903782,-13483.280765
160.006213,-1110.308913,18357.107362,-7814.174080
160.006522,2590.720797,10066.800811,-17007.320056
160.006832,1998.556043,8438.347739,-16854.100956
160.007141,-0.000000,4441.235652,-9652.803275
160.007451,-2368.659014,6217.729913,-4060.306139
160.007760,888.247130,8142.265362,-4596.572988
160.008070,6661.853478,11177.109724,-15475.129060
160.008379,6587.832884,13249.686362,-17543.586904
160.008688,-5329.482782,10510.924376,-9882.631924
160.008998,-4589.276840,9844.739029,-5515.887586
160.009307,-3849.070898,7698.141797,-16930.710506
160.009617,5033.400406,12065.356855,-21374.064394
160.009926,-3627.009116,3849.070898,-12027.699319
160.010236,-2294.638420,7105.977043,-2221.676944
160.010545,-2812.782580,9178.553681,-5362.668486
160.010855,7920.203579,11621.233289,-13176.842566
160.011164,-5255.462188,11251.130318,-10955.165621
160.011474,-2294.638420,10214.842000,-8120.612279
160.011783,-2738.761985,12879.583391,-13176.842566
160.012093,5107.421000,12583.501014,-22369.988542
160.012402,1332.370696,10066.800811,-19765.263848
160.012712,-444.123565,5551.544565,-7660.954980
160.013021,-5773.606348,11769.274478,-459.657299
160.013330,6143.709319,7624.121203,-6741.640382
160.013640,5033.400406,9104.533087,-14096.157163
160.013949,3923.091493,6439.791695,-11184.994271
160.014259,-2368.659014,7550.100608,-2911.162892
160.014568,1480.411884,4589.276840,-7277.907231
160.014878,1258.350101,8808.450710,-8044.002729
160.015187,-296.082377,9844.739029,-5669.106685
160.015497,-2442.679609,7402.059420,-5592.497135
160.015806,-2146.597232,7105.977043,-10342.289223
160.016116,592.164754,6661.853478,-12870.404366
160.016425,6217.729913,8586.388927,-10342.289223
160.016735,1850.514855,8734.430116,-3064.381992
160.017044,-3701.029710,11103.089130,1991.848295
160.017354,-2960.823768,10066.800811,-153.219100
160.017663,8142.265362,12065.356855,-7201.297681
160.017972,666.185348,7920.203579,-9499.584175
160.018282,-6513.812290,13175.665768,-5745.716235
160.018591,1702.473667,10881.027347,-7507.735880
160.018901,7772.162391,12065.356855,-14555.814462
160.019210,5995.668130,10881.027347,-5209.449386
160.019520,-4959.379811,11547.212695,9806.022374
160.019829,-3701.029710,9178.553681,8120.612279
160.020139,2294.638420,9326.594869,-3064.381992
160.020448,-518.144159,9622.677246,-3217.601092
160.020758,1258.350101,9104.533087,-6435.202183
160.021067,-3849.070898,9252.574275,-2528.115143
160.021377,-3256.906145,12361.439231,-3064.381992
160.021686,-1184.329507,12879.583391,-2451.505594
160.021996,3627.009116,18135.045579,766.095498
160.022305,-0.000000,11991.336260,1991.848295
160.022614,-9104.533087,11769.274478,2298.286494
160.022924,5403.503377,8660.409521,-5209.449386
160.023233,1258.350101,6957.935855,-9039.926876
160.023543,2590.720797,11621.233289,-2374.896044
160.023852,-4293.194464,9178.553681,5286.058936
160.024162,1554.432478,14582.057057,1149.143247
160.024471,888.247130,9030.512492,-2987.772442
160.024781,518.144159,8216.285956,-2068.457845
160.025090,2590.720797,8660.409521,-5975.544884
160.025400,444.123565,6661.853478,-5209.449386
160.025709,518.144159,9252.574275,459.657299
160.026019,-74.020594,7994.224174,1762.019645
160.026328,2886.803174,12287.418637,-229.828649
160.026638,-3552.988522,11991.336260,-995.924147
160.026947,3404.947333,7698.141797,-7507.735880
160.027256,2442.679609,6735.874072,-8273.831378
160.027566,-2294.638420,7476.080014,-2834.553343
160.027875,-2146.597232,9770.718434,229.828649
160.028185,-962.267725,10732.986159,-3983.696590
160.028494,1258.350101,12805.562797,-3830.477490
160.028804,4145.153275,9326.594869,-3370.820191
160.029113,-1184.329507,14137.933492,-8656.879127
160.029423,1702.473667,10436.903782,-4060.306139
160.029732,4441.235652,8142.265362,-2451.505594
160.030042,814.226536,10881.027347,-1608.800546
160.030351,3108.864956,7254.018232,3140.991542
160.030661,-4589.276840,10955.047942,6971.469032
160.030970,-444.123565,9400.615463,842.705048
160.031280,2146.597232,7328.038826,-10725.336972
160.031589,-1184.329507,12435.459826,-8656.879127
160.031898,-370.102971,12731.542202,-5132.839837
160.032208,-2960.823768,15174.221811,-7048.078582
160.032517,-2590.720797,11103.089130,766.095498
160.032827,4737.318029,11177.109724,4136.915689
160.033136,-2220.617826,6439.791695,383.047749
160.033446,-592.164754,5847.626942,919.314598
160.033755,-296.082377,5921.647536,-1072.533697
160.034065,5255.462188,3923.091493,-11108.384721
160.034374,1480.411884,7328.038826,-4443.353888
160.034684,-5773.606348,12065.356855,3370.820191
160.034993,1628.453072,9770.718434,-2604.724693
160.035303,3108.864956,10140.821405,-4826.401637
160.035612,2294.638420,9400.615463,-689.485948
160.035922,-296.082377,4145.153275,-3294.210641
160.036231,-222.061783,7476.080014,-4213.525239
160.036540,-0.000000,-0.000000,3830.477490
160.036850,1702.473667,6883.915261,766.095498
160.037159,-3404.947333,12657.521608,-3064.381992
160.037469,-222.061783,13323.706956,-76.609550
160.037778,3108.864956,9622.677246,-4366.744339
160.038088,6439.791695,8068.244768,-9959.241474
160.038397,-592.164754,8660.409521,-689.485948
160.038707,-3627.009116,8660.409521,8580.269578
160.039016,-4293.194464,5847.626942,8120.612279
160.039326,2812.782580,8956.491898,-1149.143247
160.039635,2072.576638,15470.304188,-1378.971896
160.039945,-370.102971,13471.748144,-6511.811733
160.040254,-1258.350101,10807.006753,-6971.469032
160.040564,5107.421000,8512.368333,-1225.752797
160.040873,6809.894666,12435.459826,-689.485948
160.041182,-2590.720797,12287.418637,1302.362347
160.041492,-2368.659014,12065.356855,9806.022374
160.041801,5033.400406,7254.018232,2145.067394
160.042111,4959.379811,7105.977043,-7354.516781
160.042420,-6217.729913,6069.688724,3370.820191
160.042730,-5773.606348,11769.274478,7354.516781
160.043039,222.061783,11769.274478,-6128.763984
160.043349,2146.597232,11695.253884,-2987.772442
160.043658,-5699.585753,16210.510130,1991.848295
160.043968,-1776.494261,7476.080014,-3600.648841
160.044277,-740.205942,5625.565159,-4136.915689
160.044587,888.247130,6661.853478,919.314598
160.044896,3034.844362,3108.864956,-459.657299
160.045205,444.123565,10436.903782,4903.011187
160.045515,-4367.215058,8956.491898,11338.213370
160.045824,4663.297435,4885.359217,1685.410096
160.046134,3552.988522,8734.430116,-6358.592633
160.046443,-4811.338623,4737.318029,2911.162892
160.046753,-3923.091493,9178.553681,766.095498
160.047062,-1554.432478,10510.924376,-7354.516781
160.047372,518.144159,13249.686362,-5362.668486
160.047681,-3182.885551,13175.665768,-2451.505594
160.047991,4219.173869,11695.253884,-7967.393179
160.048300,222.061783,6883.915261,-4903.011187
160.048610,-2442.679609,5847.626942,9499.584175
160.048919,-1776.494261,4811.338623,7967.393179
160.049229,-0.000000,6661.853478,1378.971896
160.049538,2368.659014,12805.562797,689.485948
160.049847,3256.906145,5773.606348,-7890.783629
160.050157,1924.535449,13693.809927,-11644.651570
160.050466,-1258.350101,11843.295072,-2834.553343
160.050776,-518.144159,7402.059420,1532.190996
160.051085,-3775.050304,10584.944971,1608.800546
160.051395,148.041188,11547.212695,1915.238745
160.051704,148.041188,8956.491898,-2681.334243
160.052014,-1702.473667,9696.697840,-6511.811733
160.052323,148.041188,7254.018232,-6511.811733
160.052633,-1332.370696,11695.253884,-1608.800546
160.052942,-222.061783,10288.862594,-306.438199
160.053252,2220.617826,13915.871710,1378.971896
160.053561,1480.411884,11843.295072,3370.820191
160.053871,3849.070898,7994.224174,459.657299
160.054180,-1258.350101,7105.977043,-3217.601092
160.054489,-3256.906145,3849.070898,1838.629195
160.054799,-5033.400406,5329.482782,-2528.115143
160.055108,592.164754,12509.480420,-7737.564530
160.055418,962.267725,14582.057057,-9652.803275
160.055727,-74.020594,11695.253884,-4596.572988
160.056037,2368.659014,9844.739029,-1225.752797
160.056346,-0.000000,5847.626942,1608.800546
160.056656,-2146.597232,11103.089130,3983.696590
160.056965,-148.041188,3997.112087,3753.867940
160.057275,-296.082377,6587.832884,2911.162892
160.057584,666.185348,11917.315666,-2451.505594
160.057894,2146.597232,8882.471304,-10112.460574
160.058203,148.041188,10510.924376,-4596.572988
160.058513,-2812.782580,9992.780217,4749.792088
160.058822,-1480.411884,8142.265362,3600.648841
160.059131,-3701.029710,14434.015869,-306.438199
160.059441,-0.000000,6809.894666,-2221.676944
160.059750,-0.000000,6217.729913,-5515.887586
160.060060,-1258.350101,7105.977043,-2757.943793
160.060369,1924.535449,10140.821405,-383.047749
160.060679,-1406.391290,11177.109724,-1455.581446
160.060988,-888.247130,11251.130318,4979.620737
160.061298,-444.123565,12287.418637,5132.839837
160.061607,1110.308913,7254.018232,-1838.629195
160.061917,2516.700203,4367.215058,-10572.117872
160.062226,-888.247130,5403.503377,-2068.457845
160.062536,-444.123565,11843.295072,153.219100
160.062845,2590.720797,8734.430116,-2374.896044
160.063155,-666.185348,13101.645173,-689.485948
160.063464,-740.205942,13397.727550,4060.306139
160.063773,444.123565,7994.224174,-2834.553343
160.064083,2738.761985,7179.997637,-4060.306139
160.064392,-3404.947333,7105.977043,-612.876398
160.064702,-3108.864956,8956.491898,229.828649
160.065011,-518.144159,10362.883188,-383.047749
160.065321,5107.421000,12953.603985,-2374.896044
160.065630,444.123565,13101.645173,-3294.210641
160.065940,370.102971,10288.862594,-689.485948
160.066249,592.164754,11103.089130,4596.572988
160.066559,1110.308913,6883.915261,-1302.362347
160.066868,-74.020594,5329.482782,-2221.676944
160.067178,-2368.659014,8512.368333,3524.039291
160.067487,1554.432478,11325.150913,-2987.772442
160.067797,3330.926739,5255.462188,-7890.783629
160.068106,-1406.391290,9474.636058,919.314598
160.068415,-3404.947333,9474.636058,8044.002729
160.068725,-74.020594,7476.080014,1072.533697
160.069034,2368.659014,7994.224174,3217.601092
160.069344,1258.350101,6735.874072,1608.800546
160.069653,-4441.235652,14137.933492,-2987.772442
160.069963,-2738.761985,11621.233289,-3600.648841
160.070272,3923.091493,8364.327145,-3524.039291
160.070582,-2368.659014,6069.688724,-3370.820191
160.070891,-8364.327145,15174.221811,4903.011187
160.071201,-2072.576638,13397.727550,4136.915689
160.071510,6217.729913,6809.894666,-7814.174080
160.071820,1776.494261,2368.659014,-6281.983084
160.072129,-7031.956449,6365.771101,5822.325785
160.072439,370.102971,8216.285956,3677.258390
160.072748,1850.514855,3627.009116,-2681.334243
160.073057,888.247130,11843.295072,1915.238745
160.073367,-370.102971,8734.430116,3064.381992
160.073676,-1258.350101,8586.388927,-3907.087040
160.073986,2368.659014,9474.636058,-4136.915689
160.074295,296.082377,8882.471304,-306.438199
160.074605,-5329.482782,10658.965565,2451.505594
160.074914,-4959.379811,15322.262999,612.876398
160.075224,6143.709319,12657.521608,-7660.954980
160.075533,2886.803174,11399.171507,-13100.233016
160.075843,-2368.659014,9400.615463,-459.657299
160.076152,-5329.482782,15100.201217,4826.401637
160.076462,5921.647536,6143.709319,-4673.182538
160.076771,296.082377,4293.194464,-612.876398
160.077081,-2516.700203,7698.141797,9959.241474
160.077390,1406.391290,6439.791695,842.705048
160.077699,4737.318029,1702.473667,-6894.859482
160.078009,1776.494261,5847.626942,-3600.648841
160.078318,-814.226536,8512.368333,995.924147
160.078628,-1480.411884,11547.212695,0.000000
160.078937,222.061783,11029.068536,-1838.629195
160.079247,-370.102971,9548.656652,0.000000
160.079556,740.205942,11695.253884,-2757.943793
160.079866,-74.020594,8956.491898,-5898.935335
160.080175,1702.473667,13249.686362,-7507.735880
160.080485,-74.020594,10658.965565,-3907.087040
160.080794,-3627.009116,13175.665768,4443.353888
160.081104,-1776.494261,13767.830521,4596.572988
160.081413,4959.379811,4737.318029,-5515.887586
160.081723,-888.247130,3404.947333,-4596.572988
160.082032,-2812.782580,7624.121203,4136.915689
160.082342,-592.164754,4441.235652,689.485948
160.082651,-1110.308913,5921.647536,-3370.820191
160.082961,592.164754,12583.501014,0.000000
160.083270,148.041188,9992.780217,-4443.353888
160.083580,3478.967927,10658.965565,-4596.572988
160.083889,-0.000000,10807.006753,0.000000
160.084199,-3478.967927,9918.759623,3447.429741
160.084508,-2738.761985,9474.636058,2374.896044
160.084818,1332.370696,9918.759623,306.438199
160.085127,3775.050304,15396.283594,-8886.707777
160.085437,-148.041188,13101.645173,-7967.393179
160.085746,-222.061783,7476.080014,-3294.210641
160.086056,2368.659014,8512.368333,-76.609550
160.086365,518.144159,5847.626942,4596.572988
160.086675,-4589.276840,8512.368333,11031.775171
160.086984,1998.556043,10066.800811,7814.174080
160.087294,3478.967927,7105.977043,-8886.707777
160.087603,-1184.329507,4737.318029,-9499.584175
160.087913,-3404.947333,8216.285956,-3370.820191
160.088222,2664.741391,11621.233289,-6435.202183
160.088532,2738.761985,8364.327145,-1685.410096
160.088841,-1258.350101,15766.386565,11721.261119
160.089151,-4737.318029,14582.057057,12027.699319
160.089460,888.247130,9918.759623,-3600.648841
160.089770,2590.720797,3182.885551,-12257.527968
160.090079,2072.576638,6883.915261,-9499.584175
160.090389,-5181.441594,11399.171507,-2145.067394
160.090698,-2738.761985,11769.274478,3217.601092
160.091008,4219.173869,14804.118840,4213.525239
160.091317,4663.297435,9992.780217,1072.533697
160.091627,-4145.153275,6069.688724,919.314598
160.091937,-3404.947333,1406.391290,2451.505594
160.092246,6735.874072,1184.329507,-4903.011187
160.092556,-0.000000,1110.308913,-4443.353888
160.092865,-4959.379811,12287.418637,6052.154434
160.093175,-814.226536,15840.407159,3217.601092
160.093484,4367.215058,13101.645173,-5669.106685
160.093794,-148.041188,11917.315666,-2298.286494
160.094103,-7624.121203,14508.036463,3600.648841
160.094413,-1850.514855,10807.006753,-3983.696590
160.094722,4071.132681,8882.471304,-8044.002729
160.095032,-888.247130,11843.295072,-5515.887586
160.095341,-1850.514855,10066.800811,-1532.190996
160.095651,-592.164754,10955.047942,-1149.143247
160.095960,4071.132681,5403.503377,1991.848295
160.096270,-148.041188,2738.761985,7814.174080
160.096579,-2072.576638,8068.244768,4673.182538
160.096889,1998.556043,9030.512492,-2451.505594
160.097198,3775.050304,5995.668130,-6511.811733
160.097508,74.020594,2368.659014,-8580.269578
160.097817,148.041188,8660.409521,-5669.106685
160.098127,1480.411884,15544.324782,-1225.752797
160.098436,-1924.535449,12213.398043,4596.572988
160.098746,-4219.173869,10584.944971,5822.325785
160.099055,-5107.421000,13545.768739,1838.629195
160.099365,2590.720797,14359.995275,-11951.089769
160.099674,-518.144159,9622.677246,-16088.005458
160.099984,-1036.288319,11325.150913,-9346.365076
160.100293,1332.370696,10214.842000,-4673.182538
160.100603,-1036.288319,7698.141797,5515.887586
160.100912,222.061783,9104.533087,13559.890315
160.101222,-1036.288319,3849.070898,6741.640382
160.101531,5255.462188,5255.462188,-5822.325785
160.101841,1258.350101,-0.000000,-6741.640382
160.102150,-1480.411884,5773.606348,-7201.297681
160.102460,-2072.576638,6587.832884,-2374.896044
160.102770,-592.164754,16062.468941,1915.238745
160.103079,2294.638420,16950.716072,-995.924147
160.103389,-3256.906145,10955.047942,-2374.896044
160.103698,-2812.782580,11547.212695,1685.410096
160.104008,518.144159,7624.121203,-6894.859482
160.104317,1850.514855,9548.656652,-12870.404366
160.104627,-5551.544565,11473.192101,536.266849
160.104936,-2072.576638,12583.501014,536.266849
160.105246,2072.576638,8956.491898,-5209.449386
160.105555,1332.370696,10066.800811,383.047749
160.105865,-1184.329507,2516.700203,6052.154434
160.106174,-1480.411884,3330.926739,4366.744339
160.106484,592.164754,3108.864956,-1532.190996
160.106793,3552.988522,4441.235652,459.657299
160.107103,2960.823768,9548.656652,-3677.258390
160.107412,-3108.864956,6661.853478,0.000000
160.107722,-1924.535449,13471.748144,6435.202183
160.108031,-2590.720797,17764.942608,0.000000
160.108341,1628.453072,18209.066173,-10955.165621
160.108650,-2368.659014,15840.407159,-7584.345430
160.108960,-3997.112087,10510.924376,-4213.525239
160.109269,-2294.638420,13619.789333,-6665.030833
160.109579,740.205942,12509.480420,-4903.011187
160.109888,2960.823768,8512.368333,-2757.943793
160.110198,-148.041188,3478.967927,2834.553343
160.110507,-1480.411884,5033.400406,13942.938064
160.110817,888.247130,4293.194464,6894.859482
160.111126,2442.679609,5329.482782,-6205.373534
160.111436,2812.782580,1776.494261,-3753.867940
160.111745,-3256.906145,4219.173869,1762.019645
160.112055,-962.267725,8956.491898,-5209.449386
160.112364,1628.453072,13693.809927,-6971.469032
160.112674,-370.102971,15396.283594,5132.839837
160.112983,-1924.535449,16284.530724,4060.306139
160.113293,2368.659014,13175.665768,-4443.353888
160.113603,-4071.132681,14878.139434,-2298.286494
160.113912,-3034.844362,14063.912898,-919.314598
160.114222,2590.720797,12879.583391,-10265.679673
160.114531,888.247130,10955.047942,-10112.460574
160.114841,-4293.194464,8438.347739,3600.648841
160.115150,-3182.885551,10807.006753,4903.011187
160.115460,4515.256246,3997.112087,-2681.334243
160.115769,3330.926739,-2072.576638,-459.657299
160.116079,-0.000000,5403.503377,6128.763984
160.116388,-296.082377,1850.514855,995.924147
160.116698,-222.061783,4515.256246,2528.115143
160.117007,2442.679609,8882.471304,1991.848295
160.117317,-1924.535449,12139.377449,-7124.688131
160.117626,-4367.215058,16654.633695,-4443.353888
160.117936,-148.041188,15248.242405,-2911.162892
160.118245,5255.462188,11991.336260,-12180.918418
160.118555,-0.000000,13915.871710,-7967.393179
160.118864,-5551.544565,10732.986159,5745.716235
160.119174,-4959.379811,7550.100608,2528.115143
160.119483,4959.379811,6809.894666,-459.657299
160.119793,-888.247130,8660.409521,-1072.533697
160.120102,-222.061783,9844.739029,-2374.896044
160.120412,1110.308913,9030.512492,-2221.676944
160.120721,-0.000000,6217.729913,-1685.410096
160.121031,-2368.659014,5181.441594,3370.820191
160.121340,-222.061783,7105.977043,919.314598
160.121650,-444.123565,6587.832884,76.609550
160.121959,1332.370696,7772.162391,2528.115143
160.122269,-1406.391290,10881.027347,0.000000
160.122578,-3997.112087,12953.603985,-5515.887586
160.122888,888.247130,15470.304188,-8350.440928
160.123197,7328.038826,15618.345376,-9499.584175
160.123507,666.185348,11917.315666,-766.095498
160.123816,-7698.141797,7179.997637,6205.373534
160.124126,-296.082377,8808.450710,4443.353888
160.124436,1332.370696,7698.141797,-2374.896044
160.124745,-814.226536,-1036.288319,-2757.943793
160.125055,740.205942,10140.821405,-4290.134789
160.125364,3997.112087,10214.842000,-11261.603821
160.125674,1332.370696,5551.544565,-5209.449386
160.125983,518.144159,13249.686362,8120.612279
160.126293,-2812.782580,10732.986159,6281.983084
160.126602,-2590.720797,9104.533087,229.828649
160.126912,3701.029710,3552.988522,0.000000
160.127221,5773.606348,4441.235652,-5439.278036
160.127531,-6365.771101,9548.656652,-2987.772442
160.127840,-7179.997637,15174.221811,2374.896044
160.128150,7550.100608,15766.386565,-10495.508323
160.128459,6291.750507,16136.489536,-11797.870669
160.128769,-8290.306550,9992.780217,5286.058936
160.129078,-9178.553681,8734.430116,9806.022374
160.129388,5403.503377,5181.441594,-8350.440928
160.129697,7031.956449,3849.070898,-9116.536426
160.130007,-370.102971,4885.359217,5056.230287
160.130316,-2368.659014,3034.844362,6665.030833
160.130626,1776.494261,8068.244768,2911.162892
160.130935,3478.967927,9178.553681,6665.030833
160.131245,-814.226536,11177.109724,3983.696590
160.131554,-2368.659014,16062.468941,-4290.134789
160.131864,740.205942,10510.924376,-11414.822920
160.132173,6587.832884,14137.933492,-14785.643111
160.132483,-3404.947333,12065.356855,-6358.592633
160.132792,-6365.771101,9918.759623,5592.497135
160.133102,444.123565,12953.603985,4979.620737
160.133411,6143.709319,5181.441594,-2221.676944
160.133721,222.061783,4145.153275,-153.219100
160.134030,-592.164754,6439.791695,4443.353888
160.134340,1924.535449,4663.297435,-2451.505594
160.134649,1702.473667,7031.956449,-3447.429741
160.134959,-592.164754,12435.459826,3600.648841
160.135269,592.164754,13619.789333,-536.266849
160.135578,2368.659014,12139.377449,-7507.735880
160.135888,1776.494261,10955.047942,-3830.477490
160.136197,-1480.411884,5699.585753,1838.629195
160.136507,-5477.523971,10584.944971,1225.752797
160.136816,-3923.091493,10881.027347,229.828649
160.137126,3108.864956,13249.686362,-7048.078582
160.137435,4885.359217,9992.780217,-6052.154434
160.137745,-5625.565159,6661.853478,1149.143247
160.138054,4219.173869,10066.800811,383.047749
160.138364,1776.494261,5403.503377,-3677.258390
160.138673,-592.164754,5773.606348,612.876398
160.138983,-5995.668130,9696.697840,7967.393179
160.139292,6439.791695,11177.109724,-3140.991542
160.139602,2960.823768,9326.594869,-11644.651570
160.139911,1480.411884,11177.109724,-3370.820191
160.140221,-3182.885551,6661.853478,3140.991542
160.140530,-4293.194464,7179.997637,-612.876398
160.140840,2590.720797,10881.027347,-2298.286494
160.141149,3404.947333,12731.542202,-2221.676944
160.141459,444.123565,9104.533087,919.314598
160.141768,-8142.265362,7920.203579,7048.078582
160.142078,3849.070898,16506.592507,-4903.011187
160.142387,6883.915261,11695.253884,-16854.100956
160.142697,-2146.597232,10214.842000,-6205.373534
160.143006,-4367.215058,12435.459826,6894.859482
160.143316,-1184.329507,11251.130318,-4673.182538
160.143625,3701.029710,10140.821405,-4749.792088
160.143935,370.102971,5329.482782,5975.544884
160.144244,814.226536,3404.947333,3524.039291
160.144554,-4071.132681,5551.544565,1302.362347
160.144863,-1406.391290,9770.718434,-2374.896044
160.145173,2664.741391,11177.109724,-8273.831378
160.145482,3775.050304,12065.356855,-9882.631924
160.145792,-4663.297435,12435.459826,-5362.668486
160.146101,1110.308913,14730.098246,1762.019645
160.146411,4737.318029,5921.647536,229.828649
160.146721,-222.061783,2442.679609,4136.915689
160.147030,-2220.617826,7846.182985,6818.249932
160.147340,296.082377,5625.565159,-153.219100
160.147649,-0.000000,9326.594869,-3753.867940
160.147959,3182.885551,13323.706956,-4290.134789
160.148268,4737.318029,19245.354492,-8810.098227
160.148578,-4737.318029,15248.242405,-2221.676944
160.148887,-7772.162391,13767.830521,5669.106685
160.149197,3478.967927,11251.130318,-5745.716235
160.149506,888.247130,10436.903782,-14785.643111
160.149816,-0.000000,3552.988522,-2834.553343
160.150125,3034.844362,6809.894666,2145.067394
160.150435,-444.123565,-2072.576638,153.219100
160.150744,-4145.153275,4367.215058,12257.527968
160.151054,5329.482782,5403.503377,4979.620737
160.151363,6513.812290,8364.327145,-10878.556072
160.151673,-3775.050304,9770.718434,-3217.601092
160.151982,-592.164754,7402.059420,306.438199
160.152292,6883.915261,10288.862594,-11414.822920
160.152601,1258.350101,11325.150913,-5515.887586
160.152911,-6809.894666,11325.150913,12257.527968
160.153220,-592.164754,13767.830521,3830.477490
160.153530,1110.308913,17912.983796,-4443.353888
160.153839,-592.164754,14211.954086,-2374.896044
160.154149,2072.576638,12139.377449,-6128.763984
160.154458,-740.205942,8734.430116,-9652.803275
160.154768,-3775.050304,1850.514855,-5669.106685
160.155077,1480.411884,10510.924376,-612.876398
160.155387,444.123565,7179.997637,-536.266849
160.155696,4367.215058,8364.327145,5209.449386
160.156006,4515.256246,1998.556043,9729.412825
160.156315,518.144159,740.205942,3600.648841
160.156625,-296.082377,8882.471304,4749.792088
160.156934,1924.535449,10658.965565,3753.867940
160.157244,3256.906145,13249.686362,-7354.516781
160.157554,-5847.626942,16580.613101,-2911.162892
160.157863,-7031.956449,17246.798449,-2528.115143
160.158173,4441.235652,15914.427753,-12410.747068
160.158482,1554.432478,13989.892304,-11874.480219
160.158792,-4589.276840,8364.327145,4519.963438
160.159101,-4737.318029,9770.718434,9806.022374
160.159411,-0.000000,8808.450710,1455.581446
160.159720,2960.823768,7402.059420,-3600.648841
160.160030,5329.482782,5921.647536,-3447.429741
160.160339,1776.494261,4367.215058,-2374.896044
160.160649,-2960.823768,4145.153275,919.314598
160.160958,-1184.329507,5921.647536,5745.716235
160.161268,3256.906145,11325.150913,919.314598
160.161577,1850.514855,12287.418637,-2757.943793
160.161887,-3330.926739,11769.274478,0.000000
160.162196,-444.123565,9400.615463,-5975.544884
160.162506,-518.144159,11769.274478,-9576.193725
160.162815,2146.597232,14211.954086,-5822.325785
160.163125,3182.885551,12435.459826,-2834.553343
160.163434,-2442.679609,9030.512492,5209.449386
160.163744,-3034.844362,8364.327145,10878.556072
160.164053,3330.926739,15100.201217,1455.581446
160.164363,3997.112087,7105.977043,-7354.516781
160.164672,962.267725,5329.482782,-3524.039291
160.164982,-4071.132681,5847.626942,-1225.752797
160.165291,1702.473667,13101.645173,-5592.497135
160.165601,2220.617826,13693.809927,-4979.620737
160.165910,2146.597232,13323.706956,4366.744339
160.166220,-1554.432478,7550.100608,5669.106685
160.166529,-5033.400406,6513.812290,2911.162892
160.166839,962.267725,4071.132681,-2145.067394
160.167148,6735.874072,2368.659014,-8350.440928
160.167458,-3034.844362,6735.874072,-5515.887586
160.167767,-10436.903782,12361.439231,5975.544884
160.168077,-1332.370696,17838.963202,-6971.469032
160.168387,8068.244768,12657.521608,-17696.806004
160.168696,5477.523971,12583.501014,-6665.030833
160.169006,-2960.823768,6883.915261,10189.070123
160.169315,-4959.379811,1036.288319,7354.516781
160.169625,3330.926739,7402.059420,3064.381992
160.169934,5773.606348,5921.647536,1072.533697
160.170244,-1406.391290,6217.729913,842.705048
160.170553,-2220.617826,12879.583391,383.047749
160.170863,1036.288319,13841.851115,-7814.174080
160.171172,6513.812290,11103.089130,-9499.584175
160.171482,-1554.432478,10881.027347,1378.971896
160.171791,-6439.791695,9844.739029,6511.811733
160.172101,444.123565,9326.594869,766.095498
160.172410,2220.617826,8068.244768,-2374.896044
160.172720,-2146.597232,5921.647536,1072.533697
160.173029,-1110.308913,11769.274478,76.609550
160.173339,1184.329507,5181.441594,-4060.306139
160.173648,-592.164754,11695.253884,-1608.800546
160.173958,1332.370696,15692.365970,1991.848295
160.174267,-592.164754,10214.842000,1072.533697
160.174577,-888.247130,14508.036463,4979.620737
160.174886,-1554.432478,6883.915261,383.047749
160.175196,3849.070898,370.102971,-6588.421283
160.175505,-3182.885551,2738.761985,-3064.381992
160.175815,-740.205942,9548.656652,3983.696590
160.176124,-148.041188,7550.100608,-536.266849
160.176434,1924.535449,10140.821405,-2374.896044
160.176743,-2812.782580,12583.501014,3294.210641
160.177053,2146.597232,14211.954086,-689.485948
160.177362,1998.556043,4737.318029,-7277.907231
160.177672,962.267725,7846.182985,536.266849
160.177981,2442.679609,13767.830521,2681.334243
160.178291,592.164754,12583.501014,-766.095498
160.178600,-666.185348,17468.860231,2145.067394
160.178910,-1184.329507,17024.736666,2221.676944
160.179220,7328.038826,11843.295072,-8427.050478
160.179529,-5181.441594,5921.647536,76.609550
160.179839,-8290.306550,7105.977043,6281.983084
160.180148,-2294.638420,5699.585753,-3830.477490
160.180458,5625.565159,8216.285956,-18386.291952
160.180767,3182.885551,7031.956449,-7431.126331
160.181077,-1110.308913,6587.832884,5669.106685
160.181386,148.041188,6883.915261,9039.926876
160.181696,518.144159,5699.585753,7201.297681
160.182005,7105.977043,7994.224174,3907.087040
160.182315,-2886.803174,6291.750507,3677.258390
160.182624,-7031.956449,12731.542202,1915.238745
160.182934,1480.411884,17320.819043,-11797.870669
160.183243,4441.235652,13841.851115,-20991.016645
160.183553,-3849.070898,14137.933492,-4290.134789
160.183862,-7254.018232,10584.944971,8350.440928
160.184172,2516.700203,12065.356855,-3830.477490
160.184481,2368.659014,7920.203579,-5056.230287
160.184791,-1998.556043,6809.894666,6281.983084
160.185100,296.082377,5699.585753,6971.469032
160.185410,3552.988522,3404.947333,-7660.954980
160.185719,2664.741391,4071.132681,-7737.564530
160.186029,1850.514855,9474.636058,-76.609550
160.186338,-1628.453072,7920.203579,4673.182538
160.186647,-5255.462188,15322.262999,8963.317327
160.186957,-370.102971,16876.695478,1378.971896
160.187266,-740.205942,10066.800811,-14632.424012
160.187576,-0.000000,10436.903782,-9806.022374
160.187885,-3627.009116,8956.491898,-1915.238745
160.188195,-888.247130,6069.688724,-4903.011187
160.188504,-4071.132681,12139.377449,-2451.505594
160.188814,-2072.576638,10955.047942,4826.401637
160.189123,4589.276840,11177.109724,1608.800546
160.189433,1332.370696,2442.679609,-1915.238745
160.189742,1628.453072,1776.494261,-229.828649
160.190052,-3034.844362,3701.029710,4060.306139
160.190361,1480.411884,7402.059420,5132.839837
160.190671,370.102971,11621.233289,995.924147
160.190980,296.082377,17246.798449,-2528.115143
160.191290,888.247130,13989.892304,-5822.325785
160.191599,296.082377,12953.603985,-5745.716235
160.191909,-888.247130,11103.089130,-2221.676944
160.192218,-2886.803174,6291.750507,-4903.011187
