#time,accel_x,accel_y,accel_z
129.967013,1628.453072,6217.729913,-1302.362347
129.967323,-74.020594,10140.821405,0.000000
129.967633,-0.000000,9548.656652,-1225.752797
129.967942,222.061783,9326.594869,-2145.067394
129.968252,296.082377,9474.636058,-536.266849
129.968562,-592.164754,9326.594869,-1225.752797
129.968872,-0.000000,9400.615463,-689.485948
129.969181,518.144159,10510.924376,-536.266849
129.969491,296.082377,9400.615463,-383.047749
129.969801,962.267725,10288.862594,-689.485948
129.970110,-518.144159,8882.471304,-2068.457845
129.970420,444.123565,10066.800811,-1915.238745
129.970730,-962.267725,9400.615463,-1455.581446
129.971040,296.082377,10066.800811,-306.438199
129.971349,370.102971,10066.800811,-1608.800546
129.971659,-0.000000,8660.409521,-1149.143247
129.971969,-0.000000,8438.347739,-2221.676944
129.972279,-296.082377,9030.512492,-1608.800546
129.972588,666.185348,9252.574275,1838.629195
129.972898,814.226536,8068.244768,0.000000
129.973208,962.267725,8290.306550,842.705048
129.973518,2072.576638,7254.018232,689.485948
129.973827,4441.235652,6661.853478,1302.362347
129.974137,2368.659014,6735.874072,5515.887586
129.974447,1480.411884,7179.997637,10035.851024
129.974757,1258.350101,5699.585753,10112.460574
129.975066,6661.853478,9252.574275,7201.297681
129.975376,3627.009116,5847.626942,5745.716235
129.975686,-1110.308913,8586.388927,10878.556072
129.975996,-666.185348,11843.295072,12563.966167
129.976305,1480.411884,11769.274478,5132.839837
129.976615,2368.659014,12731.542202,3524.039291
129.976925,-2368.659014,13619.789333,16854.100956
129.977235,-11251.130318,16950.716072,14172.766713
129.977544,7846.182985,23686.590144,-2221.676944
129.977854,3775.050304,3182.885551,-1915.238745
129.978164,666.185348,13841.851115,15704.957709
129.978474,-19393.395680,8364.327145,32099.401366
129.978783,5551.544565,20503.704593,2987.772442
129.979093,3701.029710,5477.523971,-2604.724693
129.979403,-3256.906145,9992.780217,7354.516781
129.979713,-9252.574275,5773.606348,10725.336972
129.980022,-1184.329507,10214.842000,536.266849
129.980332,-518.144159,6809.894666,3140.991542
129.980642,-5773.606348,5033.400406,14019.547613
129.980952,7105.977043,5995.668130,10955.165621
129.981261,-7994.224174,-740.205942,16317.834107
129.981571,2368.659014,5403.503377,18462.901502
129.981881,-3256.906145,5699.585753,12334.137518
129.982190,-518.144159,6365.771101,-919.314598
129.982500,222.061783,11399.171507,4136.915689
129.982810,-370.102971,12879.583391,919.314598
129.983120,5773.606348,13915.871710,-3370.820191
129.983429,888.247130,12731.542202,14555.814462
129.983739,1480.411884,9104.533087,25587.589633
129.984049,-1998.556043,4737.318029,18922.558801
129.984359,2368.659014,6809.894666,12640.575717
129.984668,-2220.617826,4811.338623,10112.460574
129.984978,5773.606348,15544.324782,-2374.896044
129.985288,6217.729913,15470.304188,-7814.174080
129.985598,3923.091493,16358.551318,2451.505594
129.985907,-6735.874072,16506.592507,18462.901502
129.986217,-5255.462188,10658.965565,17007.320056
129.986527,1998.556043,11473.192101,4673.182538
129.986837,4441.235652,8068.244768,-4596.572988
129.987146,1998.556043,7846.182985,-1762.019645
129.987456,-814.226536,9474.636058,11108.384721
129.987766,-370.102971,12435.459826,15398.519510
129.988076,1776.494261,7920.203579,8580.269578
129.988385,5403.503377,5181.441594,7354.516781
129.988695,-3108.864956,2516.700203,5439.278036
129.989005,-8290.306550,3404.947333,9422.974625
129.989315,-1184.329507,7105.977043,2068.457845
129.989624,8882.471304,7846.182985,-9039.926876
129.989934,5773.606348,6883.915261,-536.266849
129.990244,-4071.132681,5625.565159,18999.168350
129.990554,-7105.977043,9474.636058,22063.550342
129.990863,1702.473667,11991.336260,7354.516781
129.991173,7105.977043,8882.471304,-4826.401637
129.991483,-1998.556043,11029.068536,-459.657299
129.991793,-7772.162391,12287.418637,3907.087040
129.992102,814.226536,14063.912898,-3370.820191
129.992412,9400.615463,13323.706956,-4673.182538
129.992722,-962.267725,11473.192101,10265.679673
129.993032,-5477.523971,6365.771101,27272.999729
129.993341,4145.153275,6291.750507,17007.320056
129.993651,4145.153275,4515.256246,3294.210641
129.993961,-2442.679609,4663.297435,9652.803275
129.994270,-148.041188,8882.471304,7660.954980
129.994580,2664.741391,-6291.750507,-7890.783629
129.994890,-6661.853478,-1184.329507,2451.505594
129.995200,740.205942,11029.068536,20454.749797
129.995509,-25241.022622,-6809.894666,27043.171079
129.995819,14804.118840,20133.601622,10648.727422
129.996129,6143.709319,5773.606348,-8503.660028
129.996439,-1480.411884,11029.068536,-6052.154434
129.996748,-3701.029710,12287.418637,14172.766713
129.997058,-1776.494261,9696.697840,7277.907231
129.997368,4293.194464,15100.201217,6971.469032
129.997678,-2368.659014,13915.871710,21680.502593
129.997987,-7550.100608,8956.491898,13942.938064
129.998297,-3701.029710,6143.709319,995.924147
129.998607,8808.450710,17838.963202,-459.657299
129.998917,-962.267725,10362.883188,-2681.334243
129.999226,-2812.782580,12805.562797,6205.373534
129.999536,296.082377,17912.983796,18156.463303
129.999846,-2812.782580,9918.759623,6894.859482
130.000156,8660.409521,10955.047942,2604.724693
130.000465,-6513.812290,8290.306550,19765.263848
130.000775,-2590.720797,6957.935855,20531.359346
130.001085,6883.915261,3775.050304,5362.668486
130.001395,6217.729913,7254.018232,4826.401637
130.001704,-1480.411884,222.061783,15551.738609
130.002014,2664.741391,4811.338623,12027.699319
130.002324,-3997.112087,8512.368333,11414.822920
130.002634,-6735.874072,10584.944971,13636.499864
130.002943,1184.329507,13545.768739,6052.154434
130.003253,814.226536,8438.347739,-2451.505594
130.003563,-4293.194464,10066.800811,4596.572988
130.003873,-7994.224174,10140.821405,12257.527968
130.004182,-2738.761985,12509.480420,5515.887586
130.004492,1554.432478,12731.542202,3830.477490
130.004802,2442.679609,15322.262999,7201.297681
130.005112,-4219.173869,15914.427753,9576.193725
130.005421,-7624.121203,12213.398043,3524.039291
130.005731,-2812.782580,14211.954086,-1455.581446
130.006041,3404.947333,11177.109724,-9806.022374
130.006350,5107.421000,9474.636058,-9882.631924
130.006660,-8142.265362,6735.874072,7124.688131
130.006970,-6365.771101,5033.400406,17160.539155
130.007280,3849.070898,4145.153275,5745.716235
130.007589,10214.842000,3182.885551,-3830.477490
130.007899,-1554.432478,1554.432478,3217.601092
130.008209,-9252.574275,1776.494261,11951.089769
130.008519,4367.215058,7846.182985,-1072.533697
130.008828,9252.574275,8586.388927,-14632.424012
130.009138,6069.688724,14285.974681,-612.876398
130.009448,-6587.832884,8586.388927,14019.547613
130.009758,-1480.411884,9326.594869,8427.050478
130.010067,5255.462188,10732.986159,-2681.334243
130.010377,6291.750507,5403.503377,-3370.820191
130.010687,2368.659014,11399.171507,2221.676944
130.010997,-9918.759623,8512.368333,4749.792088
130.011306,5921.647536,13915.871710,-7354.516781
130.011616,8438.347739,13619.789333,-18156.463303
130.011926,-74.020594,11843.295072,-2068.457845
130.012236,-2368.659014,9178.553681,13789.718964
130.012545,7772.162391,11251.130318,4213.525239
130.012855,8734.430116,7846.182985,-4596.572988
130.013165,4737.318029,1332.370696,5209.449386
130.013475,-3849.070898,2738.761985,8350.440928
130.013784,3404.947333,6439.791695,-6128.763984
130.014094,6587.832884,11547.212695,-12257.527968
130.014404,962.267725,11991.336260,-5209.449386
130.014714,-4367.215058,12657.521608,5975.544884
130.015023,-1924.535449,6809.894666,4903.011187
130.015333,1628.453072,8882.471304,-1608.800546
130.015643,2146.597232,5847.626942,229.828649
130.015953,-8882.471304,5847.626942,5975.544884
130.016262,-7328.038826,12805.562797,2681.334243
130.016572,3627.009116,17024.736666,-13023.623466
130.016882,6883.915261,21688.034101,-24515.055936
130.017192,-8068.244768,16136.489536,-919.314598
130.017501,-12065.356855,13397.727550,16241.224558
130.017811,1998.556043,9326.594869,689.485948
130.018121,5625.565159,4367.215058,-12487.356617
130.018430,-3997.112087,1924.535449,9959.241474
130.018740,-8956.491898,3923.091493,18156.463303
130.019050,7031.956449,7698.141797,-7660.954980
130.019360,11251.130318,10362.883188,-19535.435199
130.019669,-2368.659014,8882.471304,2528.115143
130.019979,-9400.615463,6957.935855,14096.157163
130.020289,148.041188,3034.844362,5362.668486
130.020599,7402.059420,4737.318029,-3907.087040
130.020908,-1258.350101,3182.885551,5592.497135
130.021218,-4145.153275,5773.606348,16394.443657
130.021528,296.082377,5921.647536,1762.019645
130.021838,8068.244768,10732.986159,-15245.300410
130.022147,4589.276840,14582.057057,-7354.516781
130.022457,-7920.203579,15766.386565,9193.145976
130.022767,-4885.359217,17394.839637,8886.707777
130.023077,3923.091493,11769.274478,-2528.115143
130.023386,3478.967927,12435.459826,-5132.839837
130.023696,-6365.771101,9474.636058,8273.831378
130.024006,-5329.482782,13101.645173,8273.831378
130.024316,7179.997637,16284.530724,-13559.890315
130.024625,9252.574275,19097.313304,-21067.626195
130.024935,-7920.203579,13915.871710,2298.286494
130.025245,-7105.977043,14434.015869,15321.909960
130.025555,7105.977043,12287.418637,0.000000
130.025864,1776.494261,4219.173869,-8580.269578
130.026174,-2886.803174,-1998.556043,10189.070123
130.026484,-7105.977043,962.267725,11491.432470
130.026794,2812.782580,2442.679609,-9652.803275
130.027103,10214.842000,9030.512492,-18079.853753
130.027413,-444.123565,9400.615463,-6128.763984
130.027723,-10658.965565,8586.388927,13253.452115
130.028033,1702.473667,7698.141797,7048.078582
130.028342,4811.338623,4145.153275,-10265.679673
130.028652,-3849.070898,1110.308913,1991.848295
130.028962,-9474.636058,6365.771101,18692.730151
130.029272,2590.720797,9992.780217,-3140.991542
130.029581,9770.718434,11547.212695,-21603.893044
130.029891,3627.009116,15914.427753,-6281.983084
130.030201,-8364.327145,13471.748144,5515.887586
130.030511,-296.082377,10584.944971,1225.752797
130.030820,5107.421000,10584.944971,-842.705048
130.031130,1332.370696,9844.739029,76.609550
130.031440,-2294.638420,9548.656652,6971.469032
130.031750,-2220.617826,11177.109724,4060.306139
130.032059,6217.729913,9400.615463,-11338.213370
130.032369,9622.677246,13471.748144,-18999.168350
130.032679,-1184.329507,11103.089130,-4213.525239
130.032989,-4071.132681,13101.645173,9806.022374
130.033298,2516.700203,9622.677246,5286.058936
130.033608,5847.626942,8216.285956,-4519.963438
130.033918,-1924.535449,-296.082377,2911.162892
130.034228,-9992.780217,2368.659014,8044.002729
130.034537,1628.453072,7846.182985,-6818.249932
130.034847,6883.915261,12805.562797,-20071.702048
130.035157,-592.164754,9178.553681,-8197.221829
130.035467,-5773.606348,10584.944971,10955.165621
130.035776,740.205942,9178.553681,4290.134789
130.036086,1110.308913,7846.182985,-3294.210641
130.036396,-4737.318029,4515.256246,6205.373534
130.036706,-9400.615463,5477.523971,12257.527968
130.037015,4441.235652,8586.388927,-6052.154434
130.037325,7402.059420,13101.645173,-21374.064394
130.037635,2516.700203,16210.510130,-8044.002729
130.037945,-6365.771101,11843.295072,5898.935335
130.038254,-1924.535449,11177.109724,4979.620737
130.038564,2442.679609,6661.853478,2604.724693
130.038874,1702.473667,4293.194464,2681.334243
130.039184,-4367.215058,4367.215058,8197.221829
130.039493,-3034.844362,8290.306550,5209.449386
130.039803,7994.224174,11621.233289,-8810.098227
130.040113,7624.121203,12657.521608,-19152.387450
130.040423,-2664.741391,12879.583391,-2451.505594
130.040732,-5181.441594,12139.377449,11951.089769
130.041042,3108.864956,10362.883188,2757.943793
130.041352,1998.556043,9104.533087,-3217.601092
130.041662,-2146.597232,6143.709319,8197.221829
130.041971,-10066.800811,6883.915261,12334.137518
130.042281,1998.556043,8364.327145,-5592.497135
130.042591,5995.668130,11695.253884,-18845.949251
130.042901,1406.391290,12435.459826,-9806.022374
130.043210,-9548.656652,14952.160028,7584.345430
130.043520,-5403.503377,15914.427753,5362.668486
130.043830,6069.688724,10881.027347,-7048.078582
130.044140,-2368.659014,3552.988522,-2834.553343
130.044449,-12805.562797,3701.029710,14938.862211
130.044759,-1184.329507,6513.812290,2987.772442
130.045069,8734.430116,10140.821405,-18462.901502
130.045379,8438.347739,12435.459826,-11874.480219
130.045688,-7994.224174,13397.727550,6665.030833
130.045998,-2220.617826,11177.109724,6128.763984
130.046308,2368.659014,6513.812290,-2451.505594
130.046618,4219.173869,4441.235652,-4290.134789
130.046927,-7698.141797,518.144159,7584.345430
130.047237,-5107.421000,5403.503377,10572.117872
130.047547,8438.347739,7846.182985,-8044.002729
130.047857,11325.150913,11473.192101,-20454.749797
130.048166,-3256.906145,9770.718434,1838.629195
130.048476,-11991.336260,13249.686362,13866.328514
130.048786,6069.688724,10214.842000,-5056.230287
130.049096,8660.409521,10732.986159,-13253.452115
130.049405,-5995.668130,10955.047942,8810.098227
130.049715,-11251.130318,16654.633695,12793.794817
130.050025,10066.800811,8512.368333,-10495.508323
130.050335,13175.665768,13323.706956,-20914.407095
130.050644,-2146.597232,14730.098246,-1378.971896
130.050954,-10881.027347,12953.603985,14402.595362
130.051264,148.041188,12361.439231,0.000000
130.051574,9400.615463,12213.398043,-13636.499864
130.051883,444.123565,5699.585753,-2451.505594
130.052193,-11991.336260,1406.391290,12257.527968
130.052503,-2294.638420,4589.276840,0.000000
130.052813,7476.080014,9178.553681,-15321.909960
130.053122,6587.832884,9474.636058,-11414.822920
130.053432,-10140.821405,9474.636058,7737.564530
130.053742,-5255.462188,10436.903782,7354.516781
130.054052,5477.523971,8512.368333,-10265.679673
130.054361,2960.823768,4071.132681,-12410.747068
130.054671,-13397.727550,3182.885551,13636.499864
130.054981,-7550.100608,7105.977043,11797.870669
130.055291,9252.574275,7476.080014,-14249.376263
130.055600,7031.956449,12805.562797,-15321.909960
130.055910,-10807.006753,9474.636058,7354.516781
130.056220,-4959.379811,13471.748144,5056.230287
130.056530,4663.297435,10881.027347,-11031.775171
130.056839,4293.194464,13915.871710,-11644.651570
130.057149,-6587.832884,7105.977043,5898.935335
130.057459,-6439.791695,7698.141797,10495.508323
130.057769,6809.894666,11843.295072,-3447.429741
130.058078,10362.883188,8734.430116,-14096.157163
130.058388,-1702.473667,9400.615463,-1915.238745
130.058698,-8290.306550,11917.315666,12563.966167
130.059008,2960.823768,10807.006753,0.000000
130.059317,8808.450710,9622.677246,-15551.738609
130.059627,-3701.029710,10362.883188,229.828649
130.059937,-11029.068536,9178.553681,15475.129060
130.060247,2812.782580,9252.574275,-6358.592633
130.060556,7772.162391,7550.100608,-19688.654299
130.060866,-1998.556043,9326.594869,-4749.792088
130.061176,-8290.306550,10658.965565,7354.516781
130.061486,1554.432478,10510.924376,2145.067394
130.061795,5551.544565,10214.842000,-8350.440928
130.062105,-2368.659014,6365.771101,-1149.143247
130.062415,-7328.038826,5551.544565,9193.145976
130.062725,-2368.659014,9696.697840,-4060.306139
130.063034,7105.977043,8290.306550,-15168.690860
130.063344,6809.894666,10807.006753,-15628.348159
130.063654,-7772.162391,8068.244768,3677.258390
130.063964,-4367.215058,11695.253884,10342.289223
130.064273,1850.514855,6439.791695,-1149.143247
130.064583,6735.874072,9252.574275,-8733.488677
130.064893,-5551.544565,7698.141797,5515.887586
130.065203,-3923.091493,9474.636058,8580.269578
130.065512,6513.812290,12213.398043,-8350.440928
130.065822,9770.718434,13249.686362,-18616.120601
130.066132,-0.000000,9844.739029,2681.334243
130.066442,-9622.677246,9696.697840,13713.109414
130.066751,2590.720797,9844.739029,0.000000
130.067061,5847.626942,10288.862594,-8886.707777
130.067371,-1554.432478,9104.533087,-689.485948
130.067681,-5329.482782,7031.956449,6971.469032
130.067990,3701.029710,8586.388927,-3217.601092
130.068300,7402.059420,9770.718434,-11261.603821
130.068610,-1406.391290,9400.615463,-3600.648841
130.068920,-7550.100608,9474.636058,9806.022374
130.069229,296.082377,10436.903782,1455.581446
130.069539,3182.885551,13915.871710,-7277.907231
130.069849,2072.576638,10732.986159,-3064.381992
130.070159,-9104.533087,5551.544565,4749.792088
130.070468,-222.061783,7994.224174,0.000000
130.070778,3997.112087,5773.606348,-9806.022374
130.071088,2886.803174,10881.027347,-10801.946522
130.071398,-4663.297435,10436.903782,2298.286494
130.071707,-6439.791695,12287.418637,7737.564530
130.072017,4885.359217,9252.574275,-3677.258390
130.072327,6365.771101,7920.203579,-13176.842566
130.072637,-9844.739029,5699.585753,4673.182538
130.072946,-6365.771101,6957.935855,12180.918418
130.073256,5477.523971,10881.027347,-7660.954980
130.073566,10362.883188,12657.521608,-19382.216099
130.073876,-3256.906145,11325.150913,1762.019645
130.074186,-11177.109724,9474.636058,16930.710506
130.074495,2516.700203,11251.130318,-1532.190996
130.074805,6735.874072,10288.862594,-12793.794817
130.075115,-518.144159,7994.224174,-766.095498
130.075425,-11991.336260,9918.759623,8656.879127
130.075734,2442.679609,12213.398043,-4213.525239
130.076044,7402.059420,11103.089130,-15398.519510
130.076354,1332.370696,10732.986159,-5822.325785
130.076664,-8290.306550,8142.265362,10265.679673
130.076973,-4367.215058,10288.862594,6741.640382
130.077283,6143.709319,9696.697840,-8810.098227
130.077593,5699.585753,5625.565159,-10572.117872
130.077903,-6587.832884,7550.100608,5975.544884
130.078212,-6809.894666,7402.059420,7354.516781
130.078522,3478.967927,6069.688724,-8427.050478
130.078832,8512.368333,9548.656652,-16164.615008
130.079142,-4515.256246,7031.956449,2681.334243
130.079451,-10658.965565,11843.295072,12180.918418
130.079761,3404.947333,8956.491898,-1225.752797
130.080071,9178.553681,8438.347739,-13483.280765
130.080381,-6365.771101,5329.482782,5975.544884
130.080690,-9696.697840,10807.006753,14709.033562
130.081000,7402.059420,8882.471304,-9959.241474
130.081310,7476.080014,9326.594869,-19995.092498
130.081620,-1184.329507,11769.274478,1072.533697
130.081929,-11325.150913,11473.192101,10955.165621
130.082239,518.144159,12287.418637,-1532.190996
130.082549,9696.697840,11621.233289,-7277.907231
130.082859,2072.576638,10288.862594,-1072.533697
130.083168,-9474.636058,6809.894666,13483.280765
130.083478,1480.411884,8512.368333,2757.943793
130.083788,11177.109724,9326.594869,-18079.853753
130.084098,6439.791695,9992.780217,-14096.157163
130.084407,-10510.924376,11325.150913,13406.671215
130.084717,-1110.308913,12139.377449,8963.317327
130.085027,12435.459826,7550.100608,-12640.575717
130.085337,5699.585753,6661.853478,-8350.440928
130.085646,-14063.912898,5551.544565,16394.443657
130.085956,-3552.988522,7772.162391,7890.783629
130.086266,12065.356855,8808.450710,-19458.825649
130.086576,7698.141797,14359.995275,-15628.348159
130.086885,-10510.924376,13249.686362,9269.755526
130.087195,-5625.565159,11917.315666,9039.926876
130.087505,6143.709319,10881.027347,-6281.983084
130.087815,5477.523971,7624.121203,-6358.592633
130.088124,-7550.100608,5403.503377,7660.954980
130.088434,-3701.029710,7254.018232,6052.154434
130.088744,2738.761985,12287.418637,-8886.707777
130.089054,8290.306550,13249.686362,-17773.415554
130.089363,-3256.906145,10436.903782,-4749.792088
130.089673,-7624.121203,10807.006753,8503.660028
130.089983,-518.144159,8956.491898,2298.286494
130.090293,8512.368333,7402.059420,-8656.879127
130.090602,-0.000000,6513.812290,229.828649
130.090912,-10436.903782,3775.050304,14479.204912
130.091222,-0.000000,11325.150913,2528.115143
130.091532,8734.430116,9622.677246,-18999.168350
130.091841,1924.535449,11695.253884,-10418.898773
130.092151,-11843.295072,12583.501014,9806.022374
130.092461,2886.803174,11399.171507,536.266849
130.092771,5255.462188,11621.233289,-12793.794817
130.093080,2442.679609,9178.553681,-536.266849
130.093390,-8660.409521,7772.162391,16164.615008
130.093700,-3478.967927,6735.874072,5286.058936
130.094010,6587.832884,10214.842000,-13713.109414
130.094319,3701.029710,10881.027347,-10955.165621
130.094629,-4959.379811,16580.613101,-536.266849
130.094939,-3256.906145,15470.304188,1608.800546
130.095249,7328.038826,16210.510130,-5515.887586
130.095558,6883.915261,9178.553681,-10035.851024
130.095868,-6143.709319,962.267725,6894.859482
130.096178,-9030.512492,3849.070898,17926.634653
130.096488,2812.782580,6957.935855,-1225.752797
130.096797,7105.977043,10066.800811,-18922.558801
130.097107,-1776.494261,11325.150913,-5745.716235
130.097417,-6143.709319,12361.439231,5286.058936
130.097727,4663.297435,11843.295072,-6971.469032
130.098036,5995.668130,5107.421000,-10342.289223
130.098346,-5625.565159,7179.997637,7967.393179
130.098656,-7846.182985,5329.482782,15934.786358
130.098966,1702.473667,9252.574275,1225.752797
130.099275,6957.935855,10807.006753,-14938.862211
130.099585,2886.803174,13767.830521,-12793.794817
130.099895,-5477.523971,10658.965565,1838.629195
130.100205,1332.370696,10807.006753,1991.848295
130.100514,6513.812290,11769.274478,-7354.516781
130.100824,3404.947333,5033.400406,-1838.629195
130.101134,-13175.665768,5921.647536,18386.291952
130.101444,-4367.215058,11769.274478,11644.651570
130.101753,8216.285956,6883.915261,-15858.176809
130.102063,9104.533087,9844.739029,-21603.893044
130.102373,-5995.668130,11547.212695,919.314598
130.102683,-6661.853478,11251.130318,4443.353888
130.102992,8956.491898,12139.377449,-7048.078582
130.103302,1776.494261,6735.874072,-6665.030833
130.103612,-4293.194464,4737.318029,13789.718964
130.103922,-7698.141797,3552.988522,16241.224558
130.104231,1998.556043,8512.368333,-5515.887586
130.104541,10658.965565,12435.459826,-18309.682402
130.104851,2368.659014,11029.068536,-12257.527968
130.105161,-7920.203579,12065.356855,1608.800546
130.105470,3997.112087,13915.871710,3447.429741
130.105780,5477.523971,7031.956449,-6281.983084
130.106090,1184.329507,4293.194464,1149.143247
130.106400,-11103.089130,3182.885551,21220.845295
130.106709,-2072.576638,4589.276840,8963.317327
130.107019,8586.388927,7105.977043,-18462.901502
130.107329,7994.224174,10510.924376,-17850.025103
130.107639,-9104.533087,13249.686362,4673.182538
130.107948,-3108.864956,16580.613101,4290.134789
130.108258,8068.244768,9992.780217,-11261.603821
130.108568,2664.741391,9474.636058,-6665.030833
130.108878,-10288.862594,5699.585753,14938.862211
130.109187,-7402.059420,5403.503377,13483.280765
130.109497,7476.080014,10140.821405,-8120.612279
130.109807,13619.789333,11843.295072,-16547.662757
130.110117,-4663.297435,11843.295072,-3753.867940
130.110426,-8512.368333,9104.533087,10342.289223
130.110736,4737.318029,10881.027347,-3524.039291
130.111046,6587.832884,7328.038826,-13942.938064
130.111356,-4515.256246,5699.585753,6358.592633
130.111665,-13249.686362,5995.668130,17696.806004
130.111975,-518.144159,7994.224174,-229.828649
130.112285,11843.295072,11991.336260,-17696.806004
130.112595,148.041188,11473.192101,-11031.775171
130.112904,-10214.842000,11251.130318,7967.393179
130.113214,222.061783,12879.583391,4596.572988
130.113524,7698.141797,8882.471304,-12257.527968
130.113834,3182.885551,6513.812290,-5975.544884
130.114143,-10214.842000,4293.194464,16088.005458
130.114453,-5107.421000,8068.244768,13100.233016
130.114763,10362.883188,9178.553681,-14632.424012
130.115073,8438.347739,14137.933492,-17237.148705
130.115382,-10955.047942,11621.233289,7277.907231
130.115692,-3330.926739,13693.809927,6511.811733
130.116002,10362.883188,10362.883188,-14402.595362
130.116312,6365.771101,6661.853478,-13866.328514
130.116621,-13545.768739,6217.729913,17007.320056
130.116931,-5921.647536,8438.347739,18079.853753
130.117241,6069.688724,7179.997637,-7201.297681
130.117551,9844.739029,11621.233289,-14785.643111
130.117860,-4885.359217,8808.450710,919.314598
130.118170,-7402.059420,9770.718434,6511.811733
130.118480,5329.482782,15100.201217,-5592.497135
130.118790,9992.780217,9030.512492,-14938.862211
130.119099,-7105.977043,10066.800811,3447.429741
130.119409,-12805.562797,6957.935855,21220.845295
130.119719,3108.864956,10214.842000,2987.772442
130.120029,11991.336260,12361.439231,-19612.044749
130.120338,-518.144159,9770.718434,-7967.393179
130.120648,-9326.594869,11103.089130,13253.452115
130.120958,2442.679609,11843.295072,-1302.362347
130.121268,12879.583391,9548.656652,-18616.120601
130.121577,-0.000000,8882.471304,0.000000
130.121887,-14804.118840,5847.626942,22216.769442
130.122197,-518.144159,10066.800811,8656.879127
130.122507,11695.253884,10066.800811,-16164.615008
130.122816,5107.421000,8956.491898,-13100.233016
130.123126,-10214.842000,10510.924376,6971.469032
130.123436,740.205942,7994.224174,2757.943793
130.123746,10288.862594,10807.006753,-12257.527968
130.124055,5995.668130,6513.812290,-4366.744339
130.124365,-13693.809927,3997.112087,18079.853753
130.124675,-5403.503377,8216.285956,15321.909960
130.124984,8512.368333,9474.636058,-10878.556072
130.125294,7550.100608,11177.109724,-16547.662757
130.125604,-5995.668130,10955.047942,3600.648841
130.125913,-4071.132681,11843.295072,3600.648841
130.126223,7476.080014,10732.986159,-7967.393179
130.126533,5625.565159,6883.915261,-7277.907231
130.126842,-8808.450710,5921.647536,8350.440928
130.127152,-12657.521608,8068.244768,18079.853753
130.127462,5033.400406,11103.089130,-1915.238745
130.127771,10288.862594,12657.521608,-20837.797546
130.128081,1850.514855,11769.274478,-11031.775171
130.128391,-10436.903782,10140.821405,7354.516781
130.128700,2886.803174,11029.068536,-995.924147
130.129010,7328.038826,8216.285956,-11874.480219
130.129320,-518.144159,7698.141797,3064.381992
130.129630,-10955.047942,2664.741391,19458.825649
130.129939,-1554.432478,4737.318029,4826.401637
130.130249,6587.832884,10362.883188,-14938.862211
130.130559,2886.803174,7624.121203,-13942.938064
130.130868,-5773.606348,12435.459826,-536.266849
130.131178,-0.000000,14804.118840,-689.485948
130.131488,4219.173869,11325.150913,-7124.688131
130.131797,3182.885551,8660.409521,-1685.410096
130.132107,-9548.656652,6661.853478,12257.527968
130.132417,-1998.556043,10066.800811,11721.261119
130.132726,4885.359217,9548.656652,-6281.983084
130.133036,7550.100608,8808.450710,-16394.443657
130.133346,-3997.112087,12435.459826,-1838.629195
130.133655,-4367.215058,12657.521608,5056.230287
130.133965,2960.823768,11399.171507,-5669.106685
130.134275,5625.565159,7328.038826,-6128.763984
130.134585,-4737.318029,9178.553681,6665.030833
130.134894,-9030.512492,6587.832884,13559.890315
130.135204,2368.659014,8142.265362,-153.219100
130.135514,9992.780217,9696.697840,-9652.803275
130.135823,-296.082377,10955.047942,-8197.221829
130.136133,-4737.318029,9844.739029,5515.887586
130.136443,444.123565,11991.336260,-153.219100
130.136752,4737.318029,8438.347739,-8503.660028
130.137062,1554.432478,8808.450710,1302.362347
130.137372,-7402.059420,6217.729913,12487.356617
130.137681,-5181.441594,6217.729913,7737.564530
130.137991,8216.285956,10510.924376,-9959.241474
130.138301,8068.244768,9252.574275,-17237.148705
130.138610,-7550.100608,9474.636058,842.705048
130.138920,-4441.235652,10584.944971,12257.527968
130.139230,4441.235652,10881.027347,-2834.553343
130.139540,8808.450710,8216.285956,-8427.050478
130.139849,-10066.800811,8660.409521,12180.918418
130.140159,-9844.739029,11621.233289,14709.033562
130.140469,6217.729913,8142.265362,-10495.508323
130.140778,9770.718434,12213.398043,-23212.693589
130.141088,-4293.194464,13101.645173,-3830.477490
130.141398,-7846.182985,9474.636058,11184.994271
130.141707,4663.297435,9400.615463,1225.752797
130.142017,5921.647536,7994.224174,-5822.325785
130.142327,-2368.659014,5255.462188,6205.373534
130.142636,-8364.327145,5773.606348,14938.862211
130.142946,-888.247130,9548.656652,919.314598
130.143256,9400.615463,8512.368333,-18999.168350
130.143565,6513.812290,8364.327145,-17850.025103
130.143875,-9030.512492,10362.883188,3447.429741
130.144185,-2220.617826,9918.759623,12104.308868
130.144494,7550.100608,9030.512492,-1838.629195
130.144804,5403.503377,8734.430116,-995.924147
130.145114,-13915.871710,7772.162391,20301.530697
130.145424,-3849.070898,8956.491898,13789.718964
130.145733,9252.574275,9474.636058,-21220.845295
130.146043,10658.965565,13619.789333,-24285.227287
130.146353,-8734.430116,14952.160028,153.219100
130.146662,-6217.729913,12435.459826,8427.050478
130.146972,2516.700203,11843.295072,0.000000
130.147282,6735.874072,10658.965565,-2528.115143
130.147591,-11917.315666,7846.182985,14249.376263
130.147901,-4737.318029,6291.750507,13713.109414
130.148211,6957.935855,6883.915261,-12563.966167
130.148520,13397.727550,8290.306550,-23365.912689
130.148830,-7031.956449,10658.965565,-4366.744339
130.149140,-6661.853478,9548.656652,10495.508323
130.149449,3552.988522,8290.306550,919.314598
130.149759,4737.318029,10066.800811,-6511.811733
130.150069,-4589.276840,7179.997637,6358.592633
130.150379,-11769.274478,4811.338623,14785.643111
130.150688,4071.132681,9918.759623,-3524.039291
130.150998,9918.759623,11547.212695,-22523.207641
130.151308,1332.370696,11399.171507,-12410.747068
130.151617,-9548.656652,12657.521608,8810.098227
130.151927,666.185348,12953.603985,7354.516781
130.152237,7550.100608,7476.080014,-4673.182538
130.152546,-2812.782580,9326.594869,5515.887586
130.152856,-12731.542202,5033.400406,17160.539155
130.153166,-814.226536,9252.574275,5669.106685
130.153475,9992.780217,11621.233289,-21603.893044
130.153785,10214.842000,11029.068536,-20224.921147
130.154095,-6809.894666,12731.542202,2528.115143
130.154404,-5995.668130,11029.068536,9116.536426
130.154714,3627.009116,10807.006753,-1608.800546
130.155024,7476.080014,4885.359217,-2604.724693
130.155334,-10584.944971,5847.626942,12334.137518
130.155643,-7031.956449,5403.503377,13866.328514
130.155953,5033.400406,5255.462188,-10495.508323
130.156263,11991.336260,10214.842000,-24668.275036
130.156572,-1998.556043,10732.986159,-8120.612279
130.156882,-7328.038826,11843.295072,5515.887586
130.157192,1036.288319,12139.377449,1455.581446
130.157501,9474.636058,7328.038826,-4979.620737
130.157811,-3701.029710,7624.121203,5669.106685
130.158121,-9548.656652,7105.977043,17313.758255
130.158430,-74.020594,8364.327145,-1072.533697
130.158740,8216.285956,9326.594869,-21757.112143
130.159050,6957.935855,14285.974681,-16011.395908
130.159359,-9326.594869,11695.253884,3370.820191
130.159669,-3849.070898,15174.221811,6894.859482
130.159979,4441.235652,12287.418637,-1378.971896
130.160288,5181.441594,6143.709319,-2068.457845
130.160598,-10584.944971,5921.647536,13713.109414
130.160908,-1332.370696,7994.224174,11568.042020
130.161218,8438.347739,8364.327145,-14862.252661
130.161527,6661.853478,7920.203579,-20684.578446
130.161837,-6809.894666,9992.780217,-153.219100
130.162147,-4737.318029,8290.306550,5209.449386
130.162456,1554.432478,11177.109724,-5286.058936
130.162766,6957.935855,9474.636058,-3447.429741
130.163076,-7328.038826,7994.224174,12410.747068
130.163385,-5477.523971,6513.812290,12640.575717
130.163695,3478.967927,6513.812290,-4979.620737
130.164005,8882.471304,8956.491898,-14096.157163
130.164314,-1258.350101,10732.986159,-8963.317327
130.164624,-4737.318029,9474.636058,5056.230287
130.164934,-2590.720797,13175.665768,3830.477490
130.165243,4663.297435,11029.068536,-4596.572988
130.165553,-6513.812290,6365.771101,1838.629195
130.165863,-9696.697840,9252.574275,14249.376263
130.166173,-1480.411884,10436.903782,306.438199
130.166482,10362.883188,12805.562797,-20378.140247
130.166792,4811.338623,13175.665768,-17390.367805
130.167102,-6735.874072,11843.295072,76.609550
130.167411,-2442.679609,10658.965565,7737.564530
130.167721,3923.091493,9252.574275,459.657299
130.168031,2664.741391,8882.471304,2068.457845
130.168340,-6957.935855,2738.761985,14325.985813
130.168650,-3256.906145,9474.636058,5439.278036
130.168960,2738.761985,7254.018232,-12947.013916
130.169269,8216.285956,10658.965565,-21144.235745
130.169579,-2812.782580,11103.089130,-8886.707777
130.169889,-5255.462188,16876.695478,4213.525239
130.170198,1110.308913,13693.809927,3217.601092
130.170508,5181.441594,7994.224174,-766.095498
130.170818,-6883.915261,6365.771101,9576.193725
130.171128,-7254.018232,4811.338623,17850.025103
130.171437,296.082377,10288.862594,-5745.716235
130.171747,10288.862594,9696.697840,-23672.350888
130.172057,-0.000000,11843.295072,-12563.966167
130.172366,-7624.121203,13101.645173,5209.449386
130.172676,-4219.173869,16802.674883,1072.533697
130.172986,7328.038826,12805.562797,-7584.345430
130.173295,-2516.700203,10658.965565,1072.533697
130.173605,-9844.739029,1850.514855,17696.806004
130.173915,-2886.803174,6365.771101,7507.735880
130.174224,10955.047942,8142.265362,-18692.730151
130.174534,7254.018232,7105.977043,-19305.606550
130.174844,-8808.450710,8882.471304,3830.477490
130.175153,-3404.947333,12065.356855,6358.592633
130.175463,5477.523971,9178.553681,-7431.126331
130.175773,6661.853478,9474.636058,-5286.058936
130.176082,-10140.821405,7698.141797,12717.185267
130.176392,-5477.523971,7105.977043,11568.042020
130.176702,5551.544565,7698.141797,-12180.918418
130.177012,11621.233289,11547.212695,-22982.864940
130.177321,-6291.750507,11769.274478,-3140.991542
130.177631,-5625.565159,13175.665768,10342.289223
130.177941,2368.659014,11177.109724,-3600.648841
130.178250,9104.533087,10881.027347,-10342.289223
130.178560,-5329.482782,8882.471304,5822.325785
130.178870,-10658.965565,7476.080014,17083.929605
130.179179,1850.514855,8142.265362,-995.924147
130.179489,12879.583391,11843.295072,-23365.912689
130.179799,-1406.391290,7105.977043,-13176.842566
130.180108,-10066.800811,8586.388927,11644.651570
130.180418,-1110.308913,11843.295072,3140.991542
130.180728,12139.377449,7772.162391,-13559.890315
130.181037,-666.185348,8586.388927,3217.601092
130.181347,-14656.077652,6439.791695,23748.960438
130.181657,-740.205942,6439.791695,5592.497135
130.181967,12731.542202,7624.121203,-19688.654299
130.182276,2442.679609,10955.047942,-16930.710506
130.182586,-13397.727550,10510.924376,-2374.896044
130.182896,-3849.070898,13841.851115,2145.067394
130.183205,7550.100608,10362.883188,-9729.412825
130.183515,5699.585753,13175.665768,-3524.039291
130.183825,-12435.459826,5181.441594,16777.491406
130.184134,-4811.338623,3997.112087,13942.938064
130.184444,7920.203579,7698.141797,-8503.660028
130.184754,8734.430116,9548.656652,-20607.968896
130.185063,-5995.668130,10955.047942,-3907.087040
130.185373,-5033.400406,12065.356855,7507.735880
130.185683,5107.421000,14063.912898,-7507.735880
130.185992,7476.080014,10510.924376,-9729.412825
130.186302,-8660.409521,9030.512492,10189.070123
130.186612,-9326.594869,8216.285956,17390.367805
130.186922,2146.597232,8734.430116,-5669.106685
130.187231,10658.965565,8882.471304,-19688.654299
130.187541,-3923.091493,7254.018232,-9039.926876
130.187851,-5551.544565,9696.697840,7201.297681
130.188160,1332.370696,10362.883188,229.828649
130.188470,8068.244768,9918.759623,-8963.317327
130.188780,-3330.926739,9918.759623,2145.067394
130.189089,-9178.553681,5477.523971,15398.519510
130.189399,-1702.473667,8956.491898,3830.477490
130.189709,11843.295072,6217.729913,-15858.176809
130.190018,296.082377,9844.739029,-13330.061665
130.190328,-7105.977043,8364.327145,3677.258390
130.190638,740.205942,13101.645173,2987.772442
130.190947,4885.359217,10807.006753,-8197.221829
130.191257,-814.226536,8512.368333,-919.314598
130.191567,-8882.471304,9474.636058,12717.185267
130.191876,-2590.720797,8808.450710,4749.792088
130.192186,7031.956449,14137.933492,-12334.137518
130.192496,6883.915261,9326.594869,-15934.786358
130.192806,-2812.782580,7476.080014,-4673.182538
130.193115,-1776.494261,8216.285956,7048.078582
130.193425,1332.370696,10214.842000,995.924147
130.193735,5255.462188,7476.080014,-3983.696590
130.194044,-2368.659014,5847.626942,6511.811733
130.194354,-7624.121203,6883.915261,11951.089769
130.194664,2072.576638,9844.739029,-6588.421283
130.194973,9474.636058,13249.686362,-23289.303139
130.195283,-296.082377,9252.574275,-11184.994271
130.195593,-6439.791695,12805.562797,4903.011187
130.195902,888.247130,10807.006753,1838.629195
130.196212,7476.080014,7550.100608,-3830.477490
130.196522,-814.226536,8142.265362,5439.278036
130.196831,-9400.615463,8512.368333,11184.994271
130.197141,814.226536,8882.471304,689.485948
130.197451,7846.182985,5921.647536,-15475.129060
130.197761,2072.576638,12657.521608,-13636.499864
130.198070,-6957.935855,10732.986159,2145.067394
130.198380,-3108.864956,10362.883188,919.314598
130.198690,6735.874072,10214.842000,-6818.249932
130.198999,2960.823768,11695.253884,-1915.238745
130.199309,-8142.265362,7920.203579,10955.165621
130.199619,-4589.276840,8438.347739,9346.365076
130.199928,7476.080014,8512.368333,-9729.412825
130.200238,7846.182985,8142.265362,-16164.615008
130.200548,-3182.885551,10955.047942,-842.705048
130.200857,-4811.338623,10214.842000,7048.078582
130.201167,4293.194464,10140.821405,-1991.848295
130.201477,7476.080014,9696.697840,-5286.058936
130.201786,-5403.503377,6587.832884,5439.278036
130.202096,-8068.244768,10066.800811,9959.241474
130.202406,2812.782580,8364.327145,-4366.744339
130.202716,7994.224174,8734.430116,-16624.272307
130.203025,3182.885551,11103.089130,-8656.879127
130.203335,-7105.977043,11029.068536,7584.345430
130.203645,-518.144159,12361.439231,5286.058936
130.203954,7105.977043,8364.327145,-4213.525239
130.204264,-370.102971,7031.956449,459.657299
130.204574,-9326.594869,10658.965565,13253.452115
130.204883,-3552.988522,13397.727550,2911.162892
130.205193,10214.842000,10066.800811,-19612.044749
130.205503,3997.112087,12879.583391,-16624.272307
130.205812,-7698.141797,13249.686362,2681.334243
130.206122,-2146.597232,7254.018232,6358.592633
130.206432,6143.709319,7624.121203,-3370.820191
130.206741,1924.535449,7254.018232,153.219100
130.207051,-8290.306550,4219.173869,14172.766713
130.207361,-4811.338623,7254.018232,9959.241474
130.207670,4367.215058,5773.606348,-12257.527968
130.207980,9548.656652,10066.800811,-20224.921147
130.208290,-3108.864956,11695.253884,-5745.716235
130.208600,-7698.141797,11325.150913,7584.345430
130.208909,2664.741391,12139.377449,1685.410096
130.209219,8068.244768,11843.295072,-4213.525239
130.209529,-7105.977043,8586.388927,5515.887586
130.209838,-7402.059420,7105.977043,11721.261119
130.210148,2516.700203,8216.285956,-5592.497135
130.210458,10362.883188,8216.285956,-21067.626195
130.210767,148.041188,12361.439231,-9576.193725
130.211077,-7550.100608,10881.027347,6511.811733
130.211387,-222.061783,10807.006753,3983.696590
130.211696,7772.162391,12213.398043,-2757.943793
130.212006,-1258.350101,8660.409521,1149.143247
130.212316,-7920.203579,4663.297435,11338.213370
130.212625,-2516.700203,9252.574275,5209.449386
130.212935,7994.224174,8512.368333,-16547.662757
130.213245,6217.729913,9030.512492,-18003.244203
130.213555,-7031.956449,8734.430116,76.609550
130.213864,-6513.812290,10066.800811,8886.707777
130.214174,5329.482782,8438.347739,-1072.533697
130.214484,6883.915261,9252.574275,-5515.887586
130.214793,-10658.965565,4959.379811,10725.336972
130.215103,-5107.421000,8290.306550,11414.822920
130.215413,7179.997637,5921.647536,-11874.480219
130.215722,9770.718434,10288.862594,-21986.940793
130.216032,-4737.318029,14137.933492,-1455.581446
130.216342,-5625.565159,12657.521608,7201.297681
130.216651,2516.700203,12287.418637,-1608.800546
130.216961,7846.182985,10955.047942,-5286.058936
130.217271,-7698.141797,9400.615463,6588.421283
130.217580,-5847.626942,7772.162391,9346.365076
130.217890,3627.009116,6217.729913,-7660.954980
130.218200,11547.212695,9992.780217,-19612.044749
130.218510,-1332.370696,12361.439231,-8044.002729
130.218819,-3923.091493,7698.141797,9193.145976
130.219129,-740.205942,12287.418637,4749.792088
130.219439,10436.903782,8512.368333,-2987.772442
130.219748,-1850.514855,4959.379811,4826.401637
130.220058,-9474.636058,4959.379811,10495.508323
130.220368,-2294.638420,8512.368333,919.314598
130.220677,8956.491898,8734.430116,-19152.387450
130.220987,5033.400406,12879.583391,-17850.025103
130.221297,-7254.018232,13693.809927,4673.182538
130.221606,-2146.597232,12213.398043,8580.269578
130.221916,6217.729913,9030.512492,-919.314598
130.222226,4293.194464,7105.977043,1072.533697
130.222535,-8660.409521,5477.523971,12563.966167
130.222845,-3997.112087,3923.091493,10189.070123
130.223155,8438.347739,5477.523971,-9193.145976
130.223464,4219.173869,10362.883188,-17850.025103
130.223774,-3923.091493,11769.274478,-3907.087040
130.224084,-5403.503377,13101.645173,8733.488677
130.224394,3256.906145,14211.954086,-1532.190996
130.224703,6217.729913,13915.871710,-5439.278036
130.225013,-3404.947333,7179.997637,5132.839837
130.225323,-8734.430116,5181.441594,14479.204912
130.225632,3256.906145,9548.656652,-1838.629195
130.225942,7328.038826,5181.441594,-16241.224558
130.226251,-2220.617826,13175.665768,-7048.078582
130.226561,-6365.771101,11769.274478,7890.783629
130.226871,1036.288319,8956.491898,306.438199
130.227180,6439.791695,11103.089130,-6281.983084
130.227490,-740.205942,9326.594869,2298.286494
130.227799,-10066.800811,4663.297435,11644.651570
130.228109,-1702.473667,8438.347739,2298.286494
130.228419,6661.853478,8142.265362,-15781.567259
130.228728,3108.864956,8808.450710,-12563.966167
130.229038,-4589.276840,11843.295072,1225.752797
130.229347,-3034.844362,14285.974681,4903.011187
130.229657,5255.462188,13027.624579,-3524.039291
130.229967,4737.318029,13027.624579,919.314598
130.230276,-7772.162391,7846.182985,9422.974625
130.230586,-4441.235652,6587.832884,7048.078582
130.230895,4219.173869,10510.924376,-9729.412825
130.231205,9992.780217,13175.665768,-14479.204912
130.231515,-2516.700203,10658.965565,-6741.640382
130.231824,-4959.379811,12953.603985,4596.572988
130.232134,2516.700203,10288.862594,1532.190996
130.232443,5995.668130,7994.224174,-995.924147
130.232753,-2738.761985,8512.368333,7124.688131
130.233063,-7920.203579,1554.432478,13023.623466
130.233372,962.267725,5773.606348,0.000000
130.233682,9474.636058,6217.729913,-16854.100956
130.233991,3256.906145,11325.150913,-16394.443657
130.234301,-4737.318029,12287.418637,3907.087040
130.234611,-2220.617826,12953.603985,2987.772442
130.234920,6217.729913,11843.295072,-4673.182538
130.235230,2516.700203,9326.594869,2451.505594
130.235539,-10955.047942,8438.347739,12410.747068
130.235849,-2886.803174,8734.430116,3217.601092
130.236159,5773.606348,5551.544565,-13176.842566
130.236468,5033.400406,9252.574275,-12180.918418
130.236778,-3849.070898,12213.398043,-459.657299
130.237087,-3997.112087,14211.954086,1991.848295
130.237397,2368.659014,16358.551318,-2221.676944
130.237707,4737.318029,12287.418637,-1991.848295
130.238016,-2886.803174,6291.750507,4903.011187
130.238326,-8734.430116,4811.338623,13023.623466
130.238635,5773.606348,5329.482782,-4596.572988
130.238945,8882.471304,4293.194464,-17390.367805
130.239254,-2812.782580,8512.368333,-2451.505594
130.239564,-5773.606348,9178.553681,12104.308868
130.239874,1332.370696,8956.491898,-536.266849
130.240183,6735.874072,11621.233289,-8197.221829
130.240493,-1554.432478,11991.336260,3140.991542
130.240802,-8734.430116,7105.977043,9039.926876
130.241112,1258.350101,10362.883188,-2604.724693
130.241422,7550.100608,9696.697840,-13713.109414
130.241731,1850.514855,10066.800811,-7890.783629
130.242041,-8068.244768,11103.089130,6741.640382
130.242350,-740.205942,13101.645173,4673.182538
130.242660,6069.688724,8438.347739,-3600.648841
130.242970,2664.741391,11399.171507,-1378.971896
130.243279,-6217.729913,10732.986159,6665.030833
130.243589,-2368.659014,8290.306550,2604.724693
130.243898,5181.441594,7105.977043,-9729.412825
130.244208,2294.638420,11251.130318,-10648.727422
130.244518,-5181.441594,6439.791695,0.000000
130.244827,-3627.009116,10214.842000,2451.505594
130.245137,4515.256246,9474.636058,-3830.477490
130.245446,6809.894666,7179.997637,-6665.030833
130.245756,-6883.915261,6217.729913,8810.098227
130.246066,-6957.935855,6883.915261,12487.356617
130.246375,3775.050304,6291.750507,-4443.353888
130.246685,8512.368333,8734.430116,-17773.415554
130.246994,-1628.453072,11843.295072,-7890.783629
130.247304,-5477.523971,12583.501014,6741.640382
130.247614,222.061783,12065.356855,-689.485948
130.247923,5403.503377,12509.480420,-5592.497135
130.248233,-3404.947333,11325.150913,4290.134789
130.248542,-7254.018232,7402.059420,8580.269578
130.248852,1406.391290,7328.038826,-2374.896044
130.249162,3701.029710,6143.709319,-8120.612279
130.249471,1480.411884,11251.130318,-6128.763984
130.249781,-4071.132681,7476.080014,-842.705048
130.250090,-1776.494261,13841.851115,612.876398
130.250400,3182.885551,9844.739029,-1149.143247
130.250709,5107.421000,13767.830521,-3064.381992
130.251019,-7550.100608,7698.141797,3753.867940
130.251329,-4959.379811,9104.533087,6128.763984
130.251638,6809.894666,7402.059420,-7890.783629
130.251948,4219.173869,3701.029710,-14096.157163
130.252257,-3552.988522,6883.915261,1149.143247
130.252567,-3108.864956,12731.542202,9269.755526
130.252877,4293.194464,9770.718434,-4826.401637
130.253186,1332.370696,10881.027347,-3140.991542
130.253496,-7031.956449,9770.718434,6205.373534
130.253805,-1258.350101,9474.636058,1838.629195
130.254115,6513.812290,9178.553681,-7431.126331
130.254425,4885.359217,9030.512492,-8503.660028
130.254734,-4071.132681,6883.915261,-995.924147
130.255044,-2738.761985,10732.986159,3907.087040
130.255353,3108.864956,10584.944971,3217.601092
130.255663,4663.297435,9326.594869,-2451.505594
130.255973,-1036.288319,13101.645173,306.438199
130.256282,-5625.565159,9178.553681,5898.935335
130.256592,-148.041188,13915.871710,-2987.772442
130.256901,5329.482782,10362.883188,-15092.081311
130.257211,4515.256246,9992.780217,-10265.679673
130.257521,-7402.059420,9992.780217,3600.648841
130.257830,888.247130,9918.759623,2451.505594
130.258140,4219.173869,4959.379811,-2681.334243
130.258449,-518.144159,8438.347739,3907.087040
130.258759,-3330.926739,7105.977043,9652.803275
130.259069,444.123565,9474.636058,-2528.115143
130.259378,3923.091493,8142.265362,-12104.308868
130.259688,-1406.391290,11769.274478,-9959.241474
130.259997,-1258.350101,12139.377449,-3600.648841
130.260307,-1554.432478,9622.677246,-2145.067394
130.260617,1776.494261,12509.480420,0.000000
130.260926,5033.400406,8882.471304,153.219100
130.261236,-3552.988522,10066.800811,612.876398
130.261545,-4145.153275,8068.244768,10035.851024
130.261855,1628.453072,9326.594869,-2604.724693
130.262165,6069.688724,7624.121203,-14555.814462
130.262474,-1998.556043,10955.047942,-6894.859482
130.262784,-4219.173869,12953.603985,536.266849
130.263093,-2072.576638,9030.512492,-1225.752797
130.263403,2294.638420,11843.295072,-2145.067394
130.263712,-444.123565,9474.636058,3294.210641
130.264022,-4367.215058,8438.347739,7354.516781
130.264332,-1628.453072,6883.915261,76.609550
130.264641,2812.782580,5921.647536,-5822.325785
130.264951,3034.844362,9992.780217,-6818.249932
130.265260,740.205942,9326.594869,-1378.971896
130.265570,-4367.215058,11991.336260,1762.019645
130.265880,1184.329507,11473.192101,-1302.362347
130.266189,1332.370696,12065.356855,-2911.162892
130.266499,-3478.967927,7105.977043,5592.497135
130.266808,-2738.761985,10214.842000,-153.219100
130.267118,3701.029710,7994.224174,-11797.870669
130.267428,4367.215058,6661.853478,-9346.365076
130.267737,-5255.462188,9844.739029,3677.258390
130.268047,-592.164754,11695.253884,2451.505594
130.268356,2220.617826,10288.862594,-766.095498
130.268666,666.185348,9400.615463,2528.115143
130.268976,-4145.153275,9992.780217,5592.497135
130.269285,-4811.338623,6365.771101,2451.505594
130.269595,1184.329507,10066.800811,-7048.078582
130.269904,3849.070898,10881.027347,-10035.851024
130.270214,-0.000000,12583.501014,-8656.879127
130.270524,-2960.823768,9474.636058,459.657299
130.270833,222.061783,12361.439231,4290.134789
130.271143,8586.388927,10658.965565,2987.772442
130.271452,-1628.453072,6143.709319,2451.505594
130.271762,-6069.688724,6291.750507,8427.050478
130.272072,1332.370696,8142.265362,-2834.553343
130.272381,3701.029710,6365.771101,-13866.328514
130.272691,3775.050304,10362.883188,-7354.516781
130.273000,-2368.659014,9844.739029,-995.924147
130.273310,-1628.453072,11325.150913,766.095498
130.273620,4145.153275,11029.068536,4213.525239
130.273929,74.020594,10214.842000,3140.991542
130.274239,-1998.556043,10436.903782,4366.744339
130.274548,-4293.194464,7550.100608,4060.306139
130.274858,296.082377,10436.903782,-7277.907231
130.275167,4885.359217,9548.656652,-12947.013916
130.275477,-0.000000,11621.233289,-6741.640382
130.275787,-5551.544565,14582.057057,2298.286494
130.276096,3330.926739,13397.727550,-1455.581446
130.276406,2960.823768,9400.615463,-1991.848295
130.276715,-4441.235652,5699.585753,7737.564530
130.277025,-1480.411884,4811.338623,8427.050478
130.277335,2886.803174,5329.482782,-5745.716235
130.277644,962.267725,5995.668130,-8733.488677
130.277954,1554.432478,7476.080014,-4213.525239
130.278263,-3701.029710,8364.327145,1532.190996
130.278573,2812.782580,12953.603985,-2068.457845
130.278883,1036.288319,9030.512492,2604.724693
130.279192,-3034.844362,9474.636058,3753.867940
130.279502,-2886.803174,6957.935855,5745.716235
130.279811,-1998.556043,10732.986159,-5745.716235
130.280121,1776.494261,8808.450710,-11491.432470
130.280431,2960.823768,12583.501014,-8580.269578
130.280740,-2294.638420,9548.656652,-306.438199
130.281050,-2812.782580,15100.201217,1838.629195
130.281359,3552.988522,13471.748144,459.657299
130.281669,-2368.659014,10881.027347,2834.553343
130.281979,-3182.885551,8438.347739,4290.134789
130.282288,-1258.350101,7624.121203,-2298.286494
130.282598,592.164754,9030.512492,-12180.918418
130.282907,3108.864956,4737.318029,-9959.241474
130.283217,-1406.391290,11621.233289,-2145.067394
130.283527,444.123565,11991.336260,2221.676944
130.283836,-148.041188,7550.100608,3677.258390
130.284146,2516.700203,7550.100608,6128.763984
130.284455,-3108.864956,4811.338623,5515.887586
130.284765,-2294.638420,6217.729913,-919.314598
130.285075,-370.102971,7476.080014,-8044.002729
130.285384,-3108.864956,9622.677246,-9806.022374
130.285694,2220.617826,10362.883188,-10035.851024
130.286003,-2220.617826,11547.212695,-3370.820191
130.286313,814.226536,17764.942608,2298.286494
130.286623,2812.782580,10807.006753,4596.572988
130.286932,-2072.576638,11473.192101,6128.763984
130.287242,-3627.009116,3404.947333,5515.887586
130.287551,1850.514855,6217.729913,-1762.019645
130.287861,1924.535449,6513.812290,-7890.783629
130.288170,2220.617826,13915.871710,-7354.516781
130.288480,-1110.308913,11325.150913,-4826.401637
130.288790,-0.000000,14656.077652,-1378.971896
130.289099,370.102971,14730.098246,3140.991542
130.289409,2146.597232,12435.459826,2374.896044
130.289718,-3404.947333,7772.162391,1838.629195
130.290028,-1480.411884,8882.471304,1915.238745
130.290338,518.144159,5329.482782,-7048.078582
130.290647,4515.256246,6217.729913,-11031.775171
130.290957,-0.000000,10881.027347,-4213.525239
130.291266,-2294.638420,15396.283594,0.000000
130.291576,962.267725,11991.336260,536.266849
130.291886,1924.535449,9030.512492,4290.134789
130.292195,-1998.556043,6513.812290,4060.306139
130.292505,-3404.947333,3627.009116,2298.286494
130.292814,-592.164754,5773.606348,-3064.381992
130.293124,814.226536,6069.688724,-6894.859482
130.293434,222.061783,11103.089130,-8427.050478
130.293743,-518.144159,11843.295072,-3677.258390
130.294053,-2738.761985,18061.024985,0.000000
130.294362,962.267725,13915.871710,2604.724693
130.294672,-1850.514855,11843.295072,4596.572988
130.294982,-2812.782580,8068.244768,5669.106685
130.295291,-888.247130,7105.977043,-3907.087040
130.295601,2368.659014,7328.038826,-11568.042020
130.295910,1924.535449,9918.759623,-8810.098227
130.296220,-2738.761985,10955.047942,-1608.800546
130.296530,962.267725,13249.686362,536.266849
130.296839,4219.173869,11843.295072,3753.867940
130.297149,-444.123565,7994.224174,4903.011187
130.297458,-1332.370696,1480.411884,5898.935335
130.297768,-1998.556043,3552.988522,0.000000
130.298078,-0.000000,5995.668130,-6971.469032
130.298387,3997.112087,8142.265362,-9729.412825
130.298697,1998.556043,11473.192101,-6128.763984
130.299006,222.061783,15396.283594,-2757.943793
130.299316,1258.350101,14804.118840,766.095498
130.299625,-74.020594,10214.842000,7354.516781
130.299935,-3108.864956,10807.006753,5362.668486
130.300245,-1258.350101,5551.544565,2298.286494
130.300554,-1036.288319,7179.997637,-6971.469032
130.300864,2294.638420,7994.224174,-9729.412825
130.301173,2960.823768,9918.759623,-7584.345430
130.301483,-3552.988522,12657.521608,-3064.381992
130.301793,962.267725,15766.386565,-2068.457845
130.302102,444.123565,11325.150913,1455.581446
130.302412,518.144159,8216.285956,6052.154434
130.302721,-3108.864956,5329.482782,4596.572988
130.303031,-1184.329507,1776.494261,-3064.381992
130.303341,4737.318029,4589.276840,-7660.954980
130.303650,-444.123565,8956.491898,-6281.983084
130.303960,-1850.514855,8956.491898,1302.362347
130.304269,-1332.370696,12731.542202,-383.047749
130.304579,1036.288319,11029.068536,-612.876398
130.304889,-0.000000,10362.883188,1608.800546
130.305198,-2368.659014,8956.491898,3600.648841
130.305508,-2220.617826,9918.759623,2298.286494
130.305817,3478.967927,7994.224174,-8580.269578
130.306127,1850.514855,7846.182985,-7354.516781
130.306437,-222.061783,13101.645173,-1225.752797
130.306746,-222.061783,13027.624579,-612.876398
130.307056,-1036.288319,14952.160028,-2834.553343
130.307365,1998.556043,9844.739029,3983.696590
130.307675,-3775.050304,5181.441594,5439.278036
130.307985,-1036.288319,5921.647536,-612.876398
130.308294,1702.473667,6291.750507,-6128.763984
130.308604,1110.308913,6957.935855,-5669.106685
130.308913,-2072.576638,9844.739029,-3217.601092
130.309223,1184.329507,9696.697840,-612.876398
130.309533,1998.556043,14211.954086,-4826.401637
130.309842,-740.205942,8808.450710,1838.629195
130.310152,-888.247130,7402.059420,7814.174080
130.310461,-2738.761985,7772.162391,1915.238745
130.310771,1998.556043,6735.874072,-5592.497135
130.311081,-1332.370696,8068.244768,-2528.115143
130.311390,-666.185348,9252.574275,-3600.648841
130.311700,592.164754,12139.377449,-4979.620737
130.312009,4737.318029,13027.624579,-5056.230287
130.312319,-1776.494261,13175.665768,766.095498
130.312628,1332.370696,11251.130318,10112.460574
130.312938,962.267725,7772.162391,4596.572988
130.313248,-1702.473667,9474.636058,-2451.505594
130.313557,1258.350101,4219.173869,-3370.820191
130.313867,1628.453072,6957.935855,-3600.648841
130.314176,-4145.153275,11843.295072,-2987.772442
130.314486,1924.535449,14656.077652,-4749.792088
130.314796,962.267725,14730.098246,-4060.306139
130.315105,-222.061783,14582.057057,3447.429741
130.315415,2294.638420,10214.842000,3600.648841
130.315724,-2886.803174,3849.070898,0.000000
130.316034,1924.535449,8956.491898,-3677.258390
130.316344,592.164754,7105.977043,-2221.676944
130.316653,-0.000000,6291.750507,-4979.620737
130.316963,1702.473667,10510.924376,-4979.620737
130.317272,1332.370696,13101.645173,-3753.867940
130.317582,-2220.617826,10066.800811,2374.896044
130.317892,74.020594,10658.965565,7354.516781
130.318201,-1924.535449,6217.729913,5286.058936
130.318511,-148.041188,6217.729913,-5056.230287
130.318820,1924.535449,7328.038826,-2834.553343
130.319130,-2072.576638,7476.080014,-4673.182538
130.319440,1184.329507,11621.233289,-5132.839837
130.319749,666.185348,15692.365970,-4979.620737
130.320059,-1702.473667,9918.759623,2451.505594
130.320368,1332.370696,14137.933492,5439.278036
130.320678,-666.185348,8290.306550,1532.190996
130.320988,-2368.659014,9474.636058,-2911.162892
130.321297,296.082377,7698.141797,-3600.648841
130.321607,-888.247130,8734.430116,-5209.449386
130.321916,1998.556043,10732.986159,-5745.716235
130.322226,3330.926739,13619.789333,-3370.820191
130.322536,-3552.988522,13841.851115,1455.581446
130.322845,-0.000000,11103.089130,3907.087040
130.323155,4737.318029,3256.906145,2987.772442
130.323464,-3182.885551,3182.885551,-536.266849
130.323774,-2442.679609,7920.203579,153.219100
130.324083,1850.514855,1406.391290,-383.047749
130.324393,2294.638420,11769.274478,-5898.935335
130.324703,370.102971,13249.686362,-3217.601092
130.325012,-2220.617826,14582.057057,-3140.991542
130.325321,1924.535449,10214.842000,-4366.744339
130.325631,1628.453072,9400.615463,1685.410096
130.325940,-4885.359217,10658.965565,4136.915689
130.326250,296.082377,8808.450710,-2911.162892
130.326559,3108.864956,5329.482782,-4979.620737
130.326868,2368.659014,9992.780217,-2221.676944
130.327178,-1184.329507,11251.130318,536.266849
130.327487,1480.411884,13249.686362,-1225.752797
130.327797,-1628.453072,10881.027347,0.000000
130.328106,1924.535449,11991.336260,1302.362347
130.328415,-518.144159,8364.327145,-229.828649
130.328725,-1110.308913,8586.388927,-3753.867940
130.329034,370.102971,10732.986159,-3983.696590
130.329343,1998.556043,8290.306550,-4060.306139
130.329653,2368.659014,7328.038826,-4979.620737
130.329962,-148.041188,9400.615463,2068.457845
130.330272,1776.494261,11177.109724,919.314598
130.330581,592.164754,7994.224174,1532.190996
130.330890,3552.988522,8586.388927,3370.820191
130.331200,-1332.370696,7772.162391,766.095498
130.331509,370.102971,12435.459826,-5209.449386
130.331819,1776.494261,7105.977043,-7890.783629
130.332128,-962.267725,9770.718434,-5132.839837
130.332437,962.267725,10658.965565,383.047749
130.332747,-1258.350101,10288.862594,-919.314598
130.333056,2960.823768,10140.821405,1685.410096
130.333365,-1850.514855,8068.244768,6358.592633
130.333675,-2294.638420,6513.812290,6511.811733
130.333984,-888.247130,8364.327145,1072.533697
130.334294,-518.144159,9178.553681,-10572.117872
130.334603,2368.659014,10658.965565,-8733.488677
130.334912,592.164754,11547.212695,-2374.896044
130.335222,-1998.556043,14285.974681,-1991.848295
130.335531,592.164754,10658.965565,-459.657299
130.335841,1332.370696,6957.935855,6205.373534
130.336150,-2368.659014,4811.338623,8810.098227
130.336459,222.061783,5551.544565,1149.143247
130.336769,444.123565,4515.256246,-6052.154434
130.337078,444.123565,8882.471304,-6665.030833
130.337387,592.164754,11399.171507,-5362.668486
130.337697,1258.350101,14211.954086,-4596.572988
130.338006,1702.473667,17912.983796,-2298.286494
130.338316,-1406.391290,12805.562797,4366.744339
130.338625,-2812.782580,8142.265362,7584.345430
130.338934,-3108.864956,7402.059420,6665.030833
130.339244,2516.700203,8068.244768,-5669.106685
130.339553,2442.679609,4885.359217,-8427.050478
130.339863,-888.247130,14063.912898,-4213.525239
130.340172,-3256.906145,12287.418637,-689.485948
130.340481,1036.288319,15100.201217,-3294.210641
130.340791,2590.720797,9474.636058,-1915.238745
130.341100,-2812.782580,8512.368333,-3140.991542
130.341409,-4145.153275,4293.194464,8350.440928
130.341719,-666.185348,6513.812290,383.047749
130.342028,3330.926739,5847.626942,-10801.946522
130.342338,1184.329507,7254.018232,-5975.544884
130.342647,-2812.782580,7624.121203,1608.800546
130.342956,518.144159,15100.201217,-2298.286494
130.343266,5847.626942,14582.057057,-3983.696590
130.343575,-1480.411884,10510.924376,2298.286494
130.343885,-2294.638420,6143.709319,10495.508323
130.344194,962.267725,4737.318029,-842.705048
130.344503,2294.638420,9030.512492,-9039.926876
130.344813,1924.535449,9474.636058,-3064.381992
130.345122,-592.164754,9918.759623,1532.190996
130.345431,-1480.411884,13323.706956,-383.047749
130.345741,888.247130,16136.489536,-2451.505594
130.346050,-0.000000,8882.471304,229.828649
130.346360,-3182.885551,11621.233289,1915.238745
130.346669,-1258.350101,9326.594869,0.000000
130.346978,1628.453072,7105.977043,-10035.851024
130.347288,3330.926739,5181.441594,-8120.612279
130.347597,-0.000000,11029.068536,0.000000
130.347907,-2368.659014,9326.594869,5286.058936
130.348216,3923.091493,11621.233289,2451.505594
130.348525,2516.700203,5403.503377,229.828649
130.348835,592.164754,5477.523971,3217.601092
130.349144,-6143.709319,6735.874072,6052.154434
130.349453,1036.288319,10214.842000,-4903.011187
130.349763,2368.659014,7920.203579,-9576.193725
130.350072,1850.514855,11177.109724,-8427.050478
130.350382,-74.020594,12435.459826,-1838.629195
130.350691,-74.020594,14359.995275,-229.828649
130.351000,3775.050304,12657.521608,153.219100
130.351310,-1850.514855,7994.224174,6128.763984
130.351619,-370.102971,8586.388927,9193.145976
130.351929,2072.576638,5477.523971,2451.505594
130.352238,222.061783,7476.080014,-9729.412825
130.352547,4663.297435,11769.274478,-12257.527968
130.352857,-3478.967927,11325.150913,-3677.258390
130.353166,296.082377,14211.954086,-4519.963438
130.353475,-444.123565,13471.748144,-4596.572988
130.353785,4219.173869,7624.121203,1991.848295
130.354094,-5773.606348,4959.379811,5975.544884
130.354404,-2442.679609,6513.812290,6205.373534
130.354713,1924.535449,4737.318029,-3983.696590
130.355022,2220.617826,6291.750507,-8963.317327
130.355332,2146.597232,10288.862594,-7431.126331
130.355641,-3034.844362,11695.253884,1302.362347
130.355951,3627.009116,15988.448347,-3370.820191
130.356260,2072.576638,10436.903782,-3370.820191
130.356569,-962.267725,6957.935855,4749.792088
130.356879,-6661.853478,5033.400406,6281.983084
130.357188,-0.000000,7846.182985,-2451.505594
130.357498,2664.741391,7179.997637,-8810.098227
130.357807,-2368.659014,10732.986159,-7201.297681
130.358116,1628.453072,11325.150913,-2221.676944
130.358426,-740.205942,12805.562797,-1991.848295
130.358735,148.041188,11917.315666,-1685.410096
130.359044,2738.761985,9178.553681,5286.058936
130.359354,-1628.453072,8808.450710,7124.688131
130.359663,-2590.720797,5551.544565,2911.162892
130.359973,2368.659014,6069.688724,-6894.859482
130.360282,1628.453072,5033.400406,-9499.584175
130.360591,-962.267725,13323.706956,-3830.477490
130.360901,-1776.494261,13545.768739,-1225.752797
130.361210,592.164754,17690.922014,-6052.154434
130.361520,1480.411884,9770.718434,-383.047749
130.361829,-814.226536,3034.844362,7431.126331
130.362138,-4959.379811,2886.803174,7124.688131
130.362448,666.185348,7846.182985,-6971.469032
130.362757,1776.494261,5477.523971,-7201.297681
130.363066,740.205942,11621.233289,-3524.039291
130.363376,1480.411884,10955.047942,-2834.553343
130.363685,1184.329507,16802.674883,-4443.353888
130.363995,518.144159,12509.480420,612.876398
130.364304,-4441.235652,6143.709319,7354.516781
130.364613,-1332.370696,10288.862594,4596.572988
130.364923,1036.288319,6735.874072,-6358.592633
130.365232,-0.000000,3923.091493,-8350.440928
130.365542,1480.411884,12139.377449,-4519.963438
130.365851,-1480.411884,9178.553681,-1072.533697
130.366160,1332.370696,14508.036463,-1378.971896
130.366470,518.144159,14137.933492,-1072.533697
130.366779,1850.514855,10955.047942,5515.887586
130.367088,-1110.308913,6809.894666,5362.668486
130.367398,-5255.462188,5551.544565,2451.505594
130.367707,3108.864956,9474.636058,-6741.640382
130.368017,2664.741391,740.205942,-8580.269578
130.368326,-1702.473667,11029.068536,-1915.238745
130.368635,-2368.659014,11843.295072,2221.676944
130.368945,2590.720797,12953.603985,-5439.278036
130.369254,3923.091493,15692.365970,-4673.182538
130.369564,-2294.638420,7105.977043,2451.505594
130.369873,-2072.576638,6439.791695,7431.126331
130.370182,1998.556043,8956.491898,-5822.325785
130.370492,4515.256246,3849.070898,-6818.249932
130.370801,-4071.132681,10584.944971,2451.505594
130.371110,-3034.844362,12583.501014,1532.190996
130.371420,5403.503377,13175.665768,-8120.612279
130.371729,-444.123565,12583.501014,-5286.058936
130.372039,-222.061783,12213.398043,2987.772442
130.372348,-5995.668130,10362.883188,6741.640382
130.372657,1036.288319,10584.944971,-3217.601092
130.372967,4071.132681,5255.462188,-10189.070123
130.373276,-0.000000,5181.441594,-4826.401637
130.373586,-6439.791695,9400.615463,4903.011187
130.373895,-2738.761985,11917.315666,-383.047749
130.374204,7328.038826,12879.583391,-8733.488677
130.374514,962.267725,8142.265362,1378.971896
130.374823,-3627.009116,7698.141797,11261.603821
130.375132,-3034.844362,5551.544565,3524.039291
130.375442,4071.132681,7031.956449,-11184.994271
130.375751,-1110.308913,4737.318029,-6665.030833
130.376061,-2442.679609,11843.295072,842.705048
130.376370,222.061783,12879.583391,-4903.011187
130.376679,518.144159,17987.004391,-8350.440928
130.376989,2664.741391,14878.139434,2298.286494
130.377298,-1184.329507,9030.512492,6052.154434
130.377608,-1332.370696,8734.430116,2757.943793
130.377917,1480.411884,7105.977043,-4060.306139
130.378226,-2664.741391,3923.091493,-4673.182538
130.378536,-1184.329507,8882.471304,-1762.019645
130.378845,-1628.453072,10881.027347,1149.143247
130.379154,2738.761985,15840.407159,-6205.373534
130.379464,3478.967927,8882.471304,-4903.011187
130.379773,-444.123565,10584.944971,2834.553343
130.380083,-6809.894666,10807.006753,7354.516781
130.380392,-518.144159,7328.038826,-3524.039291
130.380701,3849.070898,7031.956449,-11568.042020
130.381011,1036.288319,4071.132681,-4979.620737
130.381320,-4293.194464,10288.862594,3370.820191
130.381630,-370.102971,14285.974681,-2298.286494
130.381939,6809.894666,13915.871710,-6205.373534
130.382248,2516.700203,9178.553681,2911.162892
130.382558,-7920.203579,5033.400406,10572.117872
130.382867,740.205942,8068.244768,842.705048
130.383176,4737.318029,10510.924376,-10495.508323
130.383486,-1110.308913,6513.812290,-6205.373534
130.383795,-4959.379811,8660.409521,2374.896044
130.384105,3849.070898,9474.636058,-4366.744339
130.384414,4293.194464,14804.118840,-9882.631924
130.384723,-3182.885551,10140.821405,7354.516781
130.385033,-3108.864956,12805.562797,12257.527968
130.385342,888.247130,10066.800811,-2681.334243
130.385652,7105.977043,8216.285956,-10572.117872
130.385961,-1036.288319,6587.832884,-5592.497135
130.386270,-4811.338623,8586.388927,-2604.724693
130.386580,-1036.288319,12583.501014,-1455.581446
130.386889,888.247130,11325.150913,-1915.238745
130.387198,4737.318029,10732.986159,-1991.848295
130.387508,-1110.308913,5773.606348,3524.039291
130.387817,-3997.112087,6069.688724,8427.050478
130.388127,-888.247130,6143.709319,1915.238745
130.388436,814.226536,3182.885551,-8963.317327
130.388745,1332.370696,5773.606348,-6281.983084
130.389055,-4737.318029,10214.842000,0.000000
130.389364,2738.761985,15470.304188,-5439.278036
130.389674,2294.638420,14804.118840,-7967.393179
130.389983,-888.247130,10362.883188,4213.525239
130.390292,-2664.741391,9400.615463,6588.421283
130.390602,-0.000000,3552.988522,536.266849
130.390911,4737.318029,7105.977043,-3370.820191
130.391220,-4737.318029,7772.162391,-153.219100
130.391530,-1184.329507,11473.192101,-1225.752797
130.391839,2294.638420,13545.768739,-4749.792088
130.392149,3330.926739,15174.221811,-10035.851024
130.392458,-1406.391290,12435.459826,-1225.752797
130.392767,-1036.288319,11177.109724,5209.449386
130.393077,-2738.761985,7105.977043,1302.362347
130.393386,2738.761985,4367.215058,-4519.963438
130.393696,1554.432478,2812.782580,-1915.238745
130.394005,-2442.679609,5921.647536,3677.258390
130.394314,148.041188,10955.047942,1838.629195
130.394624,-592.164754,9770.718434,-2604.724693
130.394933,814.226536,13545.768739,-3907.087040
130.395242,1110.308913,9178.553681,-4903.011187
130.395552,-2368.659014,7031.956449,-229.828649
130.395861,-1110.308913,9770.718434,919.314598
130.396171,-1332.370696,10214.842000,-5286.058936
130.396480,-962.267725,8290.306550,-4060.306139
130.396789,-1924.535449,7624.121203,2221.676944
130.397099,2146.597232,7772.162391,1532.190996
130.397408,-296.082377,12361.439231,-3294.210641
130.397718,-2294.638420,8142.265362,2681.334243
130.398027,-2072.576638,9252.574275,4366.744339
130.398336,-1480.411884,13249.686362,-5056.230287
130.398646,4145.153275,10807.006753,-13789.718964
130.398955,-1628.453072,5551.544565,-2987.772442
130.399265,-2294.638420,14582.057057,2451.505594
130.399574,-444.123565,10214.842000,-5822.325785
130.399883,4737.318029,9252.574275,-4443.353888
130.400193,1480.411884,8216.285956,4060.306139
130.400502,740.205942,5551.544565,7967.393179
130.400811,-4811.338623,7105.977043,3370.820191
130.401121,1036.288319,13841.851115,-9346.365076
130.401430,370.102971,6143.709319,-10878.556072
130.401740,3404.947333,12435.459826,-8120.612279
130.402049,-2442.679609,11917.315666,-2298.286494
130.402358,1406.391290,14434.015869,536.266849
130.402668,1628.453072,11177.109724,2757.943793
130.402977,2886.803174,7254.018232,6588.421283
130.403287,-3701.029710,7402.059420,8886.707777
130.403596,-4071.132681,7328.038826,383.047749
130.403905,1924.535449,10362.883188,-8886.707777
130.404215,-666.185348,9030.512492,-8656.879127
130.404524,-666.185348,13841.851115,-4826.401637
130.404833,-1702.473667,14878.139434,-5745.716235
130.405143,4441.235652,9844.739029,-2681.334243
130.405452,-1036.288319,7476.080014,9576.193725
130.405762,-4885.359217,5477.523971,11414.822920
130.406071,888.247130,6291.750507,1838.629195
130.406380,3034.844362,8068.244768,-8197.221829
130.406690,2368.659014,5699.585753,-8273.831378
130.406999,-1110.308913,8512.368333,-1838.629195
130.407309,-2516.700203,13175.665768,-3294.210641
130.407618,5107.421000,14804.118840,-6052.154434
130.407927,-814.226536,10658.965565,-536.266849
130.408237,-1776.494261,10140.821405,2987.772442
130.408546,-5107.421000,6291.750507,5745.716235
130.408855,4515.256246,7179.997637,-5898.935335
130.409165,-222.061783,7698.141797,-6128.763984
130.409474,-888.247130,10658.965565,0.000000
130.409784,-814.226536,12953.603985,-1378.971896
130.410093,5255.462188,14656.077652,-5898.935335
130.410402,-1850.514855,15544.324782,1072.533697
130.410712,-2294.638420,8512.368333,6358.592633
130.411021,-74.020594,7550.100608,842.705048
130.411331,444.123565,9548.656652,-5745.716235
130.411640,2516.700203,6513.812290,-5286.058936
130.411949,-2590.720797,7476.080014,-1532.190996
130.412259,-148.041188,13249.686362,0.000000
130.412568,-370.102971,15100.201217,-1685.410096
130.412877,3627.009116,12435.459826,-2145.067394
130.413187,-2220.617826,8660.409521,3907.087040
130.413496,-666.185348,5255.462188,3677.258390
130.413806,-3478.967927,2442.679609,-4213.525239
130.414115,5107.421000,9992.780217,-8733.488677
130.414424,-4663.297435,9770.718434,-2451.505594
130.414734,2220.617826,12879.583391,2221.676944
130.415043,1998.556043,11251.130318,-2221.676944
130.415353,4737.318029,13249.686362,-6818.249932
130.415662,-3775.050304,10214.842000,5286.058936
130.415971,-1480.411884,6883.915261,7507.735880
130.416281,-444.123565,10584.944971,-3294.210641
130.416590,4367.215058,9030.512492,-8197.221829
130.416899,-4589.276840,8586.388927,-1991.848295
130.417209,-888.247130,11547.212695,-1838.629195
130.417518,2146.597232,13693.809927,-6741.640382
130.417828,1776.494261,9474.636058,-5132.839837
130.418137,-296.082377,11547.212695,-1225.752797
130.418446,-888.247130,9030.512492,5056.230287
130.418756,-814.226536,7105.977043,1915.238745
130.419065,1184.329507,7105.977043,-689.485948
130.419375,296.082377,5625.565159,-3447.429741
130.419684,296.082377,5477.523971,-4903.011187
130.419993,2442.679609,11547.212695,-2528.115143
130.420303,-740.205942,12435.459826,-6358.592633
130.420612,2368.659014,12435.459826,-3677.258390
130.420921,-888.247130,7698.141797,3677.258390
130.421231,-1258.350101,7550.100608,5822.325785
130.421540,-1332.370696,5403.503377,1455.581446
130.421850,814.226536,6069.688724,-2757.943793
130.422159,-2664.741391,12583.501014,-1991.848295
130.422468,4145.153275,12065.356855,-7048.078582
130.422778,2516.700203,10584.944971,-7737.564530
130.423087,370.102971,15100.201217,-4443.353888
130.423397,-1258.350101,12287.418637,5132.839837
130.423706,-74.020594,10658.965565,7048.078582
130.424015,-2960.823768,8142.265362,4366.744339
130.424325,1480.411884,6439.791695,-2681.334243
130.424634,888.247130,5255.462188,-6281.983084
130.424943,1924.535449,7772.162391,-6281.983084
130.425253,-2590.720797,11473.192101,-4443.353888
130.425562,1110.308913,13101.645173,-3064.381992
130.425872,814.226536,11843.295072,1455.581446
130.426181,3256.906145,8956.491898,4903.011187
130.426490,-1258.350101,5329.482782,6281.983084
130.426800,-4589.276840,6513.812290,-995.924147
130.427109,1110.308913,4959.379811,-5898.935335
130.427419,814.226536,4515.256246,-4979.620737
130.427728,-962.267725,13249.686362,-3753.867940
130.428037,-296.082377,14730.098246,-7124.688131
130.428347,5255.462188,15988.448347,-3600.648841
130.428656,-2886.803174,11917.315666,4443.353888
130.428966,-888.247130,5255.462188,6358.592633
130.429275,-3552.988522,2590.720797,2911.162892
130.429585,592.164754,8882.471304,-5822.325785
130.429894,-814.226536,6365.771101,-4596.572988
130.430203,296.082377,9622.677246,-1762.019645
130.430513,-4589.276840,16062.468941,-2834.553343
130.430822,4663.297435,18357.107362,-8886.707777
130.431132,3849.070898,16950.716072,-7048.078582
130.431441,-148.041188,9474.636058,3140.991542
130.431750,-5107.421000,8438.347739,6511.811733
130.432060,6217.729913,3997.112087,-2528.115143
130.432369,2442.679609,4441.235652,-6052.154434
130.432679,-2886.803174,2368.659014,3600.648841
130.432988,-2146.597232,9918.759623,6971.469032
130.433297,4737.318029,14063.912898,-7048.078582
130.433607,3701.029710,13915.871710,-8044.002729
130.433916,-1776.494261,7254.018232,2451.505594
130.434226,-2886.803174,7328.038826,1685.410096
130.434535,148.041188,8438.347739,-5056.230287
130.434845,592.164754,6735.874072,-4596.572988
130.435154,-2738.761985,6513.812290,229.828649
130.435463,-2886.803174,11621.233289,1532.190996
130.435773,-0.000000,13323.706956,-153.219100
130.436082,4737.318029,12361.439231,-2911.162892
130.436392,-1776.494261,12139.377449,-1302.362347
130.436701,-1406.391290,10510.924376,1915.238745
130.437010,-3478.967927,7698.141797,-536.266849
130.437320,1850.514855,8586.388927,-8503.660028
130.437629,-962.267725,8290.306550,-5745.716235
130.437939,1406.391290,8956.491898,-842.705048
130.438248,296.082377,6957.935855,-2451.505594
130.438558,5699.585753,12139.377449,-4136.915689
130.438867,1184.329507,9474.636058,689.485948
130.439176,1554.432478,9400.615463,7507.735880
130.439486,-2146.597232,6661.853478,7048.078582
130.439795,1702.473667,5773.606348,-3907.087040
130.440105,1110.308913,7179.997637,-7584.345430
130.440414,-2368.659014,7920.203579,-2298.286494
130.440723,-3627.009116,10658.965565,-2298.286494
130.441033,1554.432478,17246.798449,-6971.469032
130.441342,2368.659014,14656.077652,-5592.497135
130.441652,-2220.617826,9474.636058,4903.011187
130.441961,-1554.432478,9474.636058,7124.688131
130.442270,222.061783,5699.585753,459.657299
130.442580,-370.102971,4145.153275,-1149.143247
130.442889,-4515.256246,5107.421000,1302.362347
130.443199,1184.329507,8956.491898,-2911.162892
130.443508,-592.164754,12213.398043,-7890.783629
130.443818,2146.597232,18357.107362,-7431.126331
130.444127,1480.411884,12361.439231,-689.485948
130.444436,962.267725,10584.944971,2451.505594
130.444746,-3997.112087,7105.977043,4290.134789
130.445055,5699.585753,5847.626942,0.000000
130.445365,-2146.597232,6883.915261,-2604.724693
130.445674,-0.000000,3256.906145,1302.362347
130.445983,-1184.329507,9992.780217,1608.800546
130.446293,6143.709319,12435.459826,-8886.707777
130.446602,-0.000000,13989.892304,-4213.525239
130.446912,-1554.432478,12953.603985,8503.660028
130.447221,-3256.906145,7698.141797,2528.115143
130.447531,4811.338623,11473.192101,-8580.269578
130.447840,-1480.411884,8512.368333,-2604.724693
130.448149,-3552.988522,10288.862594,4903.011187
130.448459,-2960.823768,9548.656652,-306.438199
130.448768,3330.926739,12731.542202,-4060.306139
130.449078,740.205942,8586.388927,306.438199
130.449387,-1036.288319,11843.295072,4290.134789
130.449696,-3404.947333,9770.718434,1762.019645
130.450006,-1406.391290,7105.977043,-3600.648841
130.450315,4589.276840,9474.636058,-5592.497135
130.450625,-3552.988522,9844.739029,-6358.592633
130.450934,1998.556043,7031.956449,-842.705048
130.451244,-666.185348,10362.883188,1225.752797
130.451553,4293.194464,11399.171507,-1149.143247
130.451862,-3034.844362,8142.265362,3983.696590
130.452172,3923.091493,5255.462188,5822.325785
130.452481,-2146.597232,5773.606348,-2757.943793
130.452791,888.247130,10288.862594,-7431.126331
130.453100,-0.000000,7550.100608,-6128.763984
130.453409,2072.576638,10214.842000,-4826.401637
130.453719,-2146.597232,14063.912898,-1072.533697
130.454028,1924.535449,13841.851115,-1225.752797
130.454338,-1184.329507,8956.491898,1762.019645
130.454647,2590.720797,5995.668130,4903.011187
130.454956,-4589.276840,8068.244768,3524.039291
130.455266,962.267725,9252.574275,-4136.915689
130.455575,-3330.926739,7846.182985,-5669.106685
130.455885,-0.000000,11399.171507,-3217.601092
130.456194,1110.308913,9474.636058,-3064.381992
130.456504,-2294.638420,13767.830521,-4366.744339
130.456813,1258.350101,17320.819043,-2604.724693
130.457122,2590.720797,8438.347739,-919.314598
130.457432,370.102971,7772.162391,3447.429741
130.457741,-1776.494261,9178.553681,3600.648841
130.458051,2590.720797,5403.503377,-995.924147
130.458360,518.144159,5477.523971,-2451.505594
130.458669,592.164754,8364.327145,842.705048
130.458979,-2516.700203,9770.718434,-1302.362347
130.459288,4515.256246,9992.780217,-5132.839837
130.459598,-1924.535449,11843.295072,-6588.421283
130.459907,592.164754,8512.368333,-536.266849
130.460217,-4737.318029,8586.388927,995.924147
130.460526,3478.967927,9400.615463,-3600.648841
130.460835,-1554.432478,10288.862594,-3983.696590
130.461145,5329.482782,6883.915261,-459.657299
130.461454,-6735.874072,10807.006753,919.314598
130.461764,4071.132681,9474.636058,-1608.800546
130.462073,-962.267725,13693.809927,-2757.943793
130.462382,2590.720797,9474.636058,1225.752797
130.462692,-5699.585753,7550.100608,4979.620737
130.463001,3404.947333,11621.233289,-1838.629195
130.463311,-1924.535449,10658.965565,-8886.707777
130.463620,5107.421000,12361.439231,-5362.668486
130.463929,-3849.070898,7772.162391,1838.629195
130.464239,2220.617826,11991.336260,-1378.971896
130.464548,1998.556043,10066.800811,-1149.143247
130.464858,1776.494261,5329.482782,4443.353888
130.465167,-1924.535449,4959.379811,4519.963438
130.465477,-4811.338623,8290.306550,2374.896044
130.465786,3256.906145,8364.327145,-6741.640382
130.466095,962.267725,4811.338623,-6741.640382
130.466405,3034.844362,8364.327145,-4213.525239
130.466714,296.082377,13027.624579,-536.266849
130.467024,3330.926739,14285.974681,-1608.800546
130.467333,-4441.235652,10066.800811,4826.401637
130.467642,296.082377,7179.997637,7814.174080
130.467952,-3330.926739,6217.729913,2451.505594
130.468261,3701.029710,4737.318029,-4366.744339
130.468571,-4515.256246,9178.553681,-7124.688131
130.468880,2294.638420,8364.327145,-6281.983084
130.469190,-2368.659014,15766.386565,-3217.601092
130.469499,4737.318029,13989.892304,-2374.896044
130.469808,-666.185348,13841.851115,1225.752797
130.470118,2220.617826,11991.336260,4903.011187
130.470427,-5329.482782,6883.915261,5132.839837
130.470737,4441.235652,5181.441594,-2987.772442
130.471046,296.082377,3775.050304,-9116.536426
130.471355,518.144159,7031.956449,-5822.325785
130.471665,-3923.091493,8364.327145,2145.067394
130.471974,2220.617826,11769.274478,-536.266849
130.472284,1998.556043,14582.057057,-2451.505594
130.472593,814.226536,7254.018232,4903.011187
130.472902,-4811.338623,5403.503377,7124.688131
130.473212,-148.041188,7624.121203,-1608.800546
130.473521,2812.782580,9326.594869,-10648.727422
130.473831,-518.144159,9622.677246,-3524.039291
130.474140,-1924.535449,12361.439231,-1838.629195
130.474450,-814.226536,15248.242405,-2834.553343
130.474759,2812.782580,15988.448347,-1608.800546
130.475068,-2590.720797,9770.718434,5286.058936
130.475378,592.164754,6661.853478,5669.106685
130.475687,-3627.009116,6809.894666,-1838.629195
130.475997,4219.173869,8586.388927,-5898.935335
130.476306,-1036.288319,7105.977043,-6665.030833
130.476615,-1258.350101,12287.418637,-3830.477490
130.476925,-518.144159,11917.315666,-536.266849
130.477234,4441.235652,11103.089130,-1072.533697
130.477544,444.123565,8364.327145,2987.772442
130.477853,-0.000000,7179.997637,6128.763984
130.478163,-6735.874072,4071.132681,-306.438199
130.478472,3034.844362,4663.297435,-5209.449386
130.478781,-1628.453072,7698.141797,-8733.488677
130.479091,1184.329507,11843.295072,-6435.202183
130.479400,-518.144159,16358.551318,-3370.820191
130.479710,666.185348,15322.262999,-3600.648841
130.480019,-444.123565,14952.160028,2374.896044
130.480328,888.247130,7772.162391,4749.792088
130.480638,-2960.823768,4145.153275,2604.724693
130.480947,-1850.514855,4293.194464,383.047749
130.481257,1776.494261,6661.853478,-3907.087040
130.481566,-1554.432478,5477.523971,-5975.544884
130.481876,1184.329507,13101.645173,-3600.648841
130.482185,-2516.700203,14582.057057,-4443.353888
130.482494,3775.050304,14804.118840,-5286.058936
130.482804,-222.061783,12805.562797,2068.457845
130.483113,814.226536,9104.533087,4366.744339
130.483423,-1998.556043,4737.318029,1532.190996
130.483732,3034.844362,3923.091493,-5822.325785
130.484041,-2664.741391,6883.915261,-2834.553343
130.484351,3182.885551,8660.409521,-1225.752797
130.484660,-148.041188,10807.006753,-2987.772442
130.484970,1924.535449,13989.892304,-4903.011187
130.485279,-666.185348,10584.944971,383.047749
130.485588,1110.308913,7772.162391,2068.457845
130.485898,-5551.544565,8364.327145,0.000000
130.486207,2812.782580,7476.080014,-2911.162892
130.486517,-1998.556043,6069.688724,-5209.449386
130.486826,1332.370696,8438.347739,-2528.115143
130.487136,-1110.308913,9918.759623,-1532.190996
130.487445,2146.597232,11399.171507,-4826.401637
130.487754,-2590.720797,11769.274478,1225.752797
130.488064,1110.308913,10881.027347,8273.831378
130.488373,-1702.473667,7846.182985,1149.143247
130.488683,222.061783,9844.739029,-1762.019645
130.488992,444.123565,9326.594869,-4443.353888
130.489301,222.061783,7031.956449,-7277.907231
130.489611,1480.411884,10658.965565,-2451.505594
130.489920,-4367.215058,11695.253884,76.609550
130.490230,3627.009116,13249.686362,-2221.676944
130.490539,-0.000000,7254.018232,153.219100
130.490849,1998.556043,5551.544565,5286.058936
130.491158,-7920.203579,4737.318029,5669.106685
130.491467,4589.276840,9104.533087,-4136.915689
130.491777,-2442.679609,7031.956449,-8886.707777
130.492086,4737.318029,11621.233289,-6052.154434
130.492396,-5477.523971,13323.706956,-2451.505594
130.492705,2812.782580,11251.130318,-3064.381992
130.493014,-518.144159,14211.954086,229.828649
130.493324,3849.070898,9474.636058,5132.839837
130.493633,-3997.112087,7624.121203,4443.353888
130.493943,-518.144159,4959.379811,2681.334243
130.494252,-2368.659014,6661.853478,-2911.162892
130.494561,3849.070898,5921.647536,-7584.345430
130.494871,-3775.050304,11547.212695,-5439.278036
130.495180,-592.164754,14656.077652,-3370.820191
130.495490,1110.308913,15914.427753,-3064.381992
130.495799,6587.832884,14359.995275,-919.314598
130.496109,-1702.473667,10214.842000,2604.724693
130.496418,-3478.967927,6957.935855,6588.421283
130.496727,-666.185348,7402.059420,2298.286494
130.497037,3478.967927,2146.597232,-5132.839837
130.497346,-666.185348,7624.121203,-2451.505594
130.497656,-4663.297435,11843.295072,-1149.143247
130.497965,4293.194464,12731.542202,-5286.058936
130.498274,370.102971,12805.562797,-3524.039291
130.498584,2294.638420,11325.150913,1455.581446
130.498893,-6513.812290,7550.100608,2757.943793
130.499203,7031.956449,6069.688724,-2221.676944
130.499512,-2442.679609,4293.194464,-5362.668486
130.499822,3627.009116,7179.997637,-1225.752797
130.500131,-7994.224174,8808.450710,536.266849
130.500440,6587.832884,13767.830521,-4443.353888
130.500750,-2516.700203,11991.336260,-3524.039291
130.501059,4441.235652,9474.636058,1072.533697
130.501369,-5255.462188,11399.171507,3217.601092
130.501678,296.082377,9844.739029,-2681.334243
130.501987,-444.123565,9252.574275,-6052.154434
130.502297,370.102971,9400.615463,-6128.763984
130.502606,-2220.617826,8512.368333,-2451.505594
130.502916,222.061783,10881.027347,-459.657299
130.503225,3330.926739,11177.109724,-2221.676944
130.503534,1480.411884,9326.594869,-919.314598
130.503844,-2516.700203,9918.759623,1915.238745
130.504153,-3775.050304,7402.059420,3907.087040
130.504463,4515.256246,7550.100608,-4366.744339
130.504772,1628.453072,7031.956449,-5286.058936
130.505082,-1258.350101,10436.903782,-2451.505594
130.505391,-3627.009116,10362.883188,-4903.011187
130.505700,6661.853478,9918.759623,-5132.839837
130.506010,-3701.029710,11843.295072,1302.362347
130.506319,-740.205942,12065.356855,4673.182538
130.506629,-4441.235652,8216.285956,2987.772442
130.506938,3552.988522,9178.553681,-3140.991542
130.507247,-1850.514855,7254.018232,-3830.477490
130.507557,1554.432478,6809.894666,-3753.867940
130.507866,-5107.421000,10214.842000,-2604.724693
130.508176,3404.947333,14952.160028,-4749.792088
130.508485,-0.000000,12065.356855,-3140.991542
130.508795,2294.638420,12287.418637,383.047749
130.509104,-5033.400406,11843.295072,5132.839837
130.509413,5181.441594,8068.244768,-2145.067394
130.509723,-1036.288319,5625.565159,-6894.859482
130.510032,592.164754,4737.318029,-3294.210641
130.510342,-2886.803174,8216.285956,1225.752797
130.510651,1628.453072,9548.656652,-2221.676944
130.510960,-592.164754,14878.139434,-7277.907231
130.511270,370.102971,9326.594869,1302.362347
130.511579,-518.144159,10510.924376,2604.724693
130.511889,-2664.741391,9770.718434,-995.924147
130.512198,1850.514855,9030.512492,-4060.306139
130.512508,962.267725,6957.935855,-4979.620737
130.512817,592.164754,7846.182985,-2757.943793
130.513126,-2442.679609,9252.574275,76.609550
130.513436,1776.494261,10807.006753,-536.266849
130.513745,-1850.514855,9622.677246,4749.792088
130.514055,2442.679609,7031.956449,2987.772442
130.514364,-3849.070898,9622.677246,2374.896044
130.514673,2812.782580,9992.780217,-3600.648841
130.514983,-3701.029710,7031.956449,-4903.011187
130.515292,3256.906145,12065.356855,-5745.716235
130.515602,-3256.906145,11547.212695,-3600.648841
130.515911,4737.318029,9548.656652,-2911.162892
130.516220,-4145.153275,11769.274478,0.000000
130.516530,4885.359217,9400.615463,842.705048
130.516839,-3923.091493,5921.647536,4060.306139
130.517149,296.082377,8290.306550,3064.381992
130.517458,666.185348,6439.791695,-3524.039291
130.517768,3997.112087,3552.988522,-5822.325785
130.518077,-4367.215058,14359.995275,1915.238745
130.518386,-1184.329507,10140.821405,-306.438199
130.518696,1554.432478,11843.295072,-2834.553343
130.519005,1554.432478,11695.253884,536.266849
130.519315,-888.247130,11325.150913,919.314598
130.519624,-2960.823768,6143.709319,-1838.629195
130.519933,444.123565,9696.697840,-2604.724693
130.520243,1258.350101,5625.565159,-3447.429741
130.520552,740.205942,8290.306550,-2911.162892
130.520862,-2960.823768,10066.800811,689.485948
130.521171,1258.350101,12731.542202,-1302.362347
130.521481,2220.617826,10881.027347,-3677.258390
130.521790,1702.473667,8512.368333,-153.219100
130.522099,-6439.791695,9548.656652,2145.067394
130.522409,-1850.514855,9770.718434,-2911.162892
130.522718,1406.391290,8438.347739,-8503.660028
130.523028,4145.153275,8364.327145,-3677.258390
130.523337,-4885.359217,8438.347739,2911.162892
130.523646,2812.782580,9992.780217,612.876398
130.523956,2220.617826,10955.047942,-2834.553343
130.524265,4441.235652,8660.409521,0.000000
130.524575,-7179.997637,8142.265362,4060.306139
130.524884,296.082377,9844.739029,-1991.848295
130.525193,2146.597232,9548.656652,-6971.469032
130.525503,4367.215058,8364.327145,-5975.544884
130.525812,-3775.050304,8438.347739,1838.629195
130.526122,-3478.967927,10214.842000,153.219100
130.526431,1850.514855,9474.636058,-2068.457845
130.526741,3108.864956,7772.162391,1225.752797
130.527050,-2590.720797,8142.265362,3524.039291
130.527360,-2442.679609,6365.771101,-229.828649
130.527669,-0.000000,12435.459826,-6281.983084
130.527979,-1702.473667,10140.821405,-7967.393179
130.528288,3552.988522,11991.336260,-4596.572988
130.528598,-3256.906145,9992.780217,766.095498
130.528907,4219.173869,12435.459826,-1378.971896
130.529216,592.164754,6217.729913,2221.676944
130.529526,6513.812290,6143.709319,6818.249932
130.529835,-7772.162391,4071.132681,5056.230287
130.530145,5699.585753,8142.265362,-3753.867940
130.530454,-1110.308913,6735.874072,-6128.763984
130.530764,2664.741391,9474.636058,-3753.867940
130.531073,-4589.276840,10436.903782,-1378.971896
130.531383,3997.112087,11843.295072,-3753.867940
130.531692,-1554.432478,11029.068536,76.609550
130.532002,962.267725,9696.697840,5592.497135
130.532311,-5847.626942,8734.430116,1685.410096
130.532621,1924.535449,7698.141797,-1455.581446
130.532930,-1110.308913,8956.491898,-5745.716235
130.533239,148.041188,7402.059420,-4519.963438
130.533549,-2442.679609,11473.192101,-2068.457845
130.533858,1184.329507,13693.809927,-3753.867940
130.534168,962.267725,13767.830521,-2298.286494
130.534477,1628.453072,9400.615463,3294.210641
130.534787,-4145.153275,7031.956449,5822.325785
130.535096,1702.473667,6513.812290,995.924147
130.535406,2220.617826,9104.533087,-5056.230287
130.535715,-666.185348,6513.812290,-5592.497135
130.536025,1702.473667,9104.533087,-2298.286494
130.536334,-962.267725,11991.336260,-1532.190996
130.536644,4811.338623,12879.583391,76.609550
130.536953,-518.144159,6291.750507,2911.162892
130.537263,592.164754,8216.285956,4519.963438
130.537572,-4145.153275,4811.338623,2681.334243
130.537881,1850.514855,7772.162391,-4673.182538
130.538191,814.226536,9548.656652,-6435.202183
130.538500,3775.050304,12139.377449,-3983.696590
130.538810,-2368.659014,13767.830521,-2911.162892
130.539119,2072.576638,10807.006753,-3064.381992
130.539429,-1702.473667,10436.903782,1225.752797
130.539738,-0.000000,8512.368333,7048.078582
130.540048,-2516.700203,6809.894666,3447.429741
130.540357,-0.000000,8660.409521,-4366.744339
130.540667,-2368.659014,9696.697840,-5056.230287
130.540976,2220.617826,6661.853478,-7354.516781
130.541286,-3923.091493,11251.130318,-4903.011187
130.541595,2072.576638,15470.304188,-1532.190996
130.541905,-518.144159,13841.851115,1149.143247
130.542214,3552.988522,8808.450710,3217.601092
130.542523,-1628.453072,4737.318029,4596.572988
130.542833,-1332.370696,4589.276840,3370.820191
130.543142,2368.659014,7402.059420,-4136.915689
130.543452,1480.411884,4737.318029,-7507.735880
130.543761,-2664.741391,7550.100608,459.657299
130.544071,-2738.761985,10288.862594,-1915.238745
130.544380,1480.411884,13249.686362,-1608.800546
130.544690,592.164754,10214.842000,2757.943793
130.544999,-0.000000,9770.718434,4290.134789
130.545309,-3108.864956,3849.070898,766.095498
130.545618,1184.329507,5995.668130,-1149.143247
130.545928,-1628.453072,7698.141797,-3600.648841
130.546237,1998.556043,11177.109724,-6128.763984
130.546547,-3923.091493,14878.139434,-3983.696590
130.546856,2960.823768,12879.583391,-3830.477490
130.547165,1184.329507,13471.748144,-536.266849
130.547475,4293.194464,11103.089130,2221.676944
130.547784,-5181.441594,6587.832884,4979.620737
130.548094,-2812.782580,7920.203579,1072.533697
130.548403,1110.308913,8142.265362,-5592.497135
130.548713,2886.803174,4071.132681,-6971.469032
130.549022,-888.247130,13397.727550,-2757.943793
130.549332,296.082377,12287.418637,-3753.867940
130.549641,2294.638420,13323.706956,-3064.381992
130.549951,4441.235652,7179.997637,3600.648841
130.550260,888.247130,6883.915261,6971.469032
130.550570,-2812.782580,4663.297435,5515.887586
130.550879,-0.000000,9030.512492,1455.581446
130.551188,-0.000000,7698.141797,-5745.716235
130.551498,370.102971,12509.480420,-7124.688131
130.551807,-2886.803174,13767.830521,-6205.373534
130.552117,2368.659014,14063.912898,-6741.640382
130.552426,-222.061783,13027.624579,-1302.362347
130.552736,-444.123565,9474.636058,7967.393179
130.553045,-5773.606348,7698.141797,6971.469032
130.553355,2590.720797,7031.956449,-1149.143247
130.553664,1258.350101,7105.977043,-4673.182538
130.553974,888.247130,7772.162391,-5515.887586
130.554283,-3701.029710,13841.851115,-3677.258390
130.554593,2738.761985,12583.501014,-5592.497135
130.554902,3182.885551,11991.336260,-4519.963438
130.555212,3552.988522,7920.203579,3370.820191
130.555521,-5995.668130,7920.203579,8427.050478
130.555830,1332.370696,3330.926739,4519.963438
130.556140,1776.494261,4663.297435,-3600.648841
130.556449,3552.988522,3997.112087,-5515.887586
130.556759,-3404.947333,9548.656652,-1608.800546
130.557068,-1110.308913,9918.759623,-2834.553343
130.557378,2220.617826,16654.633695,-8044.002729
130.557687,1850.514855,10214.842000,-2298.286494
130.557997,-2294.638420,6291.750507,5209.449386
130.558306,-7328.038826,5181.441594,4903.011187
130.558616,3923.091493,8068.244768,-1915.238745
130.558925,1924.535449,7698.141797,-3524.039291
130.559235,1110.308913,9548.656652,-306.438199
130.559544,-5181.441594,11325.150913,1302.362347
130.559854,1702.473667,15100.201217,-8656.879127
130.560163,666.185348,12953.603985,-7124.688131
130.560472,592.164754,9770.718434,2221.676944
130.560782,-5847.626942,9474.636058,1225.752797
130.561091,4885.359217,12139.377449,-1608.800546
130.561401,2368.659014,5107.421000,-5132.839837
130.561710,1110.308913,4515.256246,153.219100
130.562020,-5477.523971,6735.874072,4290.134789
130.562329,7994.224174,10066.800811,-2068.457845
130.562639,2146.597232,10732.986159,-7277.907231
130.562948,1702.473667,7550.100608,2987.772442
130.563258,-8216.285956,9178.553681,6588.421283
130.563567,3330.926739,8068.244768,-2604.724693
130.563877,-1110.308913,9992.780217,-6894.859482
130.564186,-666.185348,5921.647536,-3064.381992
130.564496,-3034.844362,10214.842000,1915.238745
130.564805,3552.988522,10436.903782,-3524.039291
130.565114,-0.000000,11325.150913,-6894.859482
130.565424,1110.308913,10584.944971,1685.410096
130.565733,-4441.235652,10214.842000,7967.393179
130.566043,-3034.844362,9548.656652,2834.553343
130.566352,5403.503377,11843.295072,-5592.497135
130.566662,-888.247130,8438.347739,-7431.126331
130.566971,-1776.494261,11843.295072,-229.828649
130.567281,-3552.988522,10214.842000,-3370.820191
130.567590,5329.482782,13175.665768,-11261.603821
130.567900,1110.308913,11991.336260,-4519.963438
130.568209,2368.659014,10214.842000,7354.516781
130.568519,-4441.235652,6513.812290,7660.954980
130.568828,4515.256246,6143.709319,0.000000
130.569138,518.144159,5107.421000,-1915.238745
130.569447,1776.494261,6513.812290,-4903.011187
130.569756,-4441.235652,5773.606348,-689.485948
130.570066,2590.720797,11547.212695,-5515.887586
130.570375,1776.494261,13323.706956,-8197.221829
130.570685,1184.329507,10510.924376,-2374.896044
130.570994,-7550.100608,11473.192101,6128.763984
130.571304,2368.659014,9770.718434,2528.115143
130.571613,888.247130,9992.780217,-6818.249932
130.571923,-444.123565,4293.194464,-536.266849
130.572232,-4515.256246,11177.109724,4290.134789
130.572542,148.041188,11769.274478,-6435.202183
130.572851,4367.215058,14878.139434,-12104.308868
130.573161,-74.020594,10732.986159,459.657299
130.573470,-3775.050304,12879.583391,5439.278036
130.573779,-1554.432478,4293.194464,4749.792088
130.574089,2738.761985,11843.295072,-4826.401637
130.574398,222.061783,4737.318029,-3600.648841
130.574708,2220.617826,6883.915261,1302.362347
130.575017,-2738.761985,6587.832884,2451.505594
130.575327,2368.659014,11251.130318,-3064.381992
130.575636,1184.329507,8512.368333,-4826.401637
130.575946,2886.803174,6365.771101,3294.210641
130.576255,-7254.018232,6735.874072,6281.983084
130.576565,5255.462188,8808.450710,-1302.362347
130.576874,-0.000000,7994.224174,-9269.755526
130.577184,740.205942,8364.327145,-2298.286494
130.577493,-5255.462188,10881.027347,3907.087040
130.577803,4071.132681,13323.706956,-3140.991542
130.578112,2590.720797,13619.789333,-7431.126331
130.578421,1110.308913,9844.739029,1915.238745
130.578731,-7179.997637,10955.047942,8197.221829
130.579040,2146.597232,8512.368333,-3447.429741
130.579350,1850.514855,9918.759623,-9499.584175
130.579659,1036.288319,5477.523971,-3677.258390
130.579969,-5847.626942,11251.130318,5745.716235
130.580278,2590.720797,8290.306550,-1608.800546
130.580588,5699.585753,10658.965565,-7354.516781
130.580897,1480.411884,6291.750507,1072.533697
130.581207,-2220.617826,8586.388927,6818.249932
130.581516,-4071.132681,3849.070898,2068.457845
130.581826,3701.029710,10807.006753,-6894.859482
130.582135,1850.514855,6809.894666,-6511.811733
130.582445,444.123565,10510.924376,0.000000
130.582754,-5255.462188,8364.327145,2987.772442
130.583063,3849.070898,12435.459826,-3753.867940
130.583373,1406.391290,10066.800811,-4749.792088
130.583682,-444.123565,9992.780217,1378.971896
130.583992,-7179.997637,8142.265362,6205.373534
130.584301,3182.885551,11843.295072,-4519.963438
130.584611,-0.000000,10214.842000,-11414.822920
130.584920,-0.000000,9844.739029,-3217.601092
130.585230,-7846.182985,9474.636058,7584.345430
130.585539,3182.885551,12731.542202,-2221.676944
130.585849,3923.091493,12583.501014,-9882.631924
130.586158,4515.256246,5995.668130,-1915.238745
130.586468,-6143.709319,10658.965565,8197.221829
130.586777,1036.288319,4811.338623,2757.943793
130.587087,2590.720797,9400.615463,-7354.516781
130.587396,5477.523971,7179.997637,-4519.963438
130.587705,-4737.318029,7254.018232,3983.696590
130.588015,-5773.606348,9178.553681,5669.106685
130.588324,5403.503377,10066.800811,-6281.983084
130.588634,5107.421000,8142.265362,-8656.879127
130.588943,-2812.782580,10955.047942,3140.991542
130.589253,-6143.709319,7402.059420,7890.783629
130.589562,4885.359217,11843.295072,-4519.963438
130.589872,3923.091493,8438.347739,-9422.974625
130.590181,-814.226536,9992.780217,1838.629195
130.590491,-11547.212695,9844.739029,7201.297681
130.590800,5921.647536,11029.068536,-3370.820191
130.591110,4293.194464,8438.347739,-10418.898773
130.591419,1036.288319,11991.336260,-612.876398
130.591728,-11621.233289,9918.759623,9806.022374
130.592038,5551.544565,12509.480420,-2528.115143
130.592347,-666.185348,8290.306550,-15092.081311
130.592657,3552.988522,9622.677246,-3600.648841
130.592966,-9548.656652,8512.368333,9499.584175
130.593276,5181.441594,7920.203579,306.438199
130.593585,4663.297435,11843.295072,-8810.098227
130.593895,6439.791695,4219.173869,842.705048
130.594204,-8734.430116,6883.915261,12717.185267
130.594514,-1998.556043,6809.894666,7201.297681
130.594823,4737.318029,12805.562797,-10418.898773
130.595133,2960.823768,8586.388927,-11568.042020
130.595442,-5403.503377,11695.253884,1838.629195
130.595752,-5921.647536,11917.315666,2528.115143
130.596061,3701.029710,14508.036463,-8580.269578
130.596370,6957.935855,9622.677246,-9116.536426
130.596680,-2812.782580,8142.265362,7584.345430
130.596989,-5995.668130,7994.224174,13176.842566
130.597299,2072.576638,8142.265362,-1685.410096
130.597608,4663.297435,7105.977043,-11797.870669
130.597918,-4515.256246,10807.006753,-2528.115143
130.598227,-5107.421000,11695.253884,4213.525239
130.598537,4219.173869,15026.180623,-5822.325785
130.598846,5625.565159,9030.512492,-10725.336972
130.599156,-1036.288319,9326.594869,3064.381992
130.599465,-11399.171507,9252.574275,10801.946522
130.599775,3849.070898,11103.089130,-689.485948
130.600084,5403.503377,6143.709319,-13789.718964
130.600394,2220.617826,6291.750507,-4443.353888
130.600703,-8882.471304,9030.512492,8350.440928
130.601012,3034.844362,10288.862594,2145.067394
130.601322,6883.915261,10955.047942,-9346.365076
130.601631,3404.947333,8290.306550,-1991.848295
130.601941,-9770.718434,10066.800811,11261.603821
130.602250,-592.164754,5329.482782,2604.724693
130.602560,4293.194464,9622.677246,-13253.452115
130.602869,2516.700203,8068.244768,-10189.070123
130.603179,-7031.956449,9548.656652,4979.620737
130.603488,-3182.885551,13027.624579,4443.353888
130.603798,6883.915261,15248.242405,-6281.983084
130.604107,4515.256246,9104.533087,-5745.716235
130.604417,-6143.709319,10436.903782,11108.384721
130.604726,-6809.894666,5773.606348,9882.631924
130.605036,4145.153275,9770.718434,-10648.727422
130.605345,1850.514855,8660.409521,-15628.348159
130.605654,-1850.514855,11991.336260,689.485948
130.605964,-7254.018232,10732.986159,7048.078582
130.606273,8290.306550,15100.201217,-5515.887586
130.606583,3923.091493,9030.512492,-6894.859482
130.606892,148.041188,6957.935855,5362.668486
130.607202,-9104.533087,4737.318029,12410.747068
130.607511,3997.112087,5551.544565,-2834.553343
130.607821,2886.803174,5625.565159,-13023.623466
130.608130,1480.411884,8142.265362,-4903.011187
130.608440,-8438.347739,10362.883188,4519.963438
130.608749,1628.453072,13249.686362,-612.876398
130.609059,5107.421000,12435.459826,-8733.488677
130.609368,4071.132681,9696.697840,-1225.752797
130.609678,-8290.306550,4589.276840,10189.070123
130.609987,-4071.132681,5773.606348,5745.716235
130.610296,3182.885551,9548.656652,-10035.851024
130.610606,2886.803174,8956.491898,-9806.022374
130.610915,-5033.400406,11251.130318,5515.887586
130.611225,-4293.194464,13989.892304,3447.429741
130.611534,9104.533087,17246.798449,-8197.221829
130.611844,3404.947333,12139.377449,-9576.193725
130.612153,-3701.029710,9178.553681,5439.278036
130.612463,-7105.977043,4071.132681,9039.926876
130.612772,4441.235652,9104.533087,-5515.887586
130.613082,3627.009116,5699.585753,-10955.165621
130.613391,2294.638420,8956.491898,1455.581446
130.613701,-5847.626942,7031.956449,3983.696590
130.614010,2812.782580,12953.603985,-4366.744339
130.614319,2442.679609,10807.006753,-7967.393179
130.614629,4293.194464,9696.697840,-766.095498
130.614938,-10362.883188,4959.379811,7354.516781
130.615248,1110.308913,7920.203579,2145.067394
130.615557,-740.205942,10140.821405,-13023.623466
130.615867,5033.400406,8660.409521,-14172.766713
130.616176,-8882.471304,12435.459826,689.485948
130.616486,-740.205942,14063.912898,-536.266849
130.616795,5847.626942,14434.015869,-12027.699319
130.617105,3552.988522,9844.739029,-9346.365076
130.617414,-5847.626942,10214.842000,5362.668486
130.617724,-6143.709319,6143.709319,2911.162892
130.618033,3034.844362,9030.512492,-15321.909960
130.618343,4293.194464,9992.780217,-18386.291952
130.618652,814.226536,11621.233289,-9806.022374
130.618961,-6587.832884,9548.656652,-1378.971896
130.619271,1406.391290,14582.057057,-3140.991542
130.619580,5921.647536,10066.800811,-13253.452115
130.619890,5255.462188,5255.462188,-11874.480219
130.620199,-2664.741391,2146.597232,1532.190996
130.620509,-6439.791695,1406.391290,1685.410096
130.620818,2960.823768,5921.647536,-3907.087040
130.621128,6217.729913,7254.018232,-15168.690860
130.621437,-2590.720797,12953.603985,-9346.365076
130.621747,-1554.432478,9474.636058,-4519.963438
130.622056,-148.041188,13693.809927,-11721.261119
130.622366,5255.462188,12953.603985,-21220.845295
130.622675,1628.453072,6069.688724,-12793.794817
130.622985,-2516.700203,3849.070898,1302.362347
130.623294,-2590.720797,4811.338623,2757.943793
130.623603,222.061783,8216.285956,-4290.134789
130.623913,3923.091493,10510.924376,-10648.727422
130.624222,-1776.494261,11991.336260,-14402.595362
130.624532,-3478.967927,13989.892304,-13176.842566
130.624841,-1258.350101,13915.871710,-13942.938064
130.625151,-4071.132681,17468.860231,-19305.606550
130.625460,3108.864956,11103.089130,-15321.909960
130.625770,-1036.288319,5773.606348,-8886.707777
130.626079,592.164754,4441.235652,-1225.752797
130.626389,1406.391290,2812.782580,536.266849
130.626698,-1480.411884,6439.791695,-612.876398
130.627008,-1036.288319,7994.224174,-5975.544884
130.627317,-1480.411884,11473.192101,-15704.957709
130.627627,-444.123565,13471.748144,-20761.187996
130.627936,1036.288319,11769.274478,-17543.586904
130.628247,-4293.194464,12805.562797,-15015.471761
130.628557,-2146.597232,10066.800811,-12563.966167
130.628866,-518.144159,4737.318029,-9652.803275
130.629176,1628.453072,4885.359217,-6281.983084
130.629486,7846.182985,4811.338623,-1072.533697
130.629795,1036.288319,5551.544565,-1378.971896
130.630105,-814.226536,5699.585753,-2757.943793
130.630414,-1332.370696,7994.224174,-8350.440928
130.630724,370.102971,11621.233289,-19382.216099
130.631033,-1776.494261,17616.901420,-21297.454844
130.631343,1332.370696,18283.086767,-20531.359346
130.631652,-0.000000,14804.118840,-16930.710506
130.631962,518.144159,10658.965565,-9806.022374
130.632271,888.247130,8438.347739,-5745.716235
130.632581,1184.329507,7105.977043,-2374.896044
130.632891,1036.288319,9474.636058,-1991.848295
130.633200,3923.091493,7846.182985,-8656.879127
130.633510,4145.153275,7402.059420,-13636.499864
130.633819,592.164754,7402.059420,-11568.042020
130.634129,-3330.926739,10881.027347,-7890.783629
130.634438,-1184.329507,12731.542202,-9116.536426
130.634748,-0.000000,11695.253884,-10418.898773
130.635057,-2886.803174,11177.109724,-15321.909960
130.635367,-4293.194464,10584.944971,-11568.042020
130.635676,814.226536,11029.068536,-15934.786358
130.635986,888.247130,10288.862594,-16547.662757
130.636296,-3849.070898,8438.347739,-9269.755526
130.636605,-1628.453072,10288.862594,-3600.648841
130.636915,3108.864956,10732.986159,-6128.763984
130.637224,1850.514855,8734.430116,-8580.269578
130.637534,-2738.761985,6661.853478,-4290.134789
130.637843,-3923.091493,5995.668130,-4979.620737
130.638153,-74.020594,7105.977043,-14019.547613
130.638462,3256.906145,11251.130318,-18462.901502
130.638772,-0.000000,12287.418637,-13176.842566
130.639081,-2886.803174,13767.830521,-4903.011187
130.639391,-3701.029710,11917.315666,-6971.469032
130.639700,296.082377,8882.471304,-9116.536426
130.640010,-370.102971,5477.523971,-10572.117872
130.640320,-222.061783,6439.791695,-7354.516781
130.640629,-1184.329507,8512.368333,-9039.926876
130.640939,222.061783,12731.542202,-13023.623466
130.641248,1924.535449,16506.592507,-15015.471761
130.641558,370.102971,17468.860231,-14172.766713
130.641867,-296.082377,15544.324782,-11338.213370
130.642177,592.164754,12731.542202,-8350.440928
130.642486,2442.679609,5107.421000,-10572.117872
130.642796,2368.659014,370.102971,-8810.098227
130.643105,-1554.432478,-814.226536,-3140.991542
130.643415,-1110.308913,2812.782580,-4826.401637
130.643725,-1406.391290,4145.153275,-11491.432470
130.644034,1036.288319,13101.645173,-13942.938064
130.644344,888.247130,15322.262999,-13023.623466
130.644653,1036.288319,16284.530724,-14938.862211
130.644963,888.247130,13989.892304,-15015.471761
130.645272,666.185348,11251.130318,-12104.308868
130.645582,-1628.453072,7698.141797,-7814.174080
130.645891,-1850.514855,7105.977043,-4519.963438
130.646201,-444.123565,8660.409521,-6894.859482
130.646510,-0.000000,8438.347739,-15934.786358
130.646820,148.041188,9030.512492,-17160.539155
130.647130,-2072.576638,11325.150913,-14632.424012
130.647439,-962.267725,14137.933492,-12180.918418
130.647749,962.267725,12879.583391,-11874.480219
130.648058,666.185348,11251.130318,-11797.870669
130.648368,148.041188,3478.967927,-5745.716235
130.648677,-0.000000,-814.226536,-4673.182538
130.648987,-0.000000,2442.679609,-5592.497135
130.649296,1776.494261,6439.791695,-7048.078582
130.649606,148.041188,11695.253884,-8503.660028
130.649915,740.205942,14582.057057,-10418.898773
130.650225,-0.000000,15470.304188,-11721.261119
130.650534,296.082377,14952.160028,-12640.575717
130.650844,-148.041188,13545.768739,-14785.643111
130.651154,-1554.432478,8586.388927,-11184.994271
130.651463,-444.123565,7328.038826,-7814.174080
130.651773,-74.020594,7550.100608,-5975.544884
130.652082,370.102971,9992.780217,-7277.907231
130.652392,592.164754,9474.636058,-7354.516781
130.652701,-74.020594,9474.636058,-9116.536426
130.653011,1628.453072,7105.977043,-11108.384721
130.653320,1110.308913,5699.585753,-9116.536426
130.653630,-1258.350101,7105.977043,-3753.867940
130.653939,-518.144159,5255.462188,-2145.067394
130.654249,740.205942,7476.080014,-4903.011187
130.654559,2442.679609,8438.347739,-7048.078582
130.654868,518.144159,9252.574275,-6128.763984
130.655178,-222.061783,10732.986159,-2374.896044
130.655487,-1258.350101,11843.295072,-5745.716235
130.655797,-3330.926739,11251.130318,-9422.974625
130.656106,-3775.050304,11177.109724,-9882.631924
130.656416,-3478.967927,10214.842000,-10725.336972
130.656725,-2294.638420,11177.109724,-14249.376263
130.657035,-1776.494261,12213.398043,-12334.137518
130.657344,-1332.370696,12879.583391,-9959.241474
130.657654,296.082377,13397.727550,-10418.898773
130.657964,-0.000000,12583.501014,-7737.564530
130.658273,-222.061783,13619.789333,-9346.365076
130.658583,-370.102971,11399.171507,-12104.308868
130.658892,-1702.473667,10214.842000,-14709.033562
130.659202,-0.000000,8956.491898,-16777.491406
130.659511,2294.638420,6883.915261,-18003.244203
130.659821,3108.864956,8142.265362,-15628.348159
130.660130,3701.029710,7105.977043,-8963.317327
130.660440,4811.338623,5255.462188,-5745.716235
130.660749,-3404.947333,7402.059420,-3140.991542
130.661059,4367.215058,6365.771101,3294.210641
130.661368,2072.576638,-0.000000,-8044.002729
130.661678,6439.791695,6439.791695,-22523.207641
130.661988,-7698.141797,6365.771101,-19612.044749
130.662297,-4959.379811,17024.736666,-18616.120601
130.662607,-962.267725,16950.716072,-22599.817191
130.662916,5107.421000,17912.983796,-23059.474490
130.663226,1184.329507,13693.809927,-11568.042020
130.663535,-592.164754,8660.409521,-2528.115143
130.663845,-0.000000,7920.203579,-3294.210641
130.664154,17246.798449,-7698.141797,-10265.679673
130.664464,-38934.832549,-3478.967927,-1838.629195
130.664773,15692.365970,18357.107362,612.876398
130.665083,16506.592507,21688.034101,-25510.980083
130.665393,17690.922014,15766.386565,-30107.553071
130.665702,-15988.448347,2812.782580,-9193.145976
130.666012,-15544.324782,8882.471304,-3370.820191
130.666321,5477.523971,13027.624579,-20301.530697
130.666631,4737.318029,8734.430116,-17696.806004
130.666940,-518.144159,13767.830521,-11721.261119
130.667250,-3775.050304,2516.700203,-9422.974625
130.667559,-8068.244768,12065.356855,-7814.174080
130.667869,5995.668130,15248.242405,-11721.261119
130.668178,3997.112087,11029.068536,-21986.940793
130.668488,-2368.659014,11917.315666,-5056.230287
130.668798,-9474.636058,8364.327145,6511.811733
130.669107,2664.741391,5921.647536,-19305.606550
130.669417,1924.535449,-148.041188,-32022.791816
130.669726,888.247130,10436.903782,-14555.814462
130.670036,-6587.832884,7402.059420,-6281.983084
130.670345,2664.741391,11029.068536,-11261.603821
130.670655,7254.018232,11769.274478,-11797.870669
130.670964,6513.812290,6291.750507,-9882.631924
130.671274,-2960.823768,3108.864956,2528.115143
130.671583,-4367.215058,6365.771101,2451.505594
130.671893,4959.379811,7179.997637,-13789.718964
130.672202,7476.080014,12435.459826,-24668.275036
130.672512,-3627.009116,13323.706956,-14709.033562
130.672822,-1628.453072,15618.345376,-7660.954980
130.673131,6291.750507,17394.839637,-13483.280765
130.673441,2442.679609,15470.304188,-11951.089769
130.673750,-5329.482782,10584.944971,-1532.190996
130.674060,-3478.967927,6513.812290,-1915.238745
130.674369,3256.906145,4811.338623,-14019.547613
130.674679,-1554.432478,5033.400406,-15704.957709
130.674988,666.185348,9474.636058,-9806.022374
130.675298,222.061783,11843.295072,-7890.783629
130.675607,-2072.576638,16210.510130,-3830.477490
130.675917,-1850.514855,12879.583391,-1991.848295
130.676227,1332.370696,12435.459826,-8656.879127
130.676536,-296.082377,8438.347739,-7507.735880
130.676846,-4515.256246,4589.276840,-9499.584175
130.677155,-3923.091493,4441.235652,-11338.213370
130.677465,-1480.411884,8586.388927,-12717.185267
130.677774,-1480.411884,12731.542202,-7967.393179
130.678084,-3701.029710,12583.501014,-5056.230287
130.678393,-0.000000,12657.521608,-9882.631924
130.678703,3849.070898,9474.636058,-7967.393179
130.679012,-1776.494261,6883.915261,-2298.286494
130.679322,-2220.617826,3923.091493,-5898.935335
130.679632,-3627.009116,3923.091493,-10725.336972
130.679941,-148.041188,13989.892304,-10955.165621
130.680251,2960.823768,12065.356855,-14325.985813
130.680560,1406.391290,16506.592507,-15015.471761
130.680870,-814.226536,19319.375086,-11261.603821
130.681179,-962.267725,10214.842000,-13406.671215
130.681489,-1036.288319,8216.285956,-14862.252661
130.681798,4737.318029,7994.224174,-13176.842566
130.682108,-740.205942,4885.359217,-6358.592633
130.682417,666.185348,7179.997637,-2374.896044
130.682727,1110.308913,8364.327145,-6511.811733
130.683037,3701.029710,11399.171507,-14096.157163
130.683346,3478.967927,8142.265362,-14479.204912
130.683656,-6735.874072,8216.285956,-7277.907231
130.683965,-2442.679609,14434.015869,-11338.213370
130.684275,3552.988522,9622.677246,-20991.016645
130.684584,3849.070898,7846.182985,-20071.702048
130.684894,2368.659014,4737.318029,-8733.488677
130.685203,-3997.112087,6883.915261,2221.676944
130.685513,1110.308913,8808.450710,2374.896044
130.685822,6365.771101,10658.965565,-7354.516781
130.686132,7105.977043,11695.253884,-12947.013916
130.686441,-2590.720797,4811.338623,-5056.230287
130.686751,-7550.100608,11251.130318,-3677.258390
130.687061,-1924.535449,9844.739029,-12717.185267
130.687370,5329.482782,11695.253884,-17390.367805
130.687680,-2812.782580,9548.656652,-9039.926876
130.687989,-5403.503377,4811.338623,6741.640382
130.688299,-2072.576638,9030.512492,2757.943793
130.688608,-592.164754,7846.182985,-8120.612279
130.688918,3108.864956,11029.068536,-8197.221829
130.689227,-4145.153275,10214.842000,-2451.505594
130.689537,-2294.638420,12361.439231,-2911.162892
130.689846,-3478.967927,13989.892304,-8273.831378
130.690156,7772.162391,14508.036463,-13023.623466
130.690466,296.082377,7846.182985,-7124.688131
130.690775,-2294.638420,7179.997637,7048.078582
130.691085,-2220.617826,7105.977043,7354.516781
130.691394,1924.535449,9030.512492,-5132.839837
130.691704,4589.276840,8068.244768,-9882.631924
130.692013,-4441.235652,4811.338623,76.609550
130.692323,-5181.441594,13027.624579,2911.162892
130.692632,1628.453072,11695.253884,-8963.317327
130.692942,9474.636058,15766.386565,-10955.165621
130.693251,-3627.009116,5995.668130,383.047749
130.693561,74.020594,4441.235652,11951.089769
130.693871,-4811.338623,3182.885551,4903.011187
130.694180,8142.265362,5329.482782,-3677.258390
130.694490,1702.473667,6069.688724,-2604.724693
130.694799,-2590.720797,7698.141797,3753.867940
130.695109,-5255.462188,14211.954086,306.438199
130.695418,7624.121203,13767.830521,-9422.974625
130.695728,1628.453072,15840.407159,-10495.508323
130.696037,-2146.597232,11695.253884,2604.724693
130.696347,-4811.338623,10510.924376,6741.640382
130.696656,2442.679609,8882.471304,-4366.744339
130.696966,4737.318029,10436.903782,-4826.401637
130.697275,1036.288319,7179.997637,4136.915689
130.697585,-5773.606348,9548.656652,6818.249932
130.697895,1258.350101,11843.295072,2757.943793
130.698204,5403.503377,13101.645173,-5132.839837
130.698514,1776.494261,13323.706956,-4826.401637
130.698823,-4959.379811,10584.944971,3830.477490
130.699133,-5403.503377,8586.388927,2451.505594
130.699442,3552.988522,11991.336260,-9652.803275
130.699752,1702.473667,4367.215058,-4903.011187
130.700061,-518.144159,6957.935855,5439.278036
130.700371,-8142.265362,6883.915261,6971.469032
130.700680,5551.544565,11769.274478,-3370.820191
130.700990,3330.926739,7402.059420,-3064.381992
130.701300,444.123565,7550.100608,3217.601092
130.701609,-8808.450710,6513.812290,7967.393179
130.701919,3997.112087,9548.656652,-3753.867940
130.702228,1184.329507,6069.688724,-9422.974625
130.702538,1258.350101,10140.821405,-2834.553343
130.702847,-8068.244768,12435.459826,2374.896044
130.703157,3256.906145,12583.501014,-7354.516781
130.703466,4071.132681,10140.821405,-6281.983084
130.703776,2368.659014,8660.409521,2681.334243
130.704085,-7179.997637,6513.812290,6971.469032
130.704395,2886.803174,5107.421000,-919.314598
130.704705,4441.235652,8808.450710,-7507.735880
130.705014,74.020594,4737.318029,-4060.306139
130.705324,-4959.379811,11991.336260,-306.438199
130.705633,-74.020594,11621.233289,-5975.544884
130.705943,7624.121203,15544.324782,-11414.822920
130.706252,3775.050304,9326.594869,-3753.867940
130.706562,-3478.967927,9252.574275,8044.002729
130.706871,-8142.265362,3923.091493,7890.783629
130.707181,7105.977043,7031.956449,-4596.572988
130.707490,1036.288319,2220.617826,-7660.954980
130.707800,-666.185348,10362.883188,-689.485948
130.708109,-6809.894666,12435.459826,-1915.238745
130.708419,5995.668130,17838.963202,-11184.994271
130.708729,-1110.308913,12435.459826,-7814.174080
130.709038,-1036.288319,13101.645173,2834.553343
130.709348,-10288.862594,11473.192101,5132.839837
130.709657,4589.276840,7550.100608,-4290.134789
130.709967,296.082377,5773.606348,-4903.011187
130.710276,1628.453072,5329.482782,306.438199
130.710586,-6143.709319,9104.533087,1378.971896
130.710895,1406.391290,9474.636058,-3830.477490
130.711205,3552.988522,11103.089130,-5669.106685
130.711514,1258.350101,10140.821405,2068.457845
130.711824,-5995.668130,9770.718434,6435.202183
130.712134,1332.370696,6809.894666,-3677.258390
130.712443,9474.636058,7550.100608,-9116.536426
130.712753,1702.473667,3108.864956,-1608.800546
130.713062,-7402.059420,9770.718434,8886.707777
130.713372,962.267725,9844.739029,995.924147
130.713681,6587.832884,12287.418637,-8503.660028
130.713991,-0.000000,8660.409521,689.485948
130.714300,-4959.379811,10214.842000,9499.584175
130.714610,-5921.647536,7624.121203,919.314598
130.714919,6217.729913,9770.718434,-8427.050478
130.715229,-2368.659014,7328.038826,-3447.429741
130.715539,-1924.535449,11917.315666,76.609550
130.715848,-3627.009116,11695.253884,-1685.410096
130.716158,7179.997637,15248.242405,-6435.202183
130.716467,296.082377,8586.388927,-2834.553343
130.716777,1332.370696,9400.615463,7584.345430
130.717086,-7402.059420,5181.441594,6435.202183
130.717396,5403.503377,5477.523971,-2298.286494
130.717705,4219.173869,3552.988522,-4826.401637
130.718015,1036.288319,3849.070898,459.657299
130.718324,-11177.109724,9770.718434,4903.011187
130.718634,5847.626942,13693.809927,-5362.668486
130.718943,5699.585753,15174.221811,-10265.679673
130.719253,1332.370696,10288.862594,1378.971896
130.719563,-7846.182985,9918.759623,9806.022374
130.719872,592.164754,7328.038826,2374.896044
130.720182,4293.194464,6957.935855,-4749.792088
130.720491,-2146.597232,4515.256246,2068.457845
130.720801,-5847.626942,12361.439231,5209.449386
130.721110,-1258.350101,12213.398043,-3907.087040
130.721420,4811.338623,18727.210333,-9806.022374
130.721729,-2738.761985,13693.809927,-3447.429741
130.722039,370.102971,13027.624579,1072.533697
130.722348,-6439.791695,12509.480420,-1915.238745
130.722658,5181.441594,7994.224174,-2681.334243
130.722968,3404.947333,1924.535449,0.000000
130.723277,1036.288319,6735.874072,2068.457845
130.723587,-3256.906145,5403.503377,5439.278036
130.723896,4589.276840,9400.615463,842.705048
130.724206,962.267725,9178.553681,-4519.963438
130.724515,1036.288319,8216.285956,-919.314598
130.724825,-7105.977043,11251.130318,1685.410096
130.725134,4071.132681,7846.182985,-9039.926876
130.725444,4515.256246,5921.647536,-10878.556072
130.725753,-2368.659014,8142.265362,1149.143247
130.726063,-7105.977043,9178.553681,7814.174080
130.726373,2590.720797,7698.141797,-2298.286494
130.726682,5107.421000,11251.130318,-4979.620737
130.726992,-1258.350101,7994.224174,3140.991542
130.727301,-6439.791695,9030.512492,7201.297681
130.727611,-740.205942,9326.594869,-1838.629195
130.727920,4441.235652,13175.665768,-9346.365076
130.728230,-518.144159,9400.615463,-7124.688131
130.728539,-2664.741391,11843.295072,2834.553343
130.728849,-3108.864956,9252.574275,-1225.752797
130.729158,7105.977043,15174.221811,-9346.365076
130.729468,962.267725,5181.441594,-995.924147
130.729777,-888.247130,8438.347739,7507.735880
130.730087,-6439.791695,7994.224174,4903.011187
130.730396,8734.430116,8364.327145,-5898.935335
130.730706,2664.741391,6957.935855,-6052.154434
130.731015,-2220.617826,11621.233289,383.047749
130.731325,-5033.400406,10732.986159,76.609550
130.731634,9918.759623,10658.965565,-8810.098227
130.731944,-0.000000,9992.780217,-4673.182538
130.732253,-666.185348,12731.542202,5132.839837
130.732563,-8216.285956,10362.883188,6205.373534
130.732872,5255.462188,8364.327145,-4903.011187
130.733182,814.226536,7772.162391,-4979.620737
130.733491,-1554.432478,9400.615463,153.219100
130.733800,-6957.935855,11103.089130,1838.629195
130.734110,4367.215058,14211.954086,-5515.887586
