#time,accel_x,accel_y,accel_z
169.620643,-296.082377,9030.512492,-1608.800546
169.620952,222.061783,9400.615463,-1378.971896
169.621261,-296.082377,9992.780217,-1685.410096
169.621571,740.205942,9844.739029,-1608.800546
169.621880,296.082377,9992.780217,-1302.362347
169.622189,-296.082377,9474.636058,-1072.533697
169.622499,-0.000000,9474.636058,-766.095498
169.622808,-666.185348,8734.430116,-1685.410096
169.623117,592.164754,8734.430116,-4519.963438
169.623427,-296.082377,9104.533087,-1838.629195
169.623736,296.082377,10732.986159,-153.219100
169.624045,296.082377,10658.965565,536.266849
169.624355,-74.020594,8142.265362,-1302.362347
169.624664,370.102971,8882.471304,-1378.971896
169.624973,-888.247130,8734.430116,-1378.971896
169.625283,296.082377,9030.512492,-536.266849
169.625592,814.226536,8882.471304,0.000000
169.625901,-740.205942,10436.903782,-612.876398
169.626211,2072.576638,7179.997637,1302.362347
169.626520,4885.359217,7179.997637,1072.533697
169.626829,2294.638420,5699.585753,7431.126331
169.627139,148.041188,6809.894666,9806.022374
169.627448,-814.226536,5033.400406,10801.946522
169.627757,7772.162391,9252.574275,5898.935335
169.628067,4811.338623,6069.688724,3983.696590
169.628376,-1480.411884,8956.491898,11491.432470
169.628685,-2072.576638,10732.986159,12257.527968
169.628995,1332.370696,10140.821405,6128.763984
169.629304,1406.391290,12435.459826,3600.648841
169.629613,-1480.411884,12731.542202,9039.926876
169.629923,-9844.739029,16876.695478,10418.898773
169.630232,3923.091493,25167.002028,-995.924147
169.630541,6217.729913,2738.761985,-919.314598
169.630851,814.226536,12805.562797,17007.320056
169.631160,-20503.704593,7476.080014,35087.173808
169.631469,4737.318029,20059.581028,5822.325785
169.631779,4515.256246,4737.318029,-5209.449386
169.632088,-2960.823768,11177.109724,4136.915689
169.632397,-11991.336260,6809.894666,11568.042020
169.632707,-518.144159,10955.047942,0.000000
169.633016,2072.576638,6735.874072,3677.258390
169.633325,-7254.018232,4663.297435,16088.005458
169.633635,6069.688724,6735.874072,13023.623466
169.633944,-6513.812290,-370.102971,12104.308868
169.634253,3330.926739,6069.688724,15168.690860
169.634563,-2516.700203,6365.771101,13253.452115
169.634872,814.226536,6217.729913,153.219100
169.635181,666.185348,10584.944971,4596.572988
169.635491,-962.267725,13471.748144,1532.190996
169.635800,5107.421000,13323.706956,-7277.907231
169.636109,888.247130,13323.706956,12947.013916
169.636419,2220.617826,10510.924376,22446.598091
169.636728,740.205942,3701.029710,19458.825649
169.637037,1850.514855,5847.626942,12947.013916
169.637347,-2294.638420,3701.029710,11644.651570
169.637656,4071.132681,13323.706956,0.000000
169.637965,7031.956449,15766.386565,-5975.544884
169.638275,962.267725,17764.942608,3064.381992
169.638584,-4367.215058,15692.365970,15934.786358
169.638893,-7179.997637,13471.748144,18079.853753
169.639203,2368.659014,12879.583391,5515.887586
169.639512,4885.359217,6735.874072,-5439.278036
169.639821,3552.988522,6809.894666,-2298.286494
169.640131,-2368.659014,8512.368333,14402.595362
169.640440,222.061783,10658.965565,16241.224558
169.640749,888.247130,8216.285956,9806.022374
169.641059,4885.359217,5329.482782,4596.572988
169.641368,-1628.453072,2368.659014,2834.553343
169.641677,-8068.244768,2368.659014,5898.935335
169.641987,-3849.070898,8512.368333,2834.553343
169.642296,6661.853478,9844.739029,-7201.297681
169.642605,7402.059420,9474.636058,-4060.306139
169.642915,-2442.679609,7031.956449,18922.558801
169.643224,-8808.450710,9252.574275,25357.760984
169.643533,444.123565,11325.150913,12027.699319
169.643843,6439.791695,9474.636058,-4443.353888
169.644152,-740.205942,10881.027347,-3447.429741
169.644461,-5847.626942,11473.192101,995.924147
169.644771,-1036.288319,14285.974681,-3830.477490
169.645080,8882.471304,14063.912898,-5132.839837
169.645389,1924.535449,10436.903782,11338.213370
169.645699,-4293.194464,5921.647536,27196.390179
169.646008,1702.473667,3701.029710,21297.454844
169.646317,4737.318029,4811.338623,5592.497135
169.646627,370.102971,5403.503377,4979.620737
169.646936,444.123565,7846.182985,4443.353888
169.647245,8216.285956,5329.482782,-5745.716235
169.647555,-0.000000,8438.347739,4596.572988
169.647864,-4293.194464,11399.171507,20914.407095
169.648173,-5403.503377,7994.224174,22676.426741
169.648483,-4219.173869,-12805.562797,9806.022374
169.648792,-15026.180623,9178.553681,-2068.457845
169.649101,11399.171507,9770.718434,-5669.106685
169.649411,-21169.889941,296.082377,7507.735880
169.649720,11325.150913,24278.754898,12947.013916
169.650029,-1110.308913,6291.750507,2604.724693
169.650339,-1998.556043,12583.501014,9806.022374
169.650648,-15914.427753,8068.244768,29647.895773
169.650957,-2960.823768,7624.121203,6511.811733
169.651267,12139.377449,11473.192101,-10801.946522
169.651576,-1184.329507,9770.718434,842.705048
169.651885,-1998.556043,11547.212695,10572.117872
169.652195,-2368.659014,12139.377449,9269.755526
169.652504,2960.823768,15840.407159,7814.174080
169.652813,2738.761985,7994.224174,6588.421283
169.653123,-2664.741391,9474.636058,13789.718964
169.653432,-3330.926739,9474.636058,21986.940793
169.653741,-2072.576638,3849.070898,12793.794817
169.654051,11769.274478,7772.162391,3294.210641
169.654360,-74.020594,1184.329507,8044.002729
169.654669,2664.741391,7994.224174,11721.261119
169.654979,148.041188,9844.739029,13330.061665
169.655288,-4515.256246,10881.027347,11797.870669
169.655597,1998.556043,14211.954086,12947.013916
169.655907,296.082377,7994.224174,6818.249932
169.656216,-4663.297435,5033.400406,3370.820191
169.656525,-6143.709319,10288.862594,11261.603821
169.656835,-3478.967927,14211.954086,7354.516781
169.657144,518.144159,13175.665768,3370.820191
169.657453,8808.450710,16728.654289,6128.763984
169.657763,-2368.659014,11621.233289,13253.452115
169.658072,-9252.574275,11769.274478,15245.300410
169.658381,-1480.411884,12139.377449,8503.660028
169.658691,4515.256246,9474.636058,2298.286494
169.659000,3701.029710,8808.450710,-5898.935335
169.659309,-6809.894666,6883.915261,5515.887586
169.659619,-0.000000,9770.718434,13483.280765
169.659928,2072.576638,7994.224174,9499.584175
169.660237,5847.626942,1924.535449,8120.612279
169.660547,-740.205942,3478.967927,14479.204912
169.660856,-9992.780217,-666.185348,16011.395908
169.661165,6587.832884,8364.327145,2145.067394
169.661475,9030.512492,7846.182985,-5745.716235
169.661784,2220.617826,12805.562797,3294.210641
169.662093,-2368.659014,13693.809927,19075.777900
169.662403,740.205942,6883.915261,18156.463303
169.662712,7328.038826,10955.047942,7354.516781
169.663021,-7698.141797,2072.576638,12870.404366
169.663331,-2072.576638,12509.480420,11108.384721
169.663640,-0.000000,11843.295072,-6128.763984
169.663949,5625.565159,15988.448347,-14709.033562
169.664259,-370.102971,12953.603985,3983.696590
169.664568,-1702.473667,15840.407159,17773.415554
169.664877,5995.668130,10732.986159,10955.165621
169.665187,2886.803174,7994.224174,8427.050478
169.665496,-3478.967927,7624.121203,16088.005458
169.665805,-2960.823768,3478.967927,12563.966167
169.666115,12065.356855,2812.782580,-6358.592633
169.666424,4737.318029,6587.832884,-5286.058936
169.666733,-1924.535449,6587.832884,10648.727422
169.667043,-4145.153275,6661.853478,19382.216099
169.667352,4293.194464,4737.318029,9499.584175
169.667661,-518.144159,3849.070898,7507.735880
169.667970,-8586.388927,5773.606348,7048.078582
169.668280,962.267725,11917.315666,-3753.867940
169.668589,-814.226536,6735.874072,-11951.089769
169.668898,2664.741391,18875.251521,-2604.724693
169.669208,-4737.318029,14656.077652,4290.134789
169.669517,-3701.029710,13101.645173,8886.707777
169.669826,-10807.006753,15026.180623,13866.328514
169.670136,2146.597232,16728.654289,1225.752797
169.670445,6661.853478,13175.665768,-14172.766713
169.670754,-5847.626942,3552.988522,-1149.143247
169.671064,962.267725,12213.398043,7431.126331
169.671373,3034.844362,3552.988522,459.657299
169.671682,6735.874072,1184.329507,3600.648841
169.671992,-7031.956449,5847.626942,19765.263848
169.672301,-6069.688724,4663.297435,9039.926876
169.672610,14285.974681,3923.091493,-15781.567259
169.672920,1184.329507,-0.000000,-7737.564530
169.673229,-3182.885551,6291.750507,16471.053207
169.673538,3034.844362,4219.173869,13866.328514
169.673848,740.205942,6439.791695,5745.716235
169.674157,518.144159,16210.510130,8886.707777
169.674466,-6587.832884,12287.418637,0.000000
169.674822,5255.462188,15766.386565,-14862.252661
169.675132,4293.194464,21243.910535,-13023.623466
169.675441,-2146.597232,17172.777854,1991.848295
169.675751,-2886.803174,16284.530724,11031.775171
169.676060,-4811.338623,10658.965565,5669.106685
169.676370,4737.318029,11251.130318,-1762.019645
169.676679,2812.782580,10881.027347,-2911.162892
169.676989,-666.185348,13693.809927,-1149.143247
169.677298,2294.638420,12435.459826,6665.030833
169.677608,4145.153275,10288.862594,4366.744339
169.677918,1850.514855,8216.285956,-689.485948
169.678227,-6365.771101,1258.350101,383.047749
169.678537,-3775.050304,5699.585753,4673.182538
169.678846,1554.432478,4145.153275,-2298.286494
169.679156,-666.185348,10140.821405,-4519.963438
169.679465,-2590.720797,12953.603985,5975.544884
169.679775,4589.276840,7624.121203,1302.362347
169.680084,-3256.906145,4811.338623,-5439.278036
169.680394,-8364.327145,7179.997637,-612.876398
169.680704,1184.329507,9400.615463,-3524.039291
169.681013,4071.132681,15248.242405,-12104.308868
169.681323,-5995.668130,12731.542202,2681.334243
169.681632,-2960.823768,7105.977043,12717.185267
169.681942,2960.823768,2368.659014,0.000000
169.682251,3256.906145,5255.462188,-5132.839837
169.682561,2368.659014,5773.606348,1225.752797
169.682870,592.164754,2146.597232,1762.019645
169.683180,3256.906145,10140.821405,1915.238745
169.683489,-814.226536,14656.077652,9576.193725
169.683799,7254.018232,10658.965565,4366.744339
169.684109,-1110.308913,10436.903782,-3753.867940
169.684418,-4515.256246,13249.686362,-5132.839837
169.684728,7031.956449,15840.407159,-7354.516781
169.685037,4367.215058,17838.963202,-12257.527968
169.685347,-0.000000,18061.024985,2145.067394
169.685656,-1480.411884,12065.356855,14862.252661
169.685966,2960.823768,5477.523971,2757.943793
169.686275,-3108.864956,10436.903782,-3064.381992
169.686585,-6883.915261,9992.780217,7354.516781
169.686895,2442.679609,4515.256246,-6052.154434
169.687204,2960.823768,9918.759623,-19305.606550
169.687514,1332.370696,10807.006753,-612.876398
169.687823,-4959.379811,666.185348,11797.870669
169.688133,-3182.885551,5847.626942,2298.286494
169.688442,-5403.503377,2516.700203,6588.421283
169.688752,1998.556043,5181.441594,5209.449386
169.689061,814.226536,12509.480420,-14249.376263
169.689371,-4663.297435,9918.759623,-13636.499864
169.689680,296.082377,16728.654289,-1685.410096
169.689990,-4737.318029,9844.739029,-5515.887586
169.690300,-3034.844362,9252.574275,-3753.867940
169.690609,-0.000000,10140.821405,7201.297681
169.690919,-444.123565,3182.885551,536.266849
169.691228,3256.906145,7402.059420,-4136.915689
169.691538,-3997.112087,12361.439231,5056.230287
169.691847,3330.926739,3478.967927,-306.438199
169.692157,7550.100608,8364.327145,-11261.603821
169.692466,-6735.874072,8364.327145,1762.019645
169.692776,-4737.318029,8956.491898,13942.938064
169.693086,5551.544565,12879.583391,-5592.497135
169.693395,370.102971,6883.915261,-13253.452115
169.693705,5847.626942,14211.954086,919.314598
169.694014,-9474.636058,12213.398043,2068.457845
169.694324,-4071.132681,9548.656652,-8197.221829
169.694633,2072.576638,19689.478057,-1149.143247
169.694943,4737.318029,13249.686362,-7967.393179
169.695252,2072.576638,10658.965565,-10878.556072
169.695562,-2590.720797,16506.592507,6511.811733
169.695872,-296.082377,6365.771101,7124.688131
169.696181,7328.038826,1258.350101,-7354.516781
169.696491,-6957.935855,3108.864956,6435.202183
169.696800,-5107.421000,4663.297435,10342.289223
169.697110,7550.100608,8808.450710,-16624.272307
169.697419,4441.235652,8956.491898,-14555.814462
169.697729,-2886.803174,13693.809927,10878.556072
169.698038,-3256.906145,10732.986159,6281.983084
169.698348,1110.308913,5255.462188,-5056.230287
169.698657,1924.535449,10658.965565,4596.572988
169.698967,-814.226536,4145.153275,383.047749
169.699277,6587.832884,11399.171507,-10112.460574
169.699586,-4885.359217,10881.027347,6205.373534
169.699896,-888.247130,14434.015869,10648.727422
169.700205,3849.070898,12139.377449,-13559.890315
169.700515,-444.123565,11029.068536,-10572.117872
169.700824,-7624.121203,10658.965565,4136.915689
169.701134,962.267725,8290.306550,-7124.688131
169.701443,7105.977043,10881.027347,-9959.241474
169.701753,3775.050304,7105.977043,8044.002729
169.702063,-5181.441594,6587.832884,12640.575717
169.702372,-1480.411884,-2812.782580,4979.620737
169.702682,6513.812290,6439.791695,-1838.629195
169.702991,4663.297435,9474.636058,-612.876398
169.703301,-4737.318029,10807.006753,1149.143247
169.703610,4663.297435,16432.571912,-2374.896044
169.703920,-1776.494261,4219.173869,-8120.612279
169.704229,1628.453072,13619.789333,-3983.696590
169.704539,-11399.171507,12361.439231,9422.974625
169.704848,-2960.823768,12139.377449,76.609550
169.705158,1776.494261,16358.551318,-14325.985813
169.705468,-2294.638420,11843.295072,-7890.783629
169.705777,2664.741391,15544.324782,-4673.182538
169.706087,-5625.565159,7550.100608,-3064.381992
169.706396,-666.185348,8734.430116,2221.676944
169.706706,3034.844362,444.123565,1532.190996
169.707015,1998.556043,2590.720797,153.219100
169.707325,-2664.741391,3404.947333,12487.356617
169.707634,-444.123565,6735.874072,8427.050478
169.707944,10436.903782,5477.523971,-14019.547613
169.708254,-1480.411884,8586.388927,-9576.193725
169.708563,-5699.585753,9844.739029,12257.527968
169.708873,-4959.379811,4737.318029,2604.724693
169.709182,3478.967927,14211.954086,-17696.806004
169.709492,-2590.720797,15100.201217,-7584.345430
169.709801,-2738.761985,15396.283594,2374.896044
169.710111,5773.606348,16432.571912,-13176.842566
169.710420,2738.761985,11917.315666,-4673.182538
169.710730,1332.370696,11843.295072,9882.631924
169.711040,-5477.523971,9992.780217,7354.516781
169.711349,6513.812290,6143.709319,-6588.421283
169.711659,3330.926739,11399.171507,-9039.926876
169.711968,-3552.988522,6735.874072,-2451.505594
169.712278,2368.659014,6957.935855,-6511.811733
169.712587,3182.885551,8808.450710,-5592.497135
169.712897,1406.391290,2442.679609,459.657299
169.713206,-888.247130,6661.853478,4903.011187
169.713516,-4071.132681,7105.977043,9882.631924
169.713825,888.247130,8438.347739,3524.039291
169.714135,5477.523971,15322.262999,-9576.193725
169.714445,-814.226536,13471.748144,-10112.460574
169.714754,-3256.906145,11029.068536,-4136.915689
169.715064,-4293.194464,16728.654289,-3217.601092
169.715373,-444.123565,13397.727550,-7354.516781
169.715683,3997.112087,11177.109724,-2604.724693
169.715992,-6143.709319,10214.842000,6281.983084
169.716302,-11769.274478,5107.421000,7431.126331
169.716611,12065.356855,10362.883188,-8120.612279
169.716921,6735.874072,-1998.556043,-17620.196454
169.717231,-2294.638420,6291.750507,2911.162892
169.717540,-444.123565,7698.141797,15245.300410
169.717850,2442.679609,4367.215058,689.485948
169.718159,3552.988522,11917.315666,-842.705048
169.718469,-11029.068536,9326.594869,11874.480219
169.718778,222.061783,9918.759623,-4519.963438
169.719088,11251.130318,15914.427753,-25127.932334
169.719397,2072.576638,14656.077652,-11414.822920
169.719707,-888.247130,13323.706956,10265.679673
169.720017,-296.082377,12361.439231,7354.516781
169.720326,-1924.535449,9030.512492,2298.286494
169.720636,148.041188,12879.583391,5132.839837
169.720945,3256.906145,5625.565159,-4443.353888
169.721255,1184.329507,7179.997637,-9346.365076
169.721564,962.267725,14211.954086,536.266849
169.721874,-3034.844362,3701.029710,5822.325785
169.722183,2886.803174,9252.574275,-8427.050478
169.722493,-2738.761985,9104.533087,-1302.362347
169.722802,-2146.597232,11103.089130,1455.581446
169.723112,1406.391290,10140.821405,-6435.202183
169.723422,-3330.926739,10214.842000,2911.162892
169.723731,444.123565,8512.368333,6358.592633
169.724041,2664.741391,4367.215058,-6818.249932
169.724350,-4959.379811,5107.421000,-2681.334243
169.724660,-7031.956449,9622.677246,6818.249932
169.724969,-592.164754,8586.388927,-6818.249932
169.725279,8364.327145,16506.592507,-18156.463303
169.725588,-3552.988522,15396.283594,1762.019645
169.725898,-7772.162391,8142.265362,7584.345430
169.726208,-2072.576638,4811.338623,-8044.002729
169.726517,814.226536,8438.347739,-3447.429741
169.726827,3849.070898,6365.771101,-459.657299
169.727136,-2220.617826,4219.173869,-4213.525239
169.727446,-0.000000,10732.986159,5439.278036
169.727755,148.041188,10658.965565,4136.915689
169.728065,3923.091493,6069.688724,-6971.469032
169.728374,-2220.617826,6957.935855,2374.896044
169.728684,-3182.885551,10288.862594,9806.022374
169.728993,3034.844362,14434.015869,-8886.707777
169.729303,4145.153275,12731.542202,-15704.957709
169.729613,-814.226536,20503.704593,-1991.848295
169.729922,-4737.318029,9178.553681,-612.876398
169.730232,-814.226536,10288.862594,-4903.011187
169.730541,1554.432478,14211.954086,536.266849
169.730851,-1480.411884,6365.771101,-3983.696590
169.731160,4589.276840,5403.503377,-2757.943793
169.731470,740.205942,10658.965565,4519.963438
169.731779,3775.050304,2368.659014,0.000000
169.732089,2146.597232,5699.585753,-2528.115143
169.732399,-3849.070898,2886.803174,6128.763984
169.732708,-1036.288319,4515.256246,3983.696590
169.733018,3849.070898,7846.182985,-14555.814462
169.733327,2146.597232,9844.739029,-12257.527968
169.733637,-2516.700203,15988.448347,-306.438199
169.733946,-2738.761985,7179.997637,0.000000
169.734256,1702.473667,5995.668130,-6971.469032
169.734565,-1184.329507,11399.171507,0.000000
169.734875,-6217.729913,11399.171507,2987.772442
169.735185,4219.173869,13471.748144,-5669.106685
169.735494,7254.018232,12361.439231,-7431.126331
169.735804,740.205942,10807.006753,-6052.154434
169.736113,-3627.009116,6957.935855,-306.438199
169.736423,-2368.659014,7920.203579,5056.230287
169.736732,7920.203579,7994.224174,-5669.106685
169.737042,518.144159,3701.029710,-9576.193725
169.737351,-4515.256246,10881.027347,8580.269578
169.737661,1628.453072,9400.615463,5209.449386
169.737970,8512.368333,4589.276840,-9729.412825
169.738280,5329.482782,13323.706956,-2911.162892
169.738590,-7550.100608,10066.800811,8273.831378
169.738899,-3701.029710,8438.347739,0.000000
169.739209,7031.956449,19689.478057,-11644.651570
169.739518,-1924.535449,14211.954086,-7507.735880
169.739828,-1258.350101,12805.562797,-383.047749
169.740137,-5625.565159,12287.418637,919.314598
169.740447,-5181.441594,7179.997637,0.000000
169.740756,5995.668130,9252.574275,-3907.087040
169.741066,148.041188,1480.411884,-10648.727422
169.741376,-3997.112087,4145.153275,2757.943793
169.741685,592.164754,7994.224174,9959.241474
169.741995,2368.659014,2960.823768,-3677.258390
169.742304,1480.411884,4663.297435,-459.657299
169.742614,-4367.215058,8068.244768,11184.994271
169.742923,-4441.235652,4589.276840,842.705048
169.743233,3775.050304,11991.336260,-13483.280765
169.743542,3404.947333,19393.395680,-8120.612279
169.743852,-3552.988522,7402.059420,-689.485948
169.744161,-1554.432478,16728.654289,536.266849
169.744471,-5625.565159,16506.592507,1762.019645
169.744781,6217.729913,10436.903782,-6894.859482
169.745090,1110.308913,14508.036463,-4290.134789
169.745400,-8290.306550,11695.253884,5515.887586
169.745709,9548.656652,7698.141797,-689.485948
169.746019,8290.306550,7846.182985,-10725.336972
169.746328,-8142.265362,6143.709319,7584.345430
169.746638,-5773.606348,9030.512492,16164.615008
169.746947,1110.308913,5329.482782,-7048.078582
169.747257,9548.656652,13323.706956,-23059.474490
169.747567,-0.000000,11843.295072,-4903.011187
169.747876,-8290.306550,5329.482782,9346.365076
169.748186,-0.000000,8882.471304,2374.896044
169.748495,7476.080014,7254.018232,-1149.143247
169.748805,888.247130,7920.203579,-2221.676944
169.749114,-5921.647536,9918.759623,2221.676944
169.749424,-1406.391290,9622.677246,6128.763984
169.749733,7846.182985,12953.603985,-6052.154434
169.750043,-1998.556043,14211.954086,-16394.443657
169.750353,-2812.782580,10807.006753,-3600.648841
169.750662,2146.597232,10066.800811,-6894.859482
169.750972,-1776.494261,7772.162391,-12027.699319
169.751281,-740.205942,10732.986159,4443.353888
169.751591,3849.070898,8808.450710,9039.926876
169.751900,4441.235652,-2368.659014,-383.047749
169.752210,4959.379811,6217.729913,4673.182538
169.752519,-5921.647536,5699.585753,10189.070123
169.752829,-2664.741391,5625.565159,-459.657299
169.753138,8216.285956,17616.901420,-12487.356617
169.753448,1998.556043,11917.315666,-11108.384721
169.753758,1184.329507,12805.562797,-5975.544884
169.754067,-9622.677246,17764.942608,153.219100
169.754377,-5699.585753,9622.677246,1608.800546
169.754686,13471.748144,9696.697840,-9959.241474
169.754996,1184.329507,10658.965565,-7048.078582
169.755305,-7624.121203,10066.800811,8656.879127
169.755615,2960.823768,10436.903782,2374.896044
169.755924,7402.059420,7328.038826,-10112.460574
169.756234,962.267725,7254.018232,0.000000
169.756544,-5181.441594,7698.141797,9806.022374
169.756853,-592.164754,1702.473667,-842.705048
169.757163,-962.267725,9252.574275,-7201.297681
169.757472,222.061783,9474.636058,-2298.286494
169.757782,-148.041188,9474.636058,-4903.011187
169.758091,1776.494261,10362.883188,-4060.306139
169.758401,1110.308913,7105.977043,2145.067394
169.758710,-3478.967927,9474.636058,2298.286494
169.759020,-5477.523971,11177.109724,5669.106685
169.759329,-888.247130,9400.615463,-766.095498
169.759639,5107.421000,11695.253884,-14402.595362
169.759949,148.041188,11103.089130,-10418.898773
169.760258,-8512.368333,13471.748144,3753.867940
169.760568,5477.523971,9400.615463,153.219100
169.760877,4515.256246,4959.379811,-10265.679673
169.761187,-3034.844362,3701.029710,4749.792088
169.761496,-6513.812290,4811.338623,12640.575717
169.761806,4737.318029,3478.967927,-1915.238745
169.762115,5403.503377,6217.729913,-8810.098227
169.762425,-4293.194464,5255.462188,1455.581446
169.762735,222.061783,8586.388927,1455.581446
169.763044,444.123565,15322.262999,-2987.772442
169.763354,740.205942,12657.521608,-3064.381992
169.763663,3997.112087,17987.004391,-1762.019645
169.763973,-4441.235652,9918.759623,3064.381992
169.764282,-5477.523971,13027.624579,4213.525239
169.764592,-74.020594,15396.283594,-7201.297681
169.764901,3256.906145,4367.215058,-15934.786358
169.765211,-296.082377,10955.047942,-3217.601092
169.765521,-7254.018232,13841.851115,9806.022374
169.765830,3849.070898,11029.068536,-6818.249932
169.766140,1924.535449,5625.565159,-7660.954980
169.766449,-2146.597232,444.123565,3677.258390
169.766759,2442.679609,1924.535449,6511.811733
169.767068,5033.400406,9030.512492,-2757.943793
169.767378,2220.617826,1036.288319,2374.896044
169.767687,4293.194464,9178.553681,10342.289223
169.767997,-0.000000,6439.791695,3600.648841
169.768306,-1850.514855,8512.368333,-4213.525239
169.768616,3256.906145,15840.407159,2221.676944
169.768926,-7105.977043,10658.965565,-1225.752797
169.769235,666.185348,14656.077652,-6052.154434
169.769545,-1998.556043,18357.107362,-3447.429741
169.769854,1184.329507,13027.624579,-7124.688131
169.770164,-7179.997637,16358.551318,-5286.058936
169.770473,-518.144159,15618.345376,919.314598
169.770783,6883.915261,10288.862594,-3753.867940
169.771092,6439.791695,6957.935855,-1762.019645
169.771402,-8660.409521,6217.729913,14325.985813
169.771712,1332.370696,-1184.329507,11568.042020
169.772021,3182.885551,592.164754,-6205.373534
169.772331,4367.215058,2738.761985,-8350.440928
169.772640,2886.803174,7994.224174,1378.971896
169.772950,-3256.906145,3997.112087,536.266849
169.773259,2960.823768,13397.727550,-3294.210641
169.773569,6291.750507,16432.571912,-919.314598
169.773878,-4737.318029,5625.565159,2911.162892
169.774188,-3849.070898,14434.015869,3830.477490
169.774498,-1110.308913,14656.077652,-1149.143247
169.774807,5107.421000,13693.809927,-9269.755526
169.775117,-74.020594,19837.519246,-9959.241474
169.775426,-2442.679609,10288.862594,-4060.306139
169.775736,4885.359217,11917.315666,-6281.983084
169.776045,-7920.203579,9770.718434,2221.676944
169.776355,-3923.091493,9326.594869,10418.898773
169.776664,9252.574275,5847.626942,-1915.238745
169.776974,2590.720797,3256.906145,-11108.384721
169.777283,-1184.329507,5625.565159,4749.792088
169.777593,-740.205942,3849.070898,6971.469032
169.777903,3108.864956,-0.000000,-5745.716235
169.778212,3849.070898,10436.903782,306.438199
169.778522,-3108.864956,7698.141797,6971.469032
169.778831,-5181.441594,8808.450710,-2145.067394
169.779141,3627.009116,14434.015869,-5132.839837
169.779450,-1110.308913,12509.480420,-2221.676944
169.779760,1628.453072,13915.871710,-4979.620737
169.780070,-1628.453072,15396.283594,-6435.202183
169.780379,-5847.626942,14211.954086,612.876398
169.780689,-2368.659014,16136.489536,-1991.848295
169.780998,4589.276840,11399.171507,-10418.898773
169.781308,1110.308913,8808.450710,-7584.345430
169.781617,-2960.823768,9770.718434,3064.381992
169.781927,2368.659014,1554.432478,8963.317327
169.782237,-1110.308913,2664.741391,2068.457845
169.782546,2146.597232,4219.173869,1455.581446
169.782856,148.041188,2294.638420,-1149.143247
169.783165,1554.432478,9918.759623,-3370.820191
169.783475,888.247130,11917.315666,0.000000
169.783784,-0.000000,8438.347739,1225.752797
169.784094,-518.144159,13619.789333,536.266849
169.784404,-4219.173869,15026.180623,-612.876398
169.784713,-1554.432478,11325.150913,-766.095498
169.785023,444.123565,15766.386565,-4519.963438
169.785332,-444.123565,13915.871710,-10801.946522
169.785642,5477.523971,11769.274478,-6435.202183
169.785951,-6069.688724,7920.203579,6128.763984
169.786261,-3627.009116,11547.212695,5439.278036
169.786570,888.247130,6365.771101,0.000000
169.786880,2886.803174,2738.761985,-1608.800546
169.787190,-0.000000,5107.421000,3983.696590
169.787499,-1258.350101,-518.144159,4366.744339
169.787809,4367.215058,2738.761985,0.000000
169.788118,222.061783,6069.688724,-1532.190996
169.788428,-2960.823768,4293.194464,6358.592633
169.788737,888.247130,8142.265362,5439.278036
169.789047,-0.000000,12435.459826,-5362.668486
169.789357,4071.132681,15396.283594,-10418.898773
169.789666,1480.411884,18283.086767,-3217.601092
169.789976,-4367.215058,14434.015869,-2911.162892
169.790285,-3256.906145,14063.912898,-6281.983084
169.790595,4737.318029,14211.954086,-4443.353888
169.790904,-3923.091493,6365.771101,383.047749
169.791214,-1184.329507,8364.327145,5286.058936
169.791524,5329.482782,8808.450710,2681.334243
169.791833,7105.977043,2738.761985,-6052.154434
169.792143,370.102971,4885.359217,2528.115143
169.792452,-6513.812290,6809.894666,11951.089769
169.792762,-1184.329507,4515.256246,2451.505594
169.793071,6365.771101,9030.512492,-9039.926876
169.793381,-2590.720797,11991.336260,-9422.974625
169.793691,3552.988522,10066.800811,-1762.019645
169.794000,-1776.494261,10066.800811,1991.848295
169.794310,-1628.453072,14137.933492,3294.210641
169.794619,740.205942,12287.418637,5286.058936
169.794929,-4367.215058,11251.130318,2221.676944
169.795238,2146.597232,14508.036463,-8963.317327
169.795548,3552.988522,12139.377449,-9422.974625
169.795857,-0.000000,8808.450710,-4213.525239
169.796167,-2294.638420,11769.274478,-1149.143247
169.796477,-2072.576638,8216.285956,4596.572988
169.796786,2590.720797,4737.318029,1838.629195
169.797096,814.226536,2664.741391,-4060.306139
169.797405,1850.514855,296.082377,4290.134789
169.797715,-370.102971,5181.441594,9346.365076
169.798024,-1850.514855,5847.626942,2528.115143
169.798334,-0.000000,10881.027347,-7277.907231
169.798644,-1258.350101,13693.809927,-10495.508323
169.798953,-3256.906145,9696.697840,-7354.516781
169.799263,-888.247130,17912.983796,-2681.334243
169.799572,5329.482782,21095.869347,-1608.800546
169.799882,-1554.432478,8364.327145,1225.752797
169.800191,-4885.359217,9696.697840,6588.421283
169.800501,-5403.503377,8216.285956,2987.772442
169.800811,5625.565159,5847.626942,-10265.679673
169.801120,4071.132681,8956.491898,-12027.699319
169.801430,-1480.411884,5995.668130,1685.410096
169.801739,-2072.576638,6735.874072,9193.145976
169.802049,-2886.803174,8216.285956,4749.792088
169.802358,-7328.038826,2886.803174,459.657299
169.802668,4589.276840,7105.977043,-3600.648841
169.802977,2072.576638,6069.688724,-6358.592633
169.803287,-1776.494261,11325.150913,-4213.525239
169.803597,5181.441594,15396.283594,0.000000
169.803906,-1480.411884,4293.194464,-306.438199
169.804216,-2590.720797,9992.780217,2987.772442
169.804525,-2368.659014,9400.615463,9422.974625
169.804835,-1776.494261,11917.315666,-612.876398
169.805144,1258.350101,12509.480420,-8044.002729
169.805454,518.144159,11399.171507,-5362.668486
169.805764,-962.267725,12435.459826,-8350.440928
169.806073,-2516.700203,8882.471304,-7277.907231
169.806383,-296.082377,9844.739029,-1302.362347
169.806692,5995.668130,6957.935855,766.095498
169.807002,2812.782580,5773.606348,2221.676944
169.807311,-3256.906145,4663.297435,13100.233016
169.807621,-148.041188,7624.121203,7277.907231
169.807931,4737.318029,2886.803174,-5669.106685
169.808240,1702.473667,8956.491898,-6128.763984
169.808550,-1406.391290,10436.903782,0.000000
169.808859,-2664.741391,11917.315666,-306.438199
169.809169,-0.000000,15100.201217,-6358.592633
169.809478,3256.906145,15396.283594,-5898.935335
169.809788,-3923.091493,13915.871710,-2987.772442
169.810098,-4811.338623,15766.386565,-2987.772442
169.810407,2960.823768,7994.224174,-1991.848295
169.810717,3849.070898,11843.295072,-1302.362347
169.811026,-2886.803174,6069.688724,-766.095498
169.811336,-3923.091493,3404.947333,5898.935335
169.811645,7105.977043,8364.327145,229.828649
169.811955,2886.803174,4293.194464,-6818.249932
169.812264,-4441.235652,8068.244768,4519.963438
169.812574,-1332.370696,8216.285956,12487.356617
169.812884,-74.020594,4589.276840,-2681.334243
169.813193,4811.338623,13323.706956,-10495.508323
169.813503,-2072.576638,5625.565159,-1991.848295
169.813812,-5033.400406,10584.944971,-1532.190996
169.814122,370.102971,18801.230927,-5592.497135
169.814431,1924.535449,13027.624579,-6665.030833
169.814741,-2664.741391,11695.253884,-1378.971896
169.815051,-6587.832884,14434.015869,2528.115143
169.815360,1554.432478,9548.656652,-766.095498
169.815670,5329.482782,9400.615463,-5286.058936
169.815979,1184.329507,8290.306550,-4290.134789
169.816289,-2960.823768,5773.606348,6741.640382
169.816598,2294.638420,8290.306550,6281.983084
169.816908,1924.535449,3182.885551,-2757.943793
169.817218,-5551.544565,8068.244768,3600.648841
169.817527,-74.020594,7402.059420,612.876398
169.817837,-1776.494261,5995.668130,-11797.870669
169.818146,3775.050304,11843.295072,-9039.926876
169.818456,-1628.453072,8882.471304,3677.258390
169.818765,-740.205942,12287.418637,306.438199
169.819075,-1258.350101,11917.315666,536.266849
169.819384,-3627.009116,13471.748144,4596.572988
169.819694,5107.421000,12657.521608,-5209.449386
169.820004,1184.329507,9770.718434,-9576.193725
169.820313,-1332.370696,11251.130318,0.000000
169.820623,444.123565,10732.986159,842.705048
169.820932,814.226536,6069.688724,-4136.915689
169.821242,-6365.771101,8660.409521,1149.143247
169.821551,-1850.514855,4811.338623,2451.505594
169.821861,1110.308913,2442.679609,-7277.907231
169.822171,962.267725,8660.409521,-5592.497135
169.822480,-444.123565,6883.915261,4443.353888
169.822790,-814.226536,9104.533087,-689.485948
169.823099,3701.029710,14285.974681,-4673.182538
169.823409,-3552.988522,8290.306550,3140.991542
169.823718,2146.597232,11843.295072,766.095498
169.824028,-3034.844362,9770.718434,-2451.505594
169.824338,-2516.700203,11843.295072,-1072.533697
169.824647,-888.247130,13915.871710,-229.828649
169.824957,-740.205942,9548.656652,-8350.440928
169.825266,-1406.391290,13915.871710,-8580.269578
169.825576,-1480.411884,10510.924376,-5209.449386
169.825885,-666.185348,5773.606348,-3217.601092
169.826195,-4663.297435,9844.739029,229.828649
169.826505,3108.864956,10288.862594,229.828649
169.826814,2664.741391,6069.688724,-5515.887586
169.827124,1110.308913,3775.050304,-2451.505594
169.827433,-3849.070898,3552.988522,13023.623466
169.827743,5403.503377,6291.750507,1225.752797
169.828052,5033.400406,5033.400406,-7354.516781
169.828362,888.247130,10955.047942,-1072.533697
169.828671,-4367.215058,9696.697840,5822.325785
169.828981,-4145.153275,11029.068536,-459.657299
169.829291,148.041188,17838.963202,-11031.775171
169.829600,3108.864956,16358.551318,-12257.527968
169.829910,-3108.864956,10214.842000,-4673.182538
169.830219,-6217.729913,11325.150913,1915.238745
169.830529,4589.276840,13175.665768,-2221.676944
169.830838,4515.256246,8882.471304,-6128.763984
169.831148,-2738.761985,7698.141797,5439.278036
169.831458,-296.082377,3701.029710,9499.584175
169.831767,6735.874072,5625.565159,-2528.115143
169.832077,2146.597232,2516.700203,-5515.887586
169.832386,-2812.782580,9474.636058,7048.078582
169.832696,1924.535449,8586.388927,1072.533697
169.833005,-444.123565,6957.935855,-10265.679673
169.833315,-962.267725,11029.068536,-4673.182538
169.833625,-1998.556043,11695.253884,76.609550
169.833934,-1998.556043,9030.512492,-3217.601092
169.834244,-74.020594,15026.180623,76.609550
169.834553,-0.000000,16136.489536,0.000000
169.834863,666.185348,14137.933492,-6281.983084
169.835172,2664.741391,13545.768739,-5745.716235
169.835482,-2960.823768,8290.306550,1532.190996
169.835792,2072.576638,9178.553681,919.314598
169.836101,-2812.782580,8216.285956,-612.876398
169.836411,-4071.132681,6957.935855,3677.258390
169.836720,1628.453072,9104.533087,-995.924147
169.837030,2220.617826,4293.194464,-9346.365076
169.837339,-1924.535449,5995.668130,-6665.030833
169.837649,2072.576638,4589.276840,2911.162892
169.837958,-814.226536,2738.761985,2145.067394
169.838268,-1406.391290,9548.656652,2374.896044
169.838578,3034.844362,7550.100608,2221.676944
169.838887,-2294.638420,8290.306550,-2451.505594
169.839197,2294.638420,11103.089130,-1991.848295
169.839506,4737.318029,15100.201217,229.828649
169.839816,-5699.585753,15766.386565,-1072.533697
169.840125,-8142.265362,13767.830521,1991.848295
169.840435,-3108.864956,14656.077652,-4979.620737
169.840745,6365.771101,12583.501014,-16854.100956
169.841054,-2294.638420,8882.471304,-10418.898773
169.841364,-3627.009116,10436.903782,4290.134789
169.841673,7105.977043,8216.285956,0.000000
169.841983,2072.576638,-2960.823768,612.876398
169.842292,-8956.491898,2442.679609,16088.005458
169.842602,1332.370696,3108.864956,9729.412825
169.842912,6291.750507,1850.514855,-13330.061665
169.843221,3108.864956,9474.636058,-10955.165621
169.843531,-1776.494261,11473.192101,4060.306139
169.843840,-2738.761985,10955.047942,153.219100
169.844150,222.061783,15100.201217,-3677.258390
169.844459,-0.000000,14137.933492,-536.266849
169.844769,-6365.771101,12805.562797,-2911.162892
169.845078,-3701.029710,16358.551318,-5209.449386
169.845388,-0.000000,11325.150913,-7584.345430
169.845698,8734.430116,11843.295072,-14402.595362
169.846007,-1406.391290,10584.944971,-7124.688131
169.846317,-6809.894666,11621.233289,9882.631924
169.846626,3997.112087,7179.997637,6511.811733
169.846936,4441.235652,-296.082377,-5362.668486
169.847245,-740.205942,5477.523971,4903.011187
169.847555,666.185348,1480.411884,8810.098227
169.847865,740.205942,1776.494261,-5822.325785
169.848174,1258.350101,4737.318029,-2834.553343
169.848484,1258.350101,7772.162391,4519.963438
169.848793,-6957.935855,10066.800811,-2374.896044
169.849103,-5625.565159,18283.086767,-4060.306139
169.849412,2146.597232,15988.448347,-8273.831378
169.849722,4441.235652,14730.098246,-15628.348159
169.850032,-1332.370696,17024.736666,-3524.039291
169.850341,-9104.533087,13767.830521,7967.393179
169.850651,7846.182985,13175.665768,-6435.202183
169.850960,7402.059420,2590.720797,-11261.603821
169.851270,-7550.100608,5477.523971,11261.603821
169.851579,-2738.761985,5847.626942,16624.272307
169.851889,8438.347739,1480.411884,-5898.935335
169.852199,2664.741391,5181.441594,-6281.983084
169.852508,-5329.482782,2812.782580,6818.249932
169.852818,-5329.482782,4663.297435,919.314598
169.853127,2812.782580,6809.894666,-11491.432470
169.853437,592.164754,11325.150913,-10572.117872
169.853746,-0.000000,15544.324782,-3677.258390
169.854056,-3330.926739,13323.706956,0.000000
169.854365,-2590.720797,14508.036463,-2451.505594
169.854675,1554.432478,11843.295072,1532.190996
169.854985,1184.329507,10658.965565,459.657299
169.855294,-3034.844362,13619.789333,536.266849
169.855604,2738.761985,9474.636058,-5439.278036
169.855913,222.061783,5995.668130,-7354.516781
169.856223,-2886.803174,11695.253884,-2604.724693
169.856532,-814.226536,9548.656652,-1149.143247
169.856842,962.267725,4515.256246,-6894.859482
169.857152,592.164754,5033.400406,-5286.058936
169.857461,1554.432478,4367.215058,0.000000
169.857771,370.102971,4515.256246,766.095498
169.858080,-1554.432478,4145.153275,6205.373534
169.858390,-444.123565,9400.615463,4749.792088
169.858699,6217.729913,8438.347739,-8197.221829
169.859009,-1480.411884,11325.150913,-3907.087040
169.859319,1258.350101,15766.386565,2987.772442
169.859628,-296.082377,16432.571912,-1149.143247
169.859938,-444.123565,15618.345376,-4443.353888
169.860247,-6587.832884,18579.169144,-5056.230287
169.860557,-148.041188,13175.665768,-10112.460574
169.860866,3404.947333,6217.729913,-12793.794817
169.861176,-2886.803174,7698.141797,-2068.457845
169.861486,-1036.288319,5995.668130,6894.859482
169.861795,5625.565159,5847.626942,3677.258390
169.862105,-740.205942,4293.194464,9422.974625
169.862414,2146.597232,2146.597232,10878.556072
169.862724,3627.009116,5033.400406,2145.067394
169.863033,-444.123565,4737.318029,-4673.182538
169.863343,-1628.453072,10955.047942,-4213.525239
169.863652,-0.000000,11325.150913,-7660.954980
169.863962,-962.267725,10807.006753,-6971.469032
169.864272,-3997.112087,21021.848753,-4213.525239
169.864581,1850.514855,15988.448347,-8886.707777
169.864891,-1480.411884,8586.388927,-7201.297681
169.865200,-3701.029710,10362.883188,4136.915689
169.865510,-666.185348,7994.224174,4903.011187
169.865819,8734.430116,9844.739029,-2987.772442
169.866129,518.144159,-0.000000,-995.924147
169.866439,-3552.988522,6143.709319,7890.783629
169.866748,370.102971,7031.956449,4213.525239
169.867058,-0.000000,9992.780217,-3370.820191
169.867367,4811.338623,9844.739029,-9499.584175
169.867677,2294.638420,6883.915261,-5592.497135
169.867986,-5255.462188,7105.977043,3217.601092
169.868296,-5477.523971,10584.944971,4519.963438
169.868606,5773.606348,13397.727550,-842.705048
169.868915,2220.617826,7994.224174,-3753.867940
169.869225,1776.494261,13545.768739,919.314598
169.869534,-592.164754,9474.636058,2604.724693
169.869844,-2886.803174,11769.274478,-459.657299
169.870153,-2220.617826,17320.819043,-1915.238745
169.870463,5033.400406,16210.510130,-9346.365076
169.870772,2442.679609,10807.006753,-10189.070123
169.871082,-2664.741391,6217.729913,2298.286494
169.871392,296.082377,7994.224174,6435.202183
169.871701,2812.782580,3627.009116,842.705048
169.872011,-1554.432478,4219.173869,3830.477490
169.872320,-5921.647536,6809.894666,4443.353888
169.872630,5995.668130,2516.700203,-9116.536426
169.872939,7105.977043,4811.338623,-12257.527968
169.873249,-740.205942,10362.883188,1072.533697
169.873559,-3775.050304,9622.677246,10265.679673
169.873868,-814.226536,10955.047942,5515.887586
169.874178,-370.102971,12065.356855,383.047749
169.874487,4071.132681,9252.574275,-2911.162892
169.874797,-814.226536,14730.098246,-7814.174080
169.875106,-2220.617826,15766.386565,-8810.098227
169.875416,-4737.318029,12213.398043,-5515.887586
169.875726,3034.844362,16876.695478,-6741.640382
169.876035,-1110.308913,10955.047942,-3600.648841
169.876345,-2590.720797,8956.491898,5286.058936
169.876655,4737.318029,6587.832884,4519.963438
169.876964,3108.864956,2368.659014,-919.314598
169.877274,-1998.556043,5033.400406,4673.182538
169.877583,1480.411884,5551.544565,3907.087040
169.877893,6291.750507,-148.041188,-4826.401637
169.878203,-1184.329507,8142.265362,1915.238745
169.878512,-5329.482782,12361.439231,12257.527968
169.878822,-4219.173869,14211.954086,-2068.457845
169.879132,-0.000000,14582.057057,-8733.488677
169.879441,2442.679609,16136.489536,-9652.803275
169.879751,-1702.473667,15544.324782,-10801.946522
169.880061,-2960.823768,12139.377449,-2987.772442
169.880370,-5255.462188,15322.262999,4519.963438
169.880680,7105.977043,15174.221811,-3217.601092
169.880990,5033.400406,4811.338623,-4060.306139
169.881299,-1332.370696,5329.482782,7277.907231
169.881609,1554.432478,1184.329507,8580.269578
169.881919,2146.597232,-1110.308913,0.000000
169.882228,-2960.823768,1480.411884,5822.325785
169.882538,-1258.350101,6439.791695,6205.373534
169.882847,2294.638420,8142.265362,-11184.994271
169.883157,4663.297435,10881.027347,-13176.842566
169.883467,-2220.617826,16654.633695,-2911.162892
169.883776,-3923.091493,12953.603985,1455.581446
169.884086,2146.597232,18431.127956,-3064.381992
169.884396,2812.782580,14211.954086,-4979.620737
169.884705,-3330.926739,15100.201217,1455.581446
169.885015,1628.453072,8956.491898,383.047749
169.885325,2442.679609,10140.821405,-3677.258390
169.885634,4219.173869,8882.471304,-4979.620737
169.885944,-1332.370696,3627.009116,1915.238745
169.886254,-6661.853478,12213.398043,6741.640382
169.886563,3923.091493,7105.977043,-4213.525239
169.886873,5255.462188,1924.535449,-11031.775171
169.887183,-2368.659014,5033.400406,1608.800546
169.887492,-1554.432478,1850.514855,7660.954980
169.887802,1036.288319,7550.100608,-1149.143247
169.888112,5033.400406,3849.070898,0.000000
169.888421,-2516.700203,10362.883188,5822.325785
169.888731,-3256.906145,12509.480420,2528.115143
169.889040,6883.915261,18061.024985,-8044.002729
169.889350,-4145.153275,19023.292709,-6588.421283
169.889660,1258.350101,21095.869347,-6588.421283
169.889969,2146.597232,11473.192101,-10878.556072
169.890279,-8364.327145,13323.706956,-383.047749
169.890589,1924.535449,11325.150913,1608.800546
169.890898,5107.421000,1406.391290,-6971.469032
169.891208,-2590.720797,3997.112087,2221.676944
169.891518,-1332.370696,7031.956449,12717.185267
169.891827,7105.977043,1702.473667,-4136.915689
169.892137,444.123565,2516.700203,-4519.963438
169.892447,-814.226536,11029.068536,9039.926876
169.892756,-1850.514855,11103.089130,2374.896044
169.893066,3701.029710,11177.109724,-13406.671215
169.893376,2442.679609,13915.871710,-8886.707777
169.893685,592.164754,11769.274478,-1225.752797
169.893995,1480.411884,13323.706956,229.828649
169.894305,-5847.626942,16950.716072,3217.601092
169.894614,518.144159,12805.562797,2451.505594
169.894924,3108.864956,11399.171507,-7660.954980
169.895233,4293.194464,9030.512492,-6281.983084
169.895543,592.164754,7105.977043,-1225.752797
169.895853,-6957.935855,9992.780217,1302.362347
169.896162,-4737.318029,9770.718434,4749.792088
169.896472,1924.535449,8956.491898,1378.971896
169.896782,5403.503377,7698.141797,-7967.393179
169.897091,-666.185348,5551.544565,-6052.154434
169.897401,-1406.391290,3552.988522,4519.963438
169.897711,2516.700203,7402.059420,1225.752797
169.898020,962.267725,5107.421000,1072.533697
169.898330,962.267725,10584.944971,9959.241474
169.898640,-2886.803174,10066.800811,11874.480219
169.898949,-592.164754,13693.809927,-3600.648841
169.899259,-1406.391290,15026.180623,-5975.544884
169.899569,222.061783,14952.160028,-9116.536426
169.899878,1480.411884,18949.272115,-15934.786358
169.900188,-1850.514855,12583.501014,-5209.449386
169.900498,1110.308913,13249.686362,5056.230287
169.900807,-814.226536,12583.501014,2681.334243
169.901117,2738.761985,5625.565159,5209.449386
169.901426,-3849.070898,2368.659014,11568.042020
169.901736,2368.659014,1480.411884,-2221.676944
169.902046,7772.162391,2812.782580,-7967.393179
169.902355,-5329.482782,10510.924376,-1072.533697
169.902665,5181.441594,14137.933492,-1685.410096
169.902975,2886.803174,8808.450710,-5898.935335
169.903284,-3330.926739,12879.583391,3294.210641
169.903594,1776.494261,8068.244768,5669.106685
169.903904,-592.164754,5995.668130,-5286.058936
169.904213,-3478.967927,6365.771101,-1991.848295
169.904523,-1850.514855,10362.883188,4673.182538
169.904833,3182.885551,16358.551318,-11414.822920
169.905142,-0.000000,14285.974681,-12487.356617
169.905452,-1998.556043,17690.922014,0.000000
169.905762,4737.318029,9252.574275,-3524.039291
169.906071,3108.864956,7328.038826,-6435.202183
169.906381,-5625.565159,7328.038826,9806.022374
169.906690,3182.885551,4811.338623,6971.469032
169.907000,8364.327145,-2220.617826,-4749.792088
169.907310,-1628.453072,2072.576638,8427.050478
169.907619,-2960.823768,4293.194464,12257.527968
169.907929,-0.000000,1702.473667,-4366.744339
169.908239,-2368.659014,14508.036463,-7354.516781
169.908548,1184.329507,19393.395680,-9193.145976
169.908858,666.185348,16062.468941,-17466.977354
169.909168,-444.123565,14063.912898,-8656.879127
169.909477,-3701.029710,13693.809927,7584.345430
169.909787,518.144159,15988.448347,1762.019645
169.910097,5625.565159,8586.388927,-2987.772442
169.910406,-74.020594,5329.482782,9039.926876
169.910716,-888.247130,3923.091493,7277.907231
169.911026,814.226536,4811.338623,-6818.249932
169.911335,-4219.173869,9548.656652,-3217.601092
169.911645,962.267725,10510.924376,-3524.039291
169.911955,2886.803174,4219.173869,-12793.794817
169.912264,-7105.977043,9844.739029,-1149.143247
169.912574,814.226536,10732.986159,4673.182538
169.912883,1258.350101,6735.874072,-4213.525239
169.913193,3923.091493,4737.318029,2681.334243
169.913503,-3552.988522,6661.853478,13789.718964
169.913812,-1036.288319,10288.862594,4443.353888
169.914122,4071.132681,14952.160028,-3677.258390
169.914432,-4737.318029,17320.819043,-2451.505594
169.914741,1184.329507,18875.251521,-9193.145976
169.915051,2442.679609,12953.603985,-17160.539155
169.915361,-3256.906145,12583.501014,-7277.907231
169.915670,-4145.153275,9696.697840,1378.971896
169.915980,518.144159,7624.121203,2451.505594
169.916290,-4589.276840,10658.965565,7507.735880
169.916599,4663.297435,6661.853478,3677.258390
169.916909,5995.668130,-370.102971,-9806.022374
169.917219,3849.070898,1406.391290,-3677.258390
169.917528,888.247130,4589.276840,11568.042020
169.917838,-5181.441594,7402.059420,2681.334243
169.918148,-592.164754,10288.862594,2528.115143
169.918457,-740.205942,10732.986159,1302.362347
169.918767,3552.988522,15100.201217,-15168.690860
169.919076,5403.503377,11177.109724,-16854.100956
169.919386,-4885.359217,10362.883188,1225.752797
169.919696,-7031.956449,15544.324782,9116.536426
169.920005,-0.000000,16062.468941,4136.915689
169.920315,-3256.906145,16580.613101,689.485948
169.920625,3108.864956,11843.295072,-7048.078582
169.920934,5255.462188,-592.164754,-14172.766713
169.921244,-7772.162391,-592.164754,76.609550
169.921554,2738.761985,7254.018232,8886.707777
169.921863,3404.947333,7328.038826,-1915.238745
169.922173,2886.803174,7772.162391,6205.373534
169.922483,-2590.720797,10732.986159,17237.148705
169.922792,1850.514855,3775.050304,-1072.533697
169.923102,-888.247130,1110.308913,-11951.089769
169.923412,-6957.935855,10510.924376,-3370.820191
169.923721,-0.000000,13841.851115,-6052.154434
169.924031,2072.576638,15396.283594,-15321.909960
169.924341,-8956.491898,22354.219448,-5209.449386
169.924650,2146.597232,17987.004391,3370.820191
169.924960,7846.182985,11251.130318,-6128.763984
169.925269,-2442.679609,6661.853478,2451.505594
169.925579,814.226536,5255.462188,11261.603821
169.925889,3182.885551,-962.267725,-1225.752797
169.926198,740.205942,1776.494261,1838.629195
169.926508,2220.617826,10436.903782,7354.516781
169.926818,-2368.659014,11325.150913,-8733.488677
169.927127,3552.988522,8216.285956,-12870.404366
169.927437,-4811.338623,11473.192101,-689.485948
169.927747,-1702.473667,9918.759623,-7507.735880
169.928056,6365.771101,9030.512492,-9652.803275
169.928366,-2294.638420,11325.150913,4060.306139
169.928676,-6217.729913,12287.418637,12793.794817
169.928985,4367.215058,12583.501014,1685.410096
169.929295,1480.411884,10732.986159,-5975.544884
169.929605,3108.864956,11695.253884,-4443.353888
169.929914,-2886.803174,9770.718434,-3524.039291
169.930224,-3701.029710,9918.759623,-5286.058936
169.930534,2442.679609,9844.739029,-995.924147
169.930843,-2294.638420,8142.265362,-6818.249932
169.931153,-2442.679609,1110.308913,2451.505594
169.931462,2220.617826,3775.050304,10035.851024
169.931772,148.041188,3997.112087,-4903.011187
169.932082,1924.535449,6735.874072,-4596.572988
169.932391,1184.329507,9918.759623,3677.258390
169.932701,444.123565,9252.574275,-689.485948
169.933011,1998.556043,11547.212695,-5362.668486
169.933320,-2516.700203,11695.253884,689.485948
169.933630,-4737.318029,8586.388927,1378.971896
169.933940,7254.018232,15248.242405,-5898.935335
169.934249,-10436.903782,11473.192101,-3064.381992
169.934559,444.123565,14582.057057,-2911.162892
169.934869,2812.782580,15988.448347,-11644.651570
169.935178,518.144159,13619.789333,-6435.202183
169.935488,-4367.215058,9474.636058,7354.516781
169.935798,-592.164754,3627.009116,-536.266849
169.936107,-740.205942,3478.967927,-4519.963438
169.936417,1036.288319,6735.874072,4136.915689
169.936726,2146.597232,1480.411884,-766.095498
169.937036,7328.038826,3627.009116,-6588.421283
169.937346,-2294.638420,7550.100608,4673.182538
169.937655,-5107.421000,7920.203579,12334.137518
169.937965,3108.864956,8290.306550,3370.820191
169.938275,-222.061783,12657.521608,-3907.087040
169.938584,740.205942,16728.654289,-2757.943793
169.938894,-444.123565,17838.963202,-10112.460574
169.939204,-6661.853478,14730.098246,-12257.527968
169.939513,1480.411884,17468.860231,-6435.202183
169.939823,-222.061783,13471.748144,-10342.289223
169.940133,-3923.091493,7920.203579,-2987.772442
169.940442,1036.288319,9548.656652,14019.547613
169.940752,1998.556043,4885.359217,3600.648841
169.941062,8068.244768,5551.544565,-3677.258390
169.941371,-1776.494261,2590.720797,6281.983084
169.941681,1110.308913,-1258.350101,2911.162892
169.941991,6587.832884,2072.576638,0.000000
169.942300,-3701.029710,9474.636058,459.657299
169.942610,-962.267725,8808.450710,536.266849
169.942919,-1628.453072,6439.791695,612.876398
169.943229,-2442.679609,8142.265362,-5209.449386
169.943539,370.102971,16580.613101,-8044.002729
169.943848,296.082377,22132.157666,-11031.775171
169.944158,-2738.761985,15026.180623,-2221.676944
169.944468,2368.659014,16506.592507,3907.087040
169.944777,3997.112087,12583.501014,-2681.334243
169.945087,-3330.926739,4071.132681,2221.676944
169.945397,-5551.544565,8216.285956,11108.384721
169.945706,3256.906145,2442.679609,-3064.381992
169.946016,4515.256246,1036.288319,-9346.365076
169.946326,-7254.018232,9030.512492,7277.907231
169.946635,-2664.741391,8586.388927,2604.724693
169.946945,3552.988522,8734.430116,-10112.460574
169.947255,-4071.132681,9326.594869,-3524.039291
169.947564,-4959.379811,4367.215058,1762.019645
169.947874,4071.132681,8734.430116,-8810.098227
169.948184,-962.267725,8364.327145,-9729.412825
169.948493,-444.123565,13767.830521,4290.134789
169.948803,2368.659014,17542.880825,2681.334243
169.949112,4663.297435,7624.121203,-4443.353888
169.949422,-0.000000,11473.192101,4979.620737
169.949732,-2738.761985,7846.182985,8810.098227
169.950041,-1924.535449,9030.512492,-3370.820191
169.950351,-5773.606348,16876.695478,-9269.755526
169.950661,1184.329507,14063.912898,-14632.424012
169.950970,6513.812290,9104.533087,-15551.738609
169.951280,-4293.194464,10732.986159,-5286.058936
169.951590,-1776.494261,6809.894666,3983.696590
169.951899,2072.576638,3330.926739,4519.963438
169.952209,-3627.009116,-0.000000,8044.002729
169.952519,3923.091493,2516.700203,6281.983084
169.952828,3701.029710,5921.647536,-2834.553343
169.953138,2442.679609,6957.935855,-4673.182538
169.953448,-888.247130,10140.821405,3830.477490
169.953757,3997.112087,17468.860231,-4443.353888
169.954067,-2738.761985,13619.789333,-7584.345430
169.954377,-8586.388927,16728.654289,7967.393179
169.954686,2516.700203,12213.398043,-2528.115143
169.954996,3034.844362,11177.109724,-18922.558801
169.955305,-9326.594869,12287.418637,-2221.676944
169.955615,-5329.482782,6365.771101,4979.620737
169.955925,8956.491898,11325.150913,-15398.519510
169.956234,-3108.864956,11177.109724,-3064.381992
169.956544,-1554.432478,9326.594869,16164.615008
169.956854,9548.656652,9918.759623,842.705048
169.957163,7550.100608,2294.638420,-4749.792088
169.957473,-3923.091493,4885.359217,15245.300410
169.957783,-0.000000,-1998.556043,8350.440928
169.958092,3034.844362,1702.473667,-9576.193725
169.958402,-4959.379811,10436.903782,-229.828649
169.958712,-4071.132681,13175.665768,919.314598
169.959021,-222.061783,17838.963202,-15015.471761
169.959331,-4219.173869,20355.663405,-11951.089769
169.959641,-1776.494261,19393.395680,-5898.935335
169.959950,3701.029710,7254.018232,-12640.575717
169.960260,-0.000000,9622.677246,-306.438199
169.960569,-1924.535449,10362.883188,10648.727422
169.960879,5255.462188,9474.636058,4903.011187
169.961189,4293.194464,5181.441594,-229.828649
169.961498,-0.000000,3256.906145,8350.440928
169.961808,2368.659014,7920.203579,2757.943793
169.962118,-2960.823768,1850.514855,-3600.648841
169.962427,1184.329507,10362.883188,-4136.915689
169.962737,-2220.617826,888.247130,-4213.525239
169.963047,1628.453072,7328.038826,-9269.755526
169.963356,-3108.864956,8438.347739,2987.772442
169.963666,-6439.791695,13471.748144,7814.174080
169.963976,3849.070898,15174.221811,-1378.971896
169.964285,-2072.576638,15692.365970,3064.381992
169.964595,4959.379811,18431.127956,-4443.353888
169.964905,4071.132681,13471.748144,-12334.137518
169.965214,1036.288319,10658.965565,-4673.182538
169.965524,-1776.494261,11325.150913,7967.393179
169.965834,814.226536,9474.636058,4519.963438
169.966143,-0.000000,2516.700203,6665.030833
169.966453,-5625.565159,4737.318029,9116.536426
169.966762,666.185348,2220.617826,-4673.182538
169.967072,4219.173869,3849.070898,-16241.224558
169.967382,370.102971,8438.347739,-6741.640382
169.967691,-7254.018232,5107.421000,2528.115143
169.968001,-1036.288319,15026.180623,2604.724693
169.968311,-4885.359217,13323.706956,4060.306139
169.968620,5329.482782,14952.160028,1608.800546
169.968930,518.144159,9252.574275,-7354.516781
169.969240,148.041188,5477.523971,-8580.269578
169.969549,6143.709319,7254.018232,-3447.429741
169.969859,-4441.235652,14211.954086,919.314598
169.970169,-5403.503377,14582.057057,10878.556072
169.970478,1036.288319,14730.098246,6128.763984
169.970788,9918.759623,9918.759623,-10418.898773
169.971098,-2738.761985,5551.544565,-9193.145976
169.971407,-8882.471304,666.185348,1149.143247
169.971717,-1924.535449,222.061783,-10265.679673
169.972027,5847.626942,5477.523971,-12257.527968
169.972336,-2960.823768,12805.562797,6665.030833
169.972646,1554.432478,12139.377449,12487.356617
169.972955,5773.606348,13471.748144,3294.210641
169.973265,740.205942,7994.224174,5669.106685
169.973575,-962.267725,7846.182985,5209.449386
169.973884,1332.370696,9326.594869,-10878.556072
169.974194,-2960.823768,13767.830521,-9806.022374
169.974504,296.082377,19097.313304,-2298.286494
169.974813,2294.638420,14804.118840,-12563.966167
169.975123,518.144159,14582.057057,-5898.935335
169.975433,-6439.791695,13471.748144,10035.851024
169.975742,3034.844362,1036.288319,3370.820191
169.976052,1036.288319,1776.494261,-5056.230287
169.976362,-3775.050304,5625.565159,6281.983084
169.976671,2738.761985,4737.318029,4596.572988
169.976981,3701.029710,7772.162391,-8120.612279
169.977291,-592.164754,9474.636058,1915.238745
169.977600,-2442.679609,13841.851115,6818.249932
169.977910,-888.247130,9104.533087,-3677.258390
169.978219,2738.761985,9696.697840,-3447.429741
169.978529,-1258.350101,14952.160028,1685.410096
169.978838,-3330.926739,11399.171507,-7354.516781
169.979148,2368.659014,5847.626942,-3677.258390
169.979458,-518.144159,8882.471304,4136.915689
169.979767,-4959.379811,8290.306550,2911.162892
169.980077,-2220.617826,12731.542202,-153.219100
169.980386,-3404.947333,17246.798449,-1685.410096
169.980696,7031.956449,9400.615463,-14555.814462
169.981005,3256.906145,6957.935855,-11797.870669
169.981315,-4663.297435,10362.883188,4903.011187
169.981624,1702.473667,7994.224174,5209.449386
169.981934,4293.194464,6661.853478,2451.505594
169.982243,1184.329507,6439.791695,9729.412825
169.982553,-296.082377,5477.523971,6894.859482
169.982862,5625.565159,6957.935855,-5056.230287
169.983172,-1702.473667,7179.997637,-8044.002729
169.983482,-1998.556043,10881.027347,-4519.963438
169.983791,2294.638420,10584.944971,-7277.907231
169.984101,-4145.153275,12361.439231,-2528.115143
169.984410,-740.205942,14137.933492,5822.325785
169.984720,1554.432478,10214.842000,2987.772442
169.985029,666.185348,11251.130318,-3447.429741
169.985339,-4811.338623,11843.295072,383.047749
169.985648,4737.318029,12361.439231,-5286.058936
169.985958,370.102971,8216.285956,-11108.384721
169.986267,-2220.617826,12583.501014,-612.876398
169.986577,-5107.421000,14656.077652,5515.887586
169.986886,3108.864956,11621.233289,-6052.154434
169.987196,4737.318029,4293.194464,-7048.078582
169.987505,2960.823768,5773.606348,3064.381992
169.987815,-370.102971,-3108.864956,4903.011187
169.988125,-296.082377,4589.276840,0.000000
169.988434,1702.473667,9992.780217,3830.477490
169.988744,1850.514855,6513.812290,8733.488677
169.989053,444.123565,10584.944971,-2374.896044
169.989363,-4959.379811,17987.004391,-7737.564530
169.989672,962.267725,13249.686362,-12104.308868
169.989982,-1702.473667,7031.956449,-11338.213370
169.990291,-3404.947333,11621.233289,-4136.915689
169.990601,-3923.091493,13323.706956,-1455.581446
169.990910,-0.000000,15174.221811,2528.115143
169.991220,2516.700203,8734.430116,7967.393179
169.991529,2812.782580,7402.059420,4060.306139
169.991839,3849.070898,9030.512492,-5592.497135
169.992149,-888.247130,2072.576638,-2911.162892
169.992458,-1480.411884,4885.359217,536.266849
169.992768,-3182.885551,6661.853478,1302.362347
169.993077,592.164754,11547.212695,-4903.011187
169.993387,-1924.535449,11769.274478,0.000000
169.993696,6439.791695,8586.388927,-2068.457845
169.994006,-0.000000,4515.256246,-4213.525239
169.994315,888.247130,6587.832884,1762.019645
169.994625,-1628.453072,8438.347739,3753.867940
169.994934,-3627.009116,15174.221811,-1225.752797
169.995244,-0.000000,16136.489536,1072.533697
169.995553,5255.462188,15692.365970,-7124.688131
169.995863,2072.576638,10362.883188,-12640.575717
169.996172,-5329.482782,6883.915261,-229.828649
169.996482,-5995.668130,7402.059420,3524.039291
169.996792,3330.926739,9992.780217,-7814.174080
169.997101,3701.029710,11769.274478,-3447.429741
169.997411,-3849.070898,11177.109724,7354.516781
169.997720,2442.679609,4663.297435,2834.553343
169.998030,8586.388927,3330.926739,-3370.820191
169.998339,-1702.473667,3627.009116,2604.724693
169.998649,-4737.318029,6069.688724,5132.839837
169.998958,-1258.350101,10140.821405,2068.457845
169.999268,4589.276840,10955.047942,-2298.286494
169.999577,5329.482782,14582.057057,-10648.727422
169.999887,-2738.761985,14508.036463,-8120.612279
170.000196,-5699.585753,10807.006753,3983.696590
170.000506,814.226536,14063.912898,1149.143247
170.000816,4219.173869,13249.686362,-9499.584175
170.001125,-592.164754,10732.986159,-995.924147
170.001435,-1702.473667,9030.512492,11644.651570
170.001744,4663.297435,4589.276840,-2298.286494
170.002054,4071.132681,4219.173869,-6128.763984
170.002363,-2590.720797,4589.276840,3830.477490
170.002673,-5255.462188,3330.926739,7737.564530
170.002982,4737.318029,4219.173869,-2911.162892
170.003292,-1036.288319,9252.574275,-2987.772442
170.003601,1998.556043,12213.398043,-383.047749
170.003911,-2146.597232,11769.274478,-5592.497135
170.004220,-740.205942,9696.697840,-7201.297681
170.004530,-370.102971,7179.997637,1455.581446
170.004839,-0.000000,7254.018232,-1072.533697
170.005149,-1406.391290,12953.603985,-3600.648841
170.005459,1554.432478,11325.150913,2681.334243
170.005768,3108.864956,13841.851115,-383.047749
170.006078,-148.041188,10362.883188,-3524.039291
170.006387,-518.144159,9252.574275,1455.581446
170.006697,-0.000000,8512.368333,612.876398
170.007006,666.185348,4811.338623,-5592.497135
170.007316,-3627.009116,9400.615463,-842.705048
170.007625,-296.082377,14730.098246,0.000000
170.007935,4885.359217,10807.006753,-7660.954980
170.008244,-3701.029710,6661.853478,0.000000
170.008554,2146.597232,7624.121203,1838.629195
170.008863,2294.638420,7105.977043,-2911.162892
170.009173,3478.967927,9030.512492,-3294.210641
170.009483,-444.123565,8216.285956,3294.210641
170.009792,444.123565,7402.059420,3064.381992
170.010102,1036.288319,11991.336260,2221.676944
170.010411,-5995.668130,17468.860231,-536.266849
170.010721,6217.729913,9622.677246,-9422.974625
170.011030,3627.009116,5181.441594,-12334.137518
170.011340,-7105.977043,10140.821405,-2757.943793
170.011649,-4441.235652,11621.233289,2451.505594
170.011959,6809.894666,6957.935855,-7890.783629
170.012268,2886.803174,4367.215058,1072.533697
170.012578,-2664.741391,6217.729913,15015.471761
170.012887,-2516.700203,4219.173869,3294.210641
170.013197,-0.000000,5477.523971,-6205.373534
170.013506,3997.112087,12805.562797,919.314598
170.013816,666.185348,9030.512492,-5898.935335
170.014126,-2886.803174,9844.739029,-7584.345430
170.014435,-0.000000,16284.530724,3830.477490
170.014745,1480.411884,9474.636058,229.828649
170.015054,-74.020594,9474.636058,-3370.820191
170.015364,-7624.121203,13841.851115,4366.744339
170.015673,3182.885551,9178.553681,-4290.134789
170.015983,296.082377,6587.832884,-9269.755526
170.016292,-1628.453072,8808.450710,-1762.019645
170.016602,-3552.988522,13175.665768,-2221.676944
170.016911,8512.368333,15174.221811,-10572.117872
170.017221,962.267725,7328.038826,3677.258390
170.017530,666.185348,4959.379811,11951.089769
170.017840,2072.576638,4885.359217,3983.696590
170.018150,1480.411884,1036.288319,0.000000
170.018459,-3701.029710,3627.009116,4213.525239
170.018769,1702.473667,6365.771101,-2145.067394
170.019078,2368.659014,9474.636058,-11874.480219
170.019388,-6809.894666,18505.148550,-2221.676944
170.019697,1480.411884,16136.489536,-5362.668486
170.020007,2442.679609,12583.501014,-16394.443657
170.020316,-4737.318029,12213.398043,3140.991542
170.020626,888.247130,13101.645173,3983.696590
170.020935,5551.544565,5477.523971,-7967.393179
170.021245,-1998.556043,5107.421000,1608.800546
170.021554,-1184.329507,3330.926739,11568.042020
170.021864,4811.338623,11103.089130,-3983.696590
170.022173,-814.226536,12583.501014,-7277.907231
170.022483,1110.308913,9992.780217,8044.002729
170.022793,2368.659014,2442.679609,-229.828649
170.023102,444.123565,9474.636058,-10342.289223
170.023412,-5403.503377,11621.233289,2451.505594
170.023721,814.226536,7550.100608,-229.828649
170.024031,3034.844362,3997.112087,-10342.289223
170.024340,1258.350101,11547.212695,0.000000
170.024650,-6809.894666,14285.974681,5822.325785
170.024959,2738.761985,15100.201217,383.047749
170.025269,962.267725,9030.512492,0.000000
170.025578,1110.308913,8734.430116,1455.581446
170.025888,-3627.009116,11103.089130,-306.438199
170.026197,-5773.606348,5773.606348,-689.485948
170.026507,-2368.659014,10436.903782,-4290.134789
170.026817,3923.091493,9770.718434,-10648.727422
170.027126,2368.659014,11325.150913,-6588.421283
170.027436,-2960.823768,8290.306550,4136.915689
170.027745,-4959.379811,2960.823768,11184.994271
170.028055,2516.700203,8512.368333,3294.210641
170.028364,-1036.288319,5255.462188,-306.438199
170.028674,2368.659014,11621.233289,-4519.963438
170.028983,-148.041188,8216.285956,-9576.193725
170.029293,1702.473667,7254.018232,-3600.648841
170.029602,4959.379811,11843.295072,-2681.334243
170.029912,-2368.659014,15174.221811,-3140.991542
170.030221,-222.061783,11991.336260,9499.584175
170.030531,-0.000000,9252.574275,9039.926876
170.030840,3108.864956,7402.059420,-5822.325785
170.031150,-592.164754,5773.606348,-8656.879127
170.031460,-6291.750507,8512.368333,-1532.190996
170.031769,-2590.720797,7402.059420,-4213.525239
170.032079,518.144159,9992.780217,-9806.022374
170.032388,-2664.741391,19097.313304,-2451.505594
170.032698,2960.823768,18949.272115,-6358.592633
170.033007,2960.823768,7772.162391,-6281.983084
170.033317,370.102971,4885.359217,5975.544884
170.033626,-3108.864956,4959.379811,8273.831378
170.033936,7772.162391,5477.523971,-459.657299
170.034245,-0.000000,2146.597232,1838.629195
170.034555,-2664.741391,5699.585753,7201.297681
170.034864,-0.000000,12657.521608,-1072.533697
170.035174,-3627.009116,12139.377449,-11108.384721
170.035484,-1258.350101,12139.377449,-7584.345430
170.035793,3997.112087,8364.327145,-12410.747068
170.036103,-3849.070898,6513.812290,-8350.440928
170.036412,-7624.121203,13471.748144,8273.831378
170.036722,5329.482782,7772.162391,3600.648841
170.037031,7254.018232,8956.491898,-9116.536426
170.037341,-148.041188,8438.347739,7354.516781
170.037650,-6069.688724,4811.338623,16011.395908
170.037960,296.082377,9844.739029,-1762.019645
170.038269,5329.482782,7698.141797,-10035.851024
170.038579,-1036.288319,12213.398043,1225.752797
170.038888,-7772.162391,14434.015869,-4903.011187
170.039198,-1776.494261,10584.944971,-6511.811733
170.039507,3034.844362,16358.551318,-5745.716235
170.039817,4737.318029,7031.956449,-6435.202183
170.040127,-4589.276840,9326.594869,2987.772442
170.040436,-5403.503377,9548.656652,9499.584175
170.040746,7254.018232,7179.997637,-2221.676944
170.041055,9400.615463,9548.656652,-5898.935335
170.041365,-6143.709319,10066.800811,6588.421283
170.041674,-2960.823768,9696.697840,4979.620737
170.041984,6587.832884,11547.212695,-7431.126331
170.042293,7105.977043,7476.080014,-4903.011187
170.042603,-4515.256246,9770.718434,3753.867940
170.042912,-3182.885551,13175.665768,-2068.457845
170.043222,-6661.853478,10288.862594,-4826.401637
170.043531,2220.617826,10584.944971,-2757.943793
170.043841,-0.000000,9400.615463,-9806.022374
170.044151,-3108.864956,9178.553681,-7737.564530
170.044460,-1776.494261,11769.274478,2528.115143
170.044770,-0.000000,3404.947333,3140.991542
170.045079,2960.823768,8808.450710,1149.143247
170.045389,666.185348,8586.388927,7277.907231
170.045698,1110.308913,9622.677246,-306.438199
170.046008,-1036.288319,7105.977043,-3830.477490
170.046317,-3478.967927,6217.729913,2911.162892
170.046627,1332.370696,14211.954086,-4596.572988
170.046936,4737.318029,11621.233289,-17620.196454
170.047246,-4737.318029,14211.954086,-5056.230287
170.047555,-6661.853478,11029.068536,8273.831378
170.047865,6069.688724,9770.718434,-5362.668486
170.048174,5477.523971,8142.265362,-7890.783629
170.048484,-3108.864956,7254.018232,7354.516781
170.048794,-4589.276840,4145.153275,11261.603821
170.049103,4737.318029,10658.965565,-4596.572988
170.049413,296.082377,13471.748144,-5056.230287
170.049722,4219.173869,15322.262999,-7354.516781
170.050032,-2812.782580,10658.965565,-10801.946522
170.050341,-6439.791695,11325.150913,2374.896044
170.050651,-814.226536,13027.624579,689.485948
170.050960,4515.256246,8512.368333,-15092.081311
170.051270,1332.370696,1776.494261,-4213.525239
170.051579,-6143.709319,5329.482782,13100.233016
170.051889,1184.329507,7624.121203,-1225.752797
170.052198,4811.338623,3997.112087,-7354.516781
170.052508,592.164754,11769.274478,6588.421283
170.052818,-518.144159,8808.450710,1455.581446
170.053127,2664.741391,10732.986159,-5515.887586
170.053437,-2738.761985,15174.221811,-3370.820191
170.053746,-888.247130,6809.894666,-5362.668486
170.054056,-0.000000,7328.038826,-6818.249932
170.054365,-5181.441594,12361.439231,0.000000
170.054675,-2442.679609,10732.986159,-689.485948
170.054984,2294.638420,11769.274478,-5209.449386
170.055294,-1554.432478,7994.224174,536.266849
170.055603,518.144159,9178.553681,2374.896044
170.055913,592.164754,12287.418637,-4903.011187
170.056222,-1406.391290,7105.977043,-3447.429741
170.056532,1628.453072,8734.430116,1608.800546
170.056841,5625.565159,8068.244768,-3907.087040
170.057151,1628.453072,6735.874072,1532.190996
170.057461,-8808.450710,7328.038826,8810.098227
170.057770,2072.576638,7920.203579,2834.553343
170.058080,3552.988522,5625.565159,-6588.421283
170.058389,-518.144159,12435.459826,536.266849
170.058699,-2368.659014,13323.706956,76.609550
170.059008,-148.041188,14656.077652,-8886.707777
170.059318,-2960.823768,7698.141797,-2681.334243
170.059627,1850.514855,13767.830521,-2757.943793
170.059937,3627.009116,13471.748144,-13100.233016
170.060246,-666.185348,10881.027347,2681.334243
170.060556,-2812.782580,7846.182985,8580.269578
170.060865,8438.347739,6513.812290,-5745.716235
170.061175,148.041188,5847.626942,-2604.724693
170.061485,-7550.100608,7846.182985,10342.289223
170.061794,3849.070898,4811.338623,-306.438199
170.062104,5551.544565,5995.668130,-10648.727422
170.062413,-4515.256246,8956.491898,3370.820191
170.062723,-5033.400406,7920.203579,5132.839837
170.063032,2146.597232,11547.212695,-7124.688131
170.063342,-962.267725,8142.265362,-2451.505594
170.063651,-444.123565,12287.418637,612.876398
170.063961,-518.144159,14285.974681,-9959.241474
170.064270,1184.329507,8512.368333,-4903.011187
170.064580,-1258.350101,12509.480420,8733.488677
170.064889,4145.153275,11843.295072,-1532.190996
170.065199,148.041188,9844.739029,-4136.915689
170.065508,-2886.803174,9474.636058,7890.783629
170.065818,740.205942,6735.874072,-1072.533697
170.066128,-2886.803174,5033.400406,-8886.707777
170.066437,-3627.009116,14508.036463,-2374.896044
170.066747,4663.297435,6883.915261,-8427.050478
170.067056,4959.379811,6587.832884,-7048.078582
170.067366,-8808.450710,7698.141797,10035.851024
170.067675,1110.308913,11251.130318,9499.584175
170.067985,4293.194464,11991.336260,-7507.735880
170.068294,3256.906145,7994.224174,229.828649
170.068604,-5699.585753,5403.503377,9806.022374
170.068913,2516.700203,13915.871710,-6052.154434
170.069223,1850.514855,10955.047942,-12717.185267
170.069532,-5255.462188,14804.118840,-919.314598
170.069842,3034.844362,12435.459826,-6128.763984
170.070152,-2072.576638,11695.253884,-6741.640382
170.070461,-4515.256246,14508.036463,1608.800546
170.070771,7402.059420,4293.194464,-3524.039291
170.071080,5403.503377,3552.988522,-8044.002729
170.071390,-7254.018232,2960.823768,12257.527968
170.071699,-444.123565,7402.059420,9652.803275
170.072009,7402.059420,4737.318029,-8580.269578
170.072318,3923.091493,4737.318029,612.876398
170.072628,-7031.956449,10658.965565,11108.384721
170.072937,-444.123565,12139.377449,-4060.306139
170.073247,2220.617826,7994.224174,-10189.070123
170.073556,-2294.638420,10510.924376,1072.533697
170.073866,-1110.308913,13545.768739,-5669.106685
170.074175,1332.370696,11917.315666,-10801.946522
170.074485,-7846.182985,16062.468941,5362.668486
170.074795,1850.514855,8956.491898,5362.668486
170.075104,2368.659014,9252.574275,-5745.716235
170.075414,-4737.318029,9992.780217,2221.676944
170.075723,-518.144159,9326.594869,3983.696590
170.076033,2220.617826,7772.162391,-9729.412825
170.076342,-2072.576638,5921.647536,-1762.019645
170.076652,-1036.288319,8512.368333,2451.505594
170.076961,3034.844362,10362.883188,-6894.859482
170.077271,7254.018232,5033.400406,-3677.258390
170.077581,-1332.370696,2220.617826,11721.261119
170.077890,-0.000000,5699.585753,8044.002729
170.078200,4219.173869,6735.874072,76.609550
170.078509,-3552.988522,8734.430116,2757.943793
170.078819,-3108.864956,9622.677246,5056.230287
170.079129,2294.638420,13619.789333,-10342.289223
170.079438,-1258.350101,17542.880825,-16547.662757
170.079748,-1850.514855,16210.510130,-9882.631924
170.080058,-3330.926739,18209.066173,-3677.258390
170.080367,-3182.885551,15618.345376,1685.410096
170.080677,3034.844362,15026.180623,0.000000
170.080987,5329.482782,10955.047942,1072.533697
170.081296,-2294.638420,-1628.453072,8886.707777
170.081606,-518.144159,962.267725,7814.174080
170.081915,3182.885551,5107.421000,-2911.162892
170.082225,4071.132681,6957.935855,-6818.249932
170.082535,-2442.679609,6365.771101,1149.143247
170.082844,2220.617826,8660.409521,-459.657299
170.083154,2960.823768,10732.986159,-3600.648841
170.083464,-3701.029710,11917.315666,-1378.971896
170.083773,2146.597232,6069.688724,919.314598
170.084083,-4589.276840,6365.771101,-3140.991542
170.084392,-0.000000,14434.015869,1532.190996
170.084702,-3330.926739,10732.986159,-2451.505594
170.085012,-962.267725,19467.416275,-7584.345430
170.085321,-1332.370696,13915.871710,-4826.401637
170.085631,1110.308913,14508.036463,-6741.640382
170.085941,-1332.370696,10955.047942,-2987.772442
170.086250,-1332.370696,7105.977043,3830.477490
170.086560,-1036.288319,7698.141797,-229.828649
170.086870,4515.256246,3849.070898,-6052.154434
170.087179,3552.988522,1998.556043,766.095498
170.087489,-5329.482782,3552.988522,4673.182538
170.087798,3330.926739,2960.823768,995.924147
170.088108,3849.070898,7846.182985,-536.266849
170.088418,-740.205942,9400.615463,4366.744339
170.088727,-962.267725,10732.986159,2374.896044
170.089037,-222.061783,12879.583391,-5439.278036
170.089347,-666.185348,11103.089130,-9116.536426
170.089656,740.205942,13619.789333,-8044.002729
170.089966,-1776.494261,18505.148550,-5745.716235
170.090275,740.205942,14878.139434,-689.485948
170.090585,-3923.091493,14359.995275,1532.190996
170.090895,4367.215058,10288.862594,-4213.525239
170.091204,-2072.576638,4293.194464,-1149.143247
170.091514,-6143.709319,4811.338623,5132.839837
170.091824,6439.791695,2516.700203,-2757.943793
170.092133,6291.750507,1628.453072,-10035.851024
170.092443,-2812.782580,6513.812290,4903.011187
170.092753,-3775.050304,5551.544565,7354.516781
170.093062,5995.668130,9918.759623,-5286.058936
170.093372,370.102971,5033.400406,-842.705048
170.093681,-0.000000,9400.615463,3983.696590
170.093991,148.041188,11695.253884,-5209.449386
170.094301,3256.906145,11399.171507,-3524.039291
170.094610,-6143.709319,10807.006753,2451.505594
170.094920,-3775.050304,16728.654289,-2451.505594
170.095230,-444.123565,14730.098246,-5362.668486
170.095539,-740.205942,18209.066173,-689.485948
170.095849,2516.700203,8290.306550,-6435.202183
170.096159,888.247130,6809.894666,-5975.544884
170.096468,-8364.327145,12731.542202,4826.401637
170.096778,3478.967927,9178.553681,76.609550
170.097087,5625.565159,3849.070898,-8886.707777
170.097397,-2516.700203,7179.997637,3370.820191
170.097707,-0.000000,3404.947333,3983.696590
170.098016,4663.297435,3997.112087,-6128.763984
170.098326,2072.576638,2220.617826,995.924147
170.098636,-4071.132681,8586.388927,7277.907231
170.098945,4811.338623,11473.192101,-3753.867940
170.099255,8882.471304,8808.450710,-5745.716235
170.099564,-6069.688724,10288.862594,6511.811733
170.099874,-3478.967927,8956.491898,5898.935335
170.100184,518.144159,13397.727550,-1532.190996
170.100493,-4071.132681,16358.551318,-5515.887586
170.100803,2072.576638,14211.954086,-9882.631924
170.101113,-2442.679609,14137.933492,-13253.452115
170.101422,-4293.194464,15100.201217,-1915.238745
170.101732,2886.803174,9844.739029,-1915.238745
170.102042,3775.050304,4737.318029,-2374.896044
170.102351,740.205942,5995.668130,9729.412825
170.102661,-962.267725,7105.977043,18003.244203
170.102970,4663.297435,6661.853478,2221.676944
170.103280,2738.761985,3701.029710,-5898.935335
170.103590,-148.041188,9474.636058,-1991.848295
170.103899,-2072.576638,10584.944971,-6665.030833
170.104209,-1258.350101,12065.356855,-9882.631924
170.104519,-5403.503377,18875.251521,-2451.505594
170.104828,2220.617826,13027.624579,-1991.848295
170.105138,5255.462188,9474.636058,-6281.983084
170.105447,-4663.297435,9622.677246,2374.896044
170.105757,-148.041188,6365.771101,8273.831378
170.106067,962.267725,5699.585753,76.609550
170.106376,4663.297435,5477.523971,1915.238745
170.106686,-592.164754,15914.427753,4596.572988
170.106996,-2516.700203,14359.995275,-1685.410096
170.107305,-1850.514855,9622.677246,-6435.202183
170.107615,2146.597232,9474.636058,-7507.735880
170.107925,1184.329507,8364.327145,-9576.193725
170.108234,-3552.988522,9770.718434,-2681.334243
170.108544,2368.659014,11325.150913,3983.696590
170.108853,7624.121203,6217.729913,-1762.019645
170.109163,5107.421000,6587.832884,1225.752797
170.109473,-8512.368333,10955.047942,12793.794817
170.109782,2442.679609,9474.636058,2757.943793
170.110092,6661.853478,9548.656652,-10955.165621
170.110402,1702.473667,11547.212695,-2145.067394
170.110711,-6217.729913,11769.274478,6281.983084
170.111021,-1258.350101,13989.892304,-3983.696590
170.111331,-518.144159,9474.636058,-10495.508323
170.111640,2294.638420,9918.759623,-3677.258390
170.111950,-4959.379811,9918.759623,1149.143247
170.112259,-3182.885551,9030.512492,-842.705048
170.112569,-740.205942,11251.130318,-2911.162892
170.112879,4811.338623,8512.368333,-4673.182538
170.113188,1998.556043,8734.430116,-1532.190996
170.113498,-370.102971,9178.553681,7967.393179
170.113808,-2146.597232,5773.606348,8580.269578
170.114117,3478.967927,4663.297435,-1225.752797
170.114427,-3330.926739,8068.244768,0.000000
170.114736,5181.441594,12879.583391,-7431.126331
170.115046,-1258.350101,12139.377449,-12410.747068
170.115356,-1702.473667,13027.624579,-5286.058936
170.115665,-1998.556043,10140.821405,-2374.896044
170.115975,1184.329507,10732.986159,-4519.963438
170.116285,-2960.823768,5329.482782,4596.572988
170.116594,-1184.329507,6883.915261,8656.879127
170.116904,2368.659014,7476.080014,229.828649
170.117214,7550.100608,7994.224174,-4673.182538
170.117523,-4145.153275,8956.491898,1072.533697
170.117833,-1110.308913,10732.986159,-2221.676944
170.118142,3997.112087,12509.480420,-4749.792088
170.118452,592.164754,11769.274478,1378.971896
170.118762,-148.041188,9992.780217,2451.505594
170.119071,-1406.391290,10510.924376,612.876398
170.119381,-2442.679609,4145.153275,536.266849
170.119691,1998.556043,7624.121203,-2604.724693
170.120000,-3552.988522,7476.080014,-5286.058936
170.120310,6143.709319,10510.924376,-4213.525239
170.120619,-5181.441594,12953.603985,1762.019645
170.120929,-0.000000,17764.942608,612.876398
170.121239,3923.091493,8734.430116,-4903.011187
170.121548,3923.091493,7476.080014,-2757.943793
170.121858,-3627.009116,6661.853478,5286.058936
170.122168,-1850.514855,5699.585753,6281.983084
170.122477,-2072.576638,8956.491898,-612.876398
170.122787,6883.915261,5625.565159,-10878.556072
170.123097,-2368.659014,10510.924376,-6435.202183
170.123406,-4367.215058,11621.233289,76.609550
170.123716,-2590.720797,15322.262999,-3907.087040
170.124025,-518.144159,14508.036463,-9806.022374
170.124335,-1184.329507,11769.274478,-7507.735880
170.124645,-5107.421000,10214.842000,-7201.297681
170.124954,-592.164754,10584.944971,-7354.516781
170.125264,5921.647536,9104.533087,-9116.536426
170.125574,2368.659014,8216.285956,-6205.373534
170.125883,5699.585753,7031.956449,2145.067394
170.126193,-1998.556043,3330.926739,7354.516781
170.126503,-444.123565,7476.080014,995.924147
170.126812,444.123565,6143.709319,-10648.727422
170.127122,1850.514855,6735.874072,-16547.662757
170.127431,-1776.494261,8808.450710,-17390.367805
170.127741,-3256.906145,9548.656652,-15168.690860
170.128051,3552.988522,11695.253884,-11721.261119
170.128360,-2294.638420,11177.109724,-995.924147
170.128670,-666.185348,14952.160028,0.000000
170.128980,6365.771101,7550.100608,-5898.935335
170.129289,5699.585753,5255.462188,-10189.070123
170.129599,-3849.070898,5699.585753,-3830.477490
170.129908,740.205942,1554.432478,-6894.859482
170.130218,2146.597232,9474.636058,-15781.567259
170.130528,-2738.761985,12879.583391,-12487.356617
170.130837,-7105.977043,18505.148550,-4519.963438
170.131147,962.267725,17838.963202,-14325.985813
170.131457,2516.700203,12435.459826,-25357.760984
170.131766,-1702.473667,5181.441594,-19305.606550
170.132076,-4589.276840,-1628.453072,-7737.564530
170.132386,1628.453072,962.267725,-4903.011187
170.132695,1480.411884,5847.626942,1455.581446
170.133005,740.205942,10436.903782,4366.744339
170.133314,962.267725,7994.224174,-3294.210641
170.133624,1036.288319,9400.615463,-13942.938064
170.133934,-2738.761985,11917.315666,-18616.120601
170.134243,-7550.100608,14582.057057,-20071.702048
170.134553,2146.597232,13323.706956,-20531.359346
170.134863,-888.247130,12953.603985,-15628.348159
170.135172,-888.247130,12805.562797,-6971.469032
170.135482,-5921.647536,8734.430116,-153.219100
170.135791,-444.123565,8586.388927,-3830.477490
170.136101,2516.700203,3997.112087,-9729.412825
170.136411,1554.432478,4811.338623,-15858.176809
170.136720,-3923.091493,7994.224174,-14325.985813
170.137030,-888.247130,15988.448347,-13866.328514
170.137340,2442.679609,13989.892304,-15168.690860
170.137649,5847.626942,11843.295072,-13559.890315
170.137959,-1036.288319,8734.430116,-3140.991542
170.138269,-3404.947333,4515.256246,995.924147
170.138578,3478.967927,6217.729913,-8350.440928
170.138888,4885.359217,4737.318029,-19075.777900
170.139197,-1036.288319,9622.677246,-15168.690860
170.139507,-6587.832884,12435.459826,-7584.345430
170.139817,666.185348,15544.324782,-10418.898773
170.140126,4885.359217,11843.295072,-21680.502593
170.140436,3256.906145,12213.398043,-11031.775171
170.140746,-4219.173869,8142.265362,1685.410096
170.141055,-2220.617826,5625.565159,-383.047749
170.141365,6365.771101,11325.150913,-9806.022374
170.141675,4885.359217,9918.759623,-15168.690860
170.141984,-4959.379811,9992.780217,-11414.822920
170.142294,-4663.297435,10436.903782,-7890.783629
170.142603,-2442.679609,10584.944971,-14785.643111
170.142913,814.226536,14285.974681,-18922.558801
170.143223,1924.535449,8660.409521,-14249.376263
170.143532,-814.226536,8882.471304,-4903.011187
170.143842,2220.617826,3182.885551,-1838.629195
170.144152,-1480.411884,5551.544565,-5745.716235
170.144461,1332.370696,7402.059420,-2681.334243
170.144771,1628.453072,8586.388927,-7967.393179
170.145080,-2220.617826,13397.727550,-12793.794817
170.145390,-1702.473667,17172.777854,-15168.690860
170.145700,-3182.885551,14730.098246,-15628.348159
170.146009,-1036.288319,17542.880825,-15015.471761
170.146319,-3330.926739,12361.439231,-12487.356617
170.146629,-74.020594,7179.997637,-11951.089769
170.146938,1998.556043,5107.421000,-7354.516781
170.147248,4515.256246,4145.153275,-3677.258390
170.147558,962.267725,4515.256246,-229.828649
170.147867,-2146.597232,9474.636058,459.657299
170.148177,592.164754,11547.212695,-7431.126331
170.148486,-2294.638420,9844.739029,-16700.881856
170.148796,-148.041188,13915.871710,-20531.359346
170.149106,-2072.576638,9844.739029,-18462.901502
170.149415,-1332.370696,10214.842000,-16164.615008
170.149725,-222.061783,8364.327145,-11951.089769
170.150035,296.082377,8216.285956,-6511.811733
170.150344,-1850.514855,9918.759623,-1532.190996
170.150654,2368.659014,9770.718434,-4903.011187
170.150963,3404.947333,7624.121203,-11797.870669
170.151273,4589.276840,6661.853478,-15398.519510
170.151583,-5033.400406,7550.100608,-9576.193725
170.151892,-2368.659014,9696.697840,-7890.783629
170.152202,-1036.288319,12435.459826,-13483.280765
170.152512,740.205942,12213.398043,-15092.081311
170.152821,-3552.988522,8290.306550,-10418.898773
170.153131,-370.102971,9844.739029,-14096.157163
170.153441,3552.988522,9992.780217,-16394.443657
170.153750,370.102971,9474.636058,-12257.527968
170.154060,-1628.453072,8808.450710,-1762.019645
170.154369,2220.617826,9326.594869,-4826.401637
170.154679,3034.844362,6217.729913,-8886.707777
170.154989,-74.020594,6217.729913,-7737.564530
170.155298,-3701.029710,6735.874072,-7048.078582
170.155608,-1258.350101,6587.832884,-11108.384721
170.155918,1554.432478,11103.089130,-18539.511052
170.156227,2516.700203,13619.789333,-18692.730151
170.156537,-740.205942,15396.283594,-10801.946522
170.156846,-592.164754,12731.542202,-3370.820191
170.157156,-740.205942,9252.574275,-5515.887586
170.157466,1924.535449,4885.359217,-10801.946522
170.157775,-1480.411884,5107.421000,-9039.926876
170.158085,-3923.091493,7179.997637,-7124.688131
170.158395,-1702.473667,12139.377449,-11184.994271
170.158704,1258.350101,16432.571912,-16624.272307
170.159014,1406.391290,17024.736666,-16088.005458
170.159324,-814.226536,13841.851115,-12104.308868
170.159633,-0.000000,9548.656652,-11338.213370
170.159943,1332.370696,4441.235652,-14938.862211
170.160252,1850.514855,888.247130,-6511.811733
170.160562,-888.247130,-74.020594,-1915.238745
170.160872,-518.144159,2516.700203,-2528.115143
170.161181,-888.247130,5921.647536,-8427.050478
170.161491,2072.576638,11917.315666,-13942.938064
170.161801,-1776.494261,15100.201217,-15551.738609
170.162110,-1036.288319,17246.798449,-14555.814462
170.162420,-0.000000,16728.654289,-15628.348159
170.162730,3034.844362,14359.995275,-15321.909960
170.163039,-3330.926739,6957.935855,-8810.098227
170.163349,-3552.988522,6513.812290,-2987.772442
170.163658,370.102971,8290.306550,-4366.744339
170.163968,1628.453072,10066.800811,-9499.584175
170.164278,1258.350101,10510.924376,-14019.547613
170.164587,-962.267725,9252.574275,-15168.690860
170.164897,-0.000000,9918.759623,-14096.157163
170.165207,-740.205942,9770.718434,-12027.699319
170.165516,3849.070898,8364.327145,-7431.126331
170.165826,1776.494261,5477.523971,-5898.935335
170.166135,-444.123565,2886.803174,-1455.581446
170.166445,1702.473667,1628.453072,-4290.134789
170.166755,1998.556043,7179.997637,-8733.488677
170.167064,-814.226536,12287.418637,-8810.098227
170.167374,-1702.473667,14359.995275,-8503.660028
170.167684,-148.041188,16358.551318,-14402.595362
170.167993,888.247130,14582.057057,-17083.929605
170.168303,-3701.029710,12583.501014,-11721.261119
170.168613,-2146.597232,9030.512492,-8580.269578
170.168922,370.102971,8586.388927,-11108.384721
170.169232,814.226536,8956.491898,-8350.440928
170.169541,-296.082377,9770.718434,-3447.429741
170.169851,888.247130,8512.368333,-6665.030833
170.170161,592.164754,7105.977043,-10725.336972
170.170470,962.267725,7698.141797,-8733.488677
170.170780,444.123565,6143.709319,-7201.297681
170.171090,1036.288319,7476.080014,-5898.935335
170.171399,-2072.576638,4885.359217,-2604.724693
170.171709,814.226536,6883.915261,-4826.401637
170.172018,2812.782580,7476.080014,-8733.488677
170.172328,814.226536,8882.471304,-7660.954980
170.172638,-2590.720797,11917.315666,-3677.258390
170.172947,-1776.494261,14582.057057,-4213.525239
170.173257,-148.041188,14137.933492,-9806.022374
170.173567,-3330.926739,11843.295072,-10801.946522
170.173876,-4959.379811,10807.006753,-9039.926876
170.174186,-2146.597232,9548.656652,-9882.631924
170.174496,-2738.761985,11177.109724,-14709.033562
170.174805,-1702.473667,12879.583391,-12640.575717
170.175115,-740.205942,14211.954086,-11261.603821
170.175424,-0.000000,14137.933492,-10189.070123
170.175734,-444.123565,13619.789333,-8580.269578
170.176044,-592.164754,13027.624579,-9959.241474
170.176353,-0.000000,11103.089130,-13713.109414
170.176663,-74.020594,9326.594869,-16471.053207
170.176973,-0.000000,7031.956449,-19535.435199
170.177282,1184.329507,6217.729913,-18156.463303
170.177592,2516.700203,7179.997637,-13100.233016
170.177902,2886.803174,6957.935855,-6741.640382
170.178211,2812.782580,5773.606348,-2987.772442
170.178521,1184.329507,4367.215058,-3524.039291
170.178830,222.061783,11177.109724,-5745.716235
170.179140,-3478.967927,6957.935855,-8963.317327
170.179450,-3775.050304,7402.059420,-17850.025103
170.179759,-888.247130,12213.398043,-30567.210370
170.180069,-2738.761985,12879.583391,-28728.581175
170.180378,-962.267725,20725.766376,-19918.482948
170.180688,-2072.576638,15396.283594,-11568.042020
170.180997,5773.606348,13989.892304,-11568.042020
170.181307,2146.597232,6291.750507,-5898.935335
170.181616,1332.370696,3849.070898,-3294.210641
170.181926,23982.672521,-0.000000,-9193.145976
170.182235,-28127.825796,-13619.789333,0.000000
170.182545,222.061783,2738.761985,-7354.516781
170.182854,4293.194464,14804.118840,-31792.963167
170.183164,4811.338623,26055.249158,-22523.207641
170.183473,-814.226536,12213.398043,-536.266849
170.183783,-16210.510130,4589.276840,-8350.440928
170.184092,8216.285956,4811.338623,-28422.142976
170.184402,-3330.926739,8512.368333,-11644.651570
170.184711,-3552.988522,11843.295072,-7354.516781
170.185021,-2664.741391,10214.842000,-9652.803275
170.185330,-518.144159,13101.645173,-12180.918418
170.185640,9474.636058,17172.777854,-15168.690860
170.185949,-4145.153275,7105.977043,-14938.862211
170.186259,-2590.720797,11103.089130,-383.047749
170.186568,-8660.409521,8290.306550,1455.581446
170.186878,5847.626942,7179.997637,-27119.780629
170.187187,-888.247130,4145.153275,-27502.828378
170.187497,-3478.967927,9030.512492,-8427.050478
170.187806,-4293.194464,7846.182985,-5515.887586
170.188116,7254.018232,12731.542202,-12257.527968
170.188425,8068.244768,9400.615463,-11491.432470
170.188735,-740.205942,2590.720797,-383.047749
170.189044,-4145.153275,4219.173869,6971.469032
170.189354,-1184.329507,6883.915261,-3753.867940
170.189663,5625.565159,12139.377449,-22369.988542
170.189973,1998.556043,13175.665768,-21757.112143
170.190282,-4145.153275,15914.427753,-10801.946522
170.190592,-1110.308913,15174.221811,-8580.269578
170.190901,4515.256246,17542.880825,-13253.452115
170.191211,-1628.453072,13175.665768,-6971.469032
170.191520,-2368.659014,8364.327145,-689.485948
170.191830,-1776.494261,6069.688724,-7890.783629
170.192139,2072.576638,6957.935855,-15704.957709
170.192449,2220.617826,6957.935855,-14862.252661
170.192758,3108.864956,12731.542202,-10189.070123
170.193068,-0.000000,13693.809927,-2068.457845
170.193377,-1850.514855,12879.583391,0.000000
170.193687,-0.000000,11399.171507,-4826.401637
170.193996,222.061783,9992.780217,-8350.440928
170.194306,-1332.370696,6513.812290,-9346.365076
170.194615,-4145.153275,3701.029710,-11874.480219
170.194925,-4219.173869,6217.729913,-12487.356617
170.195234,-3404.947333,11029.068536,-9422.974625
170.195544,-5329.482782,15322.262999,-5515.887586
170.195853,1036.288319,16284.530724,-11108.384721
170.196163,3108.864956,11325.150913,-10648.727422
170.196472,-296.082377,9474.636058,-5362.668486
170.196782,-740.205942,7402.059420,-4136.915689
170.197091,-2220.617826,7994.224174,-10418.898773
170.197401,814.226536,11695.253884,-8656.879127
170.197710,2960.823768,13989.892304,-13942.938064
170.198020,1036.288319,11917.315666,-17007.320056
170.198329,-3404.947333,13989.892304,-5592.497135
170.198639,518.144159,9178.553681,-10801.946522
170.198948,-2072.576638,8068.244768,-15475.129060
170.199258,4145.153275,6069.688724,-11491.432470
170.199567,-0.000000,3701.029710,-9193.145976
170.199877,-5477.523971,6587.832884,-3677.258390
170.200186,2516.700203,9104.533087,-5515.887586
170.200496,222.061783,6587.832884,-14555.814462
170.200805,2886.803174,12435.459826,-20761.187996
170.201115,1110.308913,14211.954086,-15398.519510
170.201424,-5181.441594,15988.448347,-8810.098227
170.201734,3404.947333,10140.821405,-16547.662757
170.202044,3034.844362,9770.718434,-19075.777900
170.202353,3552.988522,6513.812290,-12027.699319
170.202663,-0.000000,962.267725,153.219100
170.202972,-0.000000,8586.388927,-3830.477490
170.203282,5847.626942,10140.821405,-11414.822920
170.203591,7031.956449,8660.409521,-16777.491406
170.203901,-2886.803174,8068.244768,-12870.404366
170.204210,-3849.070898,11917.315666,-8044.002729
170.204520,-5995.668130,10436.903782,-12717.185267
170.204829,7254.018232,9178.553681,-21986.940793
170.205139,-740.205942,8882.471304,-18309.682402
170.205448,-3923.091493,5773.606348,-3064.381992
170.205758,-3108.864956,6735.874072,-1532.190996
170.206067,-370.102971,8290.306550,-11644.651570
170.206377,2442.679609,11695.253884,-13330.061665
170.206686,-4737.318029,10362.883188,-8120.612279
170.206996,-888.247130,13175.665768,-10648.727422
170.207305,-740.205942,10881.027347,-18079.853753
170.207615,7476.080014,13027.624579,-20837.797546
170.207924,-1998.556043,7846.182985,-12717.185267
170.208234,-3256.906145,9252.574275,-2987.772442
170.208543,-666.185348,8660.409521,-2834.553343
170.208853,7105.977043,7994.224174,-10725.336972
170.209162,2146.597232,3330.926739,-13866.328514
170.209472,-1406.391290,3404.947333,-6281.983084
170.209781,3182.885551,6809.894666,-4673.182538
170.210091,1480.411884,6957.935855,-10725.336972
170.210400,-222.061783,10066.800811,-4903.011187
170.210710,-1850.514855,7772.162391,-2911.162892
170.211019,1480.411884,5847.626942,-8427.050478
170.211329,666.185348,9030.512492,-14862.252661
170.211638,-962.267725,6143.709319,-10112.460574
170.211948,962.267725,9474.636058,-8120.612279
170.212257,3256.906145,9918.759623,-3907.087040
170.212567,-4071.132681,8512.368333,229.828649
170.212876,2516.700203,11177.109724,-1991.848295
170.213186,2442.679609,11695.253884,-7737.564530
170.213495,1036.288319,10584.944971,-7354.516781
170.213805,-5847.626942,11029.068536,-6894.859482
170.214114,7846.182985,13323.706956,-16777.491406
170.214424,5921.647536,9844.739029,-11338.213370
170.214733,-3108.864956,5921.647536,4519.963438
170.215043,-5255.462188,8808.450710,12027.699319
170.215352,1184.329507,11029.068536,2374.896044
170.215662,2220.617826,11029.068536,-2911.162892
170.215971,148.041188,5477.523971,-6435.202183
170.216281,-2368.659014,10732.986159,-6894.859482
170.216590,-1036.288319,12509.480420,-6511.811733
170.216900,-3478.967927,11547.212695,-6281.983084
170.217209,-666.185348,14952.160028,-2451.505594
170.217519,1258.350101,13027.624579,1915.238745
170.217828,-3997.112087,11843.295072,4673.182538
170.218138,-1924.535449,9918.759623,-306.438199
170.218447,5625.565159,8586.388927,-8580.269578
170.218757,592.164754,8882.471304,-6435.202183
170.219066,-1480.411884,8216.285956,766.095498
170.219376,518.144159,13397.727550,842.705048
170.219685,2664.741391,13619.789333,-2681.334243
170.219995,-222.061783,10362.883188,153.219100
170.220304,-0.000000,9474.636058,-919.314598
170.220614,4367.215058,962.267725,-7507.735880
170.220923,592.164754,6069.688724,-766.095498
170.221233,-1554.432478,5477.523971,383.047749
170.221542,592.164754,9030.512492,-1149.143247
170.221852,-2812.782580,12287.418637,0.000000
170.222161,2960.823768,11843.295072,-1991.848295
170.222471,-3701.029710,11251.130318,-8733.488677
170.222780,-444.123565,15396.283594,-11414.822920
170.223090,1184.329507,7994.224174,-6588.421283
170.223399,4293.194464,8734.430116,-5975.544884
170.223709,3256.906145,9400.615463,919.314598
170.224018,-3552.988522,12361.439231,12334.137518
170.224328,296.082377,10658.965565,4673.182538
170.224637,2072.576638,6217.729913,-8580.269578
170.224947,1776.494261,11473.192101,-8350.440928
170.225256,1702.473667,8734.430116,-5975.544884
170.225566,4737.318029,9474.636058,-7431.126331
170.225875,-2738.761985,10732.986159,-1072.533697
170.226185,1036.288319,12657.521608,6358.592633
170.226494,-4293.194464,9104.533087,2987.772442
170.226804,-1480.411884,8956.491898,536.266849
170.227114,-1406.391290,8364.327145,-1991.848295
170.227423,2886.803174,7698.141797,-10342.289223
170.227733,-3775.050304,12065.356855,-7890.783629
170.228042,-2960.823768,14434.015869,-153.219100
170.228352,-2368.659014,12509.480420,-2145.067394
170.228661,518.144159,9696.697840,-2911.162892
170.228971,-1036.288319,9844.739029,2451.505594
170.229280,1924.535449,2664.741391,-2757.943793
170.229590,888.247130,5625.565159,-4903.011187
170.229899,2590.720797,4885.359217,2451.505594
170.230209,-0.000000,10955.047942,-1072.533697
170.230518,-1776.494261,10510.924376,-6741.640382
170.230828,2220.617826,12805.562797,-1225.752797
170.231137,740.205942,4293.194464,-2068.457845
170.231447,-74.020594,2960.823768,-6435.202183
170.231756,-4367.215058,11177.109724,1302.362347
170.232066,1998.556043,7402.059420,2451.505594
170.232375,3404.947333,4737.318029,-3907.087040
170.232685,-1036.288319,6217.729913,1225.752797
170.232994,-1776.494261,13841.851115,5439.278036
170.233304,1702.473667,9104.533087,-3983.696590
170.233613,1924.535449,7698.141797,-5209.449386
170.233923,-3256.906145,11251.130318,4903.011187
170.234232,3108.864956,9178.553681,383.047749
170.234542,-666.185348,11769.274478,-6665.030833
170.234851,-2664.741391,14656.077652,-1838.629195
170.235161,6143.709319,8808.450710,-3753.867940
170.235470,4219.173869,11843.295072,-8044.002729
170.235780,-1406.391290,11029.068536,3524.039291
170.236089,-2442.679609,10066.800811,12334.137518
170.236399,-222.061783,7105.977043,5898.935335
170.236708,5329.482782,9326.594869,995.924147
170.237018,-444.123565,14730.098246,-5515.887586
170.237327,1924.535449,7254.018232,-10495.508323
170.237637,-2220.617826,4885.359217,-4903.011187
170.237946,-3108.864956,11473.192101,4903.011187
170.238256,666.185348,13471.748144,2374.896044
170.238565,1110.308913,12361.439231,-2451.505594
170.238875,-4589.276840,8734.430116,8350.440928
170.239184,-1258.350101,6365.771101,2451.505594
170.239494,-1184.329507,7698.141797,-10648.727422
170.239803,296.082377,8142.265362,-7890.783629
170.240113,1258.350101,8364.327145,-1072.533697
170.240422,-962.267725,8290.306550,6358.592633
170.240732,1480.411884,11103.089130,9959.241474
170.241041,-444.123565,9622.677246,6741.640382
170.241351,3701.029710,7920.203579,-2374.896044
170.241660,-592.164754,518.144159,-3983.696590
170.241970,-3775.050304,6735.874072,76.609550
170.242279,888.247130,9326.594869,-3677.258390
170.242589,2146.597232,10881.027347,-10801.946522
170.242898,-148.041188,15840.407159,-766.095498
170.243208,1702.473667,12065.356855,689.485948
170.243517,-74.020594,11399.171507,0.000000
170.243827,-1332.370696,7624.121203,5439.278036
170.244136,3701.029710,4071.132681,6128.763984
170.244446,-1036.288319,9844.739029,-1455.581446
170.244755,-2072.576638,11843.295072,-1149.143247
170.245065,-2146.597232,17172.777854,-6281.983084
170.245374,6291.750507,12065.356855,-14249.376263
170.245684,1406.391290,9400.615463,-7737.564530
170.245993,-6365.771101,12287.418637,8044.002729
170.246303,-3330.926739,6365.771101,6894.859482
170.246612,4071.132681,7772.162391,-1608.800546
170.246922,-518.144159,7772.162391,-5515.887586
170.247231,1628.453072,8586.388927,-7048.078582
170.247541,-2960.823768,8512.368333,-6128.763984
170.247850,-962.267725,8956.491898,-1378.971896
170.248160,3256.906145,10140.821405,-3140.991542
170.248469,4367.215058,12657.521608,-612.876398
170.248779,-3849.070898,9474.636058,4826.401637
170.249088,-2664.741391,6439.791695,2528.115143
170.249398,3923.091493,3256.906145,-5898.935335
170.249707,-740.205942,4071.132681,-4519.963438
170.250017,-5181.441594,8512.368333,2911.162892
170.250326,-4811.338623,13841.851115,0.000000
170.250636,7402.059420,17838.963202,-7354.516781
170.250945,1924.535449,14656.077652,-5592.497135
170.251255,-2812.782580,13767.830521,-229.828649
170.251564,-4737.318029,7994.224174,-689.485948
170.251874,3923.091493,2960.823768,-2528.115143
170.252184,2220.617826,5773.606348,-2221.676944
170.252493,-1554.432478,13693.809927,3370.820191
170.252803,1332.370696,12213.398043,1838.629195
170.253112,5477.523971,8808.450710,-5132.839837
170.253422,4219.173869,10807.006753,-3447.429741
170.253731,-4737.318029,9030.512492,2834.553343
170.254041,-5625.565159,5181.441594,2451.505594
170.254350,-296.082377,7105.977043,-1225.752797
170.254660,2294.638420,7402.059420,-4903.011187
170.254969,-740.205942,9770.718434,-5132.839837
170.255279,-4515.256246,9474.636058,-306.438199
170.255588,-2516.700203,11399.171507,4596.572988
170.255898,1480.411884,9548.656652,612.876398
170.256207,1850.514855,10066.800811,-1455.581446
170.256517,-3108.864956,13027.624579,2221.676944
170.256826,-74.020594,9918.759623,-995.924147
170.257136,4737.318029,10955.047942,-9269.755526
170.257445,-518.144159,8216.285956,-3447.429741
170.257755,-1776.494261,6661.853478,6281.983084
170.258064,-4441.235652,6513.812290,2528.115143
170.258374,6439.791695,9844.739029,-3677.258390
170.258683,2738.761985,10066.800811,689.485948
170.258993,-2146.597232,11547.212695,-2911.162892
170.259302,-1110.308913,7105.977043,-5822.325785
170.259612,3997.112087,9770.718434,-1072.533697
170.259921,-814.226536,7550.100608,536.266849
170.260231,-814.226536,12657.521608,536.266849
170.260540,2738.761985,15248.242405,766.095498
170.260850,3552.988522,8068.244768,-2298.286494
170.261159,-1480.411884,9400.615463,-4136.915689
170.261469,-1998.556043,11695.253884,2451.505594
170.261778,962.267725,9178.553681,689.485948
170.262088,1924.535449,7105.977043,-5056.230287
170.262397,2146.597232,11843.295072,612.876398
170.262707,3256.906145,5773.606348,306.438199
170.263016,-4737.318029,9992.780217,766.095498
170.263326,-1554.432478,7031.956449,0.000000
170.263635,1850.514855,7994.224174,-459.657299
170.263945,2516.700203,8882.471304,-8120.612279
170.264254,-1036.288319,8734.430116,-7277.907231
170.264564,-1628.453072,15544.324782,1838.629195
170.264873,-3701.029710,9178.553681,4903.011187
170.265183,1480.411884,10436.903782,306.438199
170.265492,370.102971,9178.553681,-3447.429741
170.265802,3182.885551,9252.574275,-6052.154434
170.266111,-222.061783,370.102971,-766.095498
170.266421,296.082377,7402.059420,5515.887586
170.266730,2960.823768,6217.729913,459.657299
170.267040,-2442.679609,7179.997637,5822.325785
170.267349,-4663.297435,8068.244768,11721.261119
170.267659,1480.411884,12139.377449,-766.095498
170.267968,2368.659014,14359.995275,-14479.204912
170.268278,1554.432478,12213.398043,-11644.651570
170.268587,-1924.535449,17172.777854,-3677.258390
170.268897,222.061783,11843.295072,-3447.429741
170.269206,5477.523971,12657.521608,2757.943793
170.269516,-2072.576638,13841.851115,11261.603821
170.269825,-2960.823768,10658.965565,9652.803275
170.270135,-0.000000,5255.462188,-383.047749
170.270444,4959.379811,10066.800811,-7354.516781
170.270754,2960.823768,2590.720797,-8427.050478
170.271063,-7550.100608,14359.995275,4213.525239
170.271373,-888.247130,11991.336260,7431.126331
170.271682,5921.647536,8364.327145,-7967.393179
170.271992,222.061783,7698.141797,-9729.412825
170.272301,-7846.182985,8216.285956,4213.525239
170.272611,-962.267725,8586.388927,0.000000
170.272920,7994.224174,7105.977043,-9959.241474
170.273230,740.205942,9918.759623,-306.438199
170.273539,-2960.823768,11695.253884,10342.289223
170.273849,1110.308913,8734.430116,2604.724693
170.274158,1702.473667,11325.150913,-2604.724693
170.274468,-1406.391290,17690.922014,229.828649
170.274777,-5921.647536,12435.459826,-4596.572988
170.275087,-518.144159,8142.265362,-11721.261119
170.275396,4071.132681,7698.141797,-6281.983084
170.275706,888.247130,8660.409521,-5898.935335
170.276015,-8734.430116,5403.503377,3753.867940
170.276325,-4589.276840,10732.986159,11338.213370
170.276635,6809.894666,4145.153275,-1532.190996
170.276944,1406.391290,4441.235652,-6128.763984
170.277254,-3701.029710,5551.544565,4749.792088
170.277563,148.041188,9696.697840,2221.676944
170.277873,3256.906145,7402.059420,-9499.584175
170.278182,3923.091493,10510.924376,-1915.238745
170.278492,-2886.803174,12953.603985,3524.039291
170.278801,-148.041188,11769.274478,-3447.429741
170.279111,5329.482782,7994.224174,-2681.334243
170.279420,1628.453072,12065.356855,1608.800546
170.279730,-4515.256246,10362.883188,-1225.752797
170.280039,-5477.523971,12287.418637,-1149.143247
170.280349,1702.473667,12065.356855,-6588.421283
170.280658,2072.576638,8956.491898,-11338.213370
170.280968,-1924.535449,15396.283594,-6588.421283
170.281277,3404.947333,9400.615463,1991.848295
170.281587,4515.256246,6069.688724,1225.752797
170.281896,148.041188,-0.000000,6281.983084
170.282206,-2516.700203,3256.906145,11797.870669
170.282515,4515.256246,4293.194464,3217.601092
170.282825,2516.700203,7254.018232,-229.828649
170.283134,-4737.318029,8808.450710,2451.505594
170.283444,-148.041188,14952.160028,-5286.058936
170.283753,3849.070898,16580.613101,-14479.204912
170.284063,-2294.638420,15470.304188,-3983.696590
170.284372,-9770.718434,15396.283594,7737.564530
170.284681,-2220.617826,16950.716072,-2221.676944
170.284991,5921.647536,12435.459826,-12563.966167
170.285300,962.267725,6735.874072,-7048.078582
170.285610,-0.000000,3923.091493,3907.087040
170.285919,-3849.070898,6291.750507,9039.926876
170.286229,1924.535449,11917.315666,4519.963438
170.286538,5995.668130,4885.359217,-1608.800546
170.286848,-2072.576638,1258.350101,536.266849
170.287157,-3330.926739,3108.864956,2374.896044
170.287467,4219.173869,7772.162391,-6588.421283
170.287776,3923.091493,4293.194464,-11184.994271
170.288086,-3404.947333,6291.750507,5362.668486
170.288395,-5033.400406,16358.551318,9422.974625
170.288705,3849.070898,12509.480420,-6052.154434
170.289014,4145.153275,13619.789333,-6281.983084
170.289324,-4071.132681,14508.036463,5286.058936
170.289633,-4589.276840,11029.068536,2528.115143
170.289943,-148.041188,14137.933492,-8963.317327
170.290252,2738.761985,12657.521608,-6894.859482
170.290562,-1110.308913,15174.221811,-2681.334243
170.290871,-1480.411884,11695.253884,306.438199
170.291181,3478.967927,5921.647536,0.000000
170.291490,-814.226536,7476.080014,-383.047749
170.291800,-2220.617826,3108.864956,6588.421283
170.292109,-2516.700203,1850.514855,6588.421283
170.292419,-814.226536,9474.636058,-3600.648841
170.292728,6217.729913,9400.615463,-11644.651570
170.293038,-444.123565,7846.182985,-6588.421283
170.293347,-888.247130,5107.421000,536.266849
170.293657,740.205942,6809.894666,2987.772442
170.293966,-222.061783,13693.809927,5898.935335
170.294276,-2146.597232,16950.716072,4903.011187
170.294585,1924.535449,11325.150913,-2757.943793
170.294895,-4811.338623,10362.883188,-6052.154434
170.295204,-6809.894666,11917.315666,-7584.345430
170.295514,-1184.329507,17098.757260,-12410.747068
170.295823,1554.432478,9770.718434,-14555.814462
170.296133,-666.185348,6587.832884,-1455.581446
170.296442,-8142.265362,11843.295072,11031.775171
170.296752,-444.123565,6735.874072,3600.648841
170.297061,5181.441594,2812.782580,-5209.449386
170.297371,7994.224174,1110.308913,-1685.410096
170.297680,-5107.421000,1036.288319,3983.696590
170.297990,-2960.823768,6735.874072,3830.477490
170.298299,8734.430116,11843.295072,-3677.258390
170.298609,1480.411884,14730.098246,-5132.839837
170.298918,-8586.388927,18431.127956,-153.219100
170.299227,-1628.453072,14952.160028,-4443.353888
170.299537,2516.700203,11621.233289,-14249.376263
170.299846,-0.000000,9400.615463,-4290.134789
170.300156,-2812.782580,14730.098246,1685.410096
170.300465,-2738.761985,14508.036463,459.657299
170.300775,5403.503377,5329.482782,-1072.533697
170.301084,2442.679609,9252.574275,2911.162892
170.301394,370.102971,12287.418637,2911.162892
170.301703,4071.132681,5847.626942,-536.266849
170.302013,-1702.473667,5107.421000,-306.438199
170.302322,4589.276840,7105.977043,-1762.019645
170.302632,-962.267725,12139.377449,-2681.334243
170.302941,-2812.782580,13027.624579,0.000000
170.303251,-814.226536,10214.842000,919.314598
170.303560,-814.226536,12657.521608,-2298.286494
170.303870,-2812.782580,13027.624579,-1838.629195
170.304179,-814.226536,12139.377449,-5286.058936
170.304489,-1998.556043,17838.963202,-8810.098227
170.304798,-2368.659014,12509.480420,-7354.516781
170.305108,5551.544565,5921.647536,-6665.030833
170.305417,2294.638420,6587.832884,2374.896044
170.305727,-3775.050304,2072.576638,11338.213370
170.306036,-1702.473667,1332.370696,13100.233016
170.306346,4663.297435,3256.906145,3677.258390
170.306655,2368.659014,6883.915261,-2451.505594
170.306965,-5699.585753,12731.542202,-3370.820191
170.307274,370.102971,9178.553681,-9499.584175
170.307584,7105.977043,14211.954086,-12027.699319
170.307893,-6587.832884,12213.398043,689.485948
170.308203,-5477.523971,15766.386565,7354.516781
170.308512,-370.102971,13693.809927,-1455.581446
170.308822,2664.741391,10288.862594,-4136.915689
170.309131,-1850.514855,8956.491898,-1762.019645
170.309441,962.267725,10510.924376,-4673.182538
170.309750,3256.906145,11769.274478,-3294.210641
170.310060,2368.659014,9178.553681,2911.162892
170.310369,-1850.514855,11399.171507,4213.525239
170.310679,2294.638420,8586.388927,919.314598
170.310988,-0.000000,8882.471304,-2221.676944
170.311298,5699.585753,1110.308913,-612.876398
170.311607,1776.494261,296.082377,-2145.067394
170.311917,-6143.709319,6069.688724,383.047749
170.312226,4589.276840,13249.686362,2451.505594
170.312536,7179.997637,13101.645173,383.047749
170.312845,-3404.947333,12879.583391,4290.134789
170.313155,-10362.883188,15914.427753,3447.429741
170.313464,666.185348,18579.169144,-11797.870669
170.313773,5403.503377,15026.180623,-19612.044749
170.314083,-888.247130,9696.697840,-6818.249932
170.314392,-5921.647536,11769.274478,5822.325785
170.314702,-2590.720797,9474.636058,3217.601092
170.315011,2146.597232,5773.606348,2604.724693
170.315321,4515.256246,1998.556043,4060.306139
170.315630,-1628.453072,-1110.308913,-2604.724693
170.315940,-4145.153275,444.123565,-153.219100
170.316249,1036.288319,5181.441594,-229.828649
170.316559,6661.853478,6587.832884,-6281.983084
170.316868,222.061783,12139.377449,-4060.306139
170.317178,-4663.297435,9696.697840,6511.811733
170.317487,-666.185348,13767.830521,3140.991542
170.317797,1480.411884,12879.583391,-5745.716235
170.318106,-888.247130,13471.748144,-2987.772442
170.318416,-740.205942,19245.354492,-5286.058936
170.318725,-74.020594,9918.759623,-8350.440928
170.319035,-3849.070898,11547.212695,0.000000
170.319344,-2738.761985,13915.871710,3217.601092
170.319654,592.164754,13915.871710,-5669.106685
170.319963,-1036.288319,9252.574275,-9806.022374
170.320273,2812.782580,1776.494261,-6741.640382
170.320582,3034.844362,2368.659014,-5056.230287
170.320892,4219.173869,2146.597232,2145.067394
170.321201,814.226536,814.226536,17160.539155
170.321511,3478.967927,4885.359217,11797.870669
170.321820,-814.226536,4219.173869,9806.022374
170.322130,-2442.679609,12139.377449,4366.744339
170.322439,4811.338623,13841.851115,-13253.452115
170.322749,1776.494261,14508.036463,-20378.140247
170.323058,-8364.327145,18727.210333,-6205.373534
170.323368,-8512.368333,21391.951724,-766.095498
170.323677,7476.080014,18653.189738,-12870.404366
170.323987,2664.741391,13175.665768,-3830.477490
170.324296,-666.185348,7846.182985,11951.089769
170.324606,-1998.556043,2590.720797,12257.527968
170.324915,-148.041188,-296.082377,5132.839837
170.325225,518.144159,666.185348,3370.820191
170.325534,6809.894666,3997.112087,-1915.238745
170.325844,666.185348,9918.759623,-3830.477490
170.326153,-4441.235652,12657.521608,919.314598
170.326463,-1480.411884,14211.954086,-1685.410096
170.326772,2664.741391,10510.924376,-9806.022374
170.327082,-3849.070898,11029.068536,-6128.763984
170.327391,592.164754,11473.192101,-536.266849
170.327701,-1036.288319,6957.935855,-2221.676944
170.328010,-0.000000,9400.615463,2528.115143
170.328319,-0.000000,7031.956449,4903.011187
170.328629,1628.453072,9030.512492,76.609550
170.328938,-518.144159,11029.068536,1455.581446
170.329248,-2886.803174,9326.594869,3140.991542
170.329557,4811.338623,13841.851115,-10189.070123
170.329867,4885.359217,11695.253884,-15934.786358
170.330176,592.164754,7846.182985,-4443.353888
170.330486,-4959.379811,10436.903782,6818.249932
170.330795,-888.247130,8586.388927,2298.286494
170.331105,3108.864956,6365.771101,0.000000
170.331414,3404.947333,7994.224174,3140.991542
170.331724,-1406.391290,4959.379811,1762.019645
170.332033,-4885.359217,11103.089130,2298.286494
170.332343,3182.885551,11843.295072,-5362.668486
170.332652,6513.812290,12435.459826,-19995.092498
170.332962,-1998.556043,15026.180623,-4826.401637
170.333271,-7254.018232,12731.542202,7814.174080
170.333581,2664.741391,13175.665768,-306.438199
170.333890,3627.009116,8882.471304,-7048.078582
170.334200,-2516.700203,8216.285956,1302.362347
170.334509,-7772.162391,8808.450710,3830.477490
170.334819,518.144159,7994.224174,-4903.011187
170.335128,6217.729913,7402.059420,-8427.050478
170.335438,592.164754,11547.212695,-2987.772442
170.335747,-2664.741391,10362.883188,4366.744339
170.336057,-148.041188,8142.265362,4903.011187
170.336366,4145.153275,8438.347739,-842.705048
170.336676,4441.235652,5255.462188,-3217.601092
170.336985,-9696.697840,9030.512492,766.095498
170.337295,-3849.070898,7550.100608,2681.334243
170.337604,4811.338623,12139.377449,-10572.117872
170.337914,296.082377,11991.336260,-14096.157163
170.338223,-5181.441594,10510.924376,1455.581446
170.338533,-0.000000,11621.233289,1685.410096
170.338842,2664.741391,8586.388927,-5898.935335
170.339152,4071.132681,7920.203579,536.266849
170.339461,2072.576638,6809.894666,4826.401637
170.339771,-3478.967927,296.082377,7660.954980
170.340080,740.205942,8808.450710,2757.943793
170.340390,3330.926739,11843.295072,-6435.202183
170.340699,4663.297435,13101.645173,-10801.946522
170.341009,-1998.556043,11843.295072,-1302.362347
170.341318,-7846.182985,7550.100608,-383.047749
170.341628,3404.947333,6143.709319,-8733.488677
170.341937,-444.123565,8586.388927,-8810.098227
170.342247,-3701.029710,5773.606348,4749.792088
170.342556,592.164754,7402.059420,-1378.971896
170.342865,1480.411884,12213.398043,-6435.202183
170.343175,9844.739029,13101.645173,-3753.867940
170.343484,3701.029710,10955.047942,3753.867940
170.343794,-4811.338623,8512.368333,10418.898773
170.344103,-3849.070898,9770.718434,6894.859482
170.344413,1480.411884,10584.944971,-8580.269578
170.344722,3034.844362,7105.977043,-12487.356617
170.345032,-7105.977043,10362.883188,-3983.696590
170.345341,-2960.823768,13693.809927,-3677.258390
170.345651,5255.462188,13027.624579,-11414.822920
170.345960,1628.453072,9252.574275,-2374.896044
170.346270,-2886.803174,11769.274478,11031.775171
170.346579,-1776.494261,4219.173869,4903.011187
170.346889,4071.132681,6291.750507,-6128.763984
170.347198,7179.997637,5625.565159,-1838.629195
170.347508,4293.194464,3404.947333,1378.971896
170.347817,-2072.576638,5847.626942,4979.620737
170.348127,-3849.070898,10510.924376,7354.516781
170.348436,-0.000000,16876.695478,-2911.162892
170.348746,-0.000000,11399.171507,-5056.230287
170.349055,-5699.585753,14211.954086,-4060.306139
170.349365,-5181.441594,13397.727550,-8810.098227
170.349674,-222.061783,13693.809927,-13559.890315
170.349984,814.226536,11103.089130,-11338.213370
170.350293,1628.453072,9696.697840,1225.752797
170.350603,-592.164754,5403.503377,7814.174080
170.350912,666.185348,6291.750507,10265.679673
170.351222,8586.388927,1850.514855,10265.679673
170.351531,6809.894666,-0.000000,5132.839837
170.351841,-2664.741391,-1480.411884,8273.831378
170.352150,-2590.720797,6661.853478,4749.792088
170.352460,3849.070898,14211.954086,-9346.365076
170.352769,-2516.700203,16210.510130,-10572.117872
170.353079,-8216.285956,20503.704593,-1991.848295
170.353388,-3182.885551,22798.343014,-7814.174080
170.353698,2886.803174,15470.304188,-15015.471761
170.354007,-740.205942,12509.480420,-5745.716235
170.354317,-5033.400406,3849.070898,7124.688131
170.354626,-2738.761985,4515.256246,6358.592633
170.354936,444.123565,5477.523971,3907.087040
170.355245,6957.935855,6513.812290,-2528.115143
170.355555,6513.812290,4959.379811,-2221.676944
170.355864,1702.473667,5921.647536,4596.572988
170.356174,-1110.308913,4589.276840,10342.289223
170.356483,-1850.514855,9696.697840,1991.848295
170.356793,-1702.473667,7179.997637,-536.266849
170.357102,-1480.411884,11769.274478,-5515.887586
170.357411,-2738.761985,14878.139434,-11414.822920
170.357721,-1628.453072,12657.521608,-13023.623466
170.358030,-814.226536,14359.995275,-5439.278036
170.358340,4885.359217,12583.501014,689.485948
170.358649,2294.638420,6809.894666,1455.581446
170.358959,-5551.544565,9178.553681,16547.662757
170.359268,-2368.659014,5181.441594,14172.766713
170.359578,4663.297435,3627.009116,-6741.640382
170.359887,2516.700203,5995.668130,-15015.471761
170.360197,-2738.761985,8068.244768,-5515.887586
170.360506,2590.720797,8734.430116,-2911.162892
170.360816,370.102971,11917.315666,-4749.792088
170.361125,-2886.803174,12361.439231,2987.772442
170.361435,1258.350101,13471.748144,4443.353888
170.361744,-3404.947333,3478.967927,3370.820191
170.362054,-5625.565159,5699.585753,2068.457845
170.362363,5921.647536,6809.894666,-6665.030833
170.362673,4737.318029,5181.441594,-12104.308868
170.362982,-9030.512492,11917.315666,4596.572988
170.363292,-5181.441594,17468.860231,10725.336972
170.363601,5181.441594,18431.127956,-11261.603821
170.363911,9104.533087,10066.800811,-13713.109414
170.364220,592.164754,4293.194464,3907.087040
170.364530,-3997.112087,-2072.576638,10189.070123
170.364839,-3627.009116,3256.906145,8044.002729
170.365149,-4219.173869,7994.224174,7124.688131
170.365458,4515.256246,14952.160028,-5132.839837
170.365768,3849.070898,12509.480420,-13100.233016
170.366077,-7031.956449,14730.098246,-6281.983084
170.366387,-2516.700203,17912.983796,-4749.792088
170.366696,5699.585753,8734.430116,-12257.527968
170.367006,-2368.659014,9474.636058,-1302.362347
170.367315,-4145.153275,7105.977043,15628.348159
170.367625,1332.370696,3108.864956,6588.421283
170.367934,2590.720797,8586.388927,1072.533697
170.368244,4737.318029,8290.306550,6971.469032
170.368553,5033.400406,9030.512492,-3600.648841
170.368863,-1776.494261,12287.418637,-6281.983084
170.369172,-7328.038826,14137.933492,306.438199
170.369482,-0.000000,18727.210333,-5209.449386
170.369791,1998.556043,16284.530724,-14479.204912
170.370101,1924.535449,7698.141797,-9806.022374
170.370410,1628.453072,7772.162391,2451.505594
170.370720,-1258.350101,-0.000000,8120.612279
170.371029,-1554.432478,1258.350101,13713.109414
170.371339,1554.432478,9918.759623,12257.527968
170.371648,4663.297435,9770.718434,-1378.971896
170.371957,-74.020594,9918.759623,-5592.497135
170.372267,-5921.647536,7105.977043,-3140.991542
170.372576,4219.173869,13767.830521,-15934.786358
170.372886,-740.205942,12953.603985,-15245.300410
170.373195,-3478.967927,6957.935855,4519.963438
170.373505,-0.000000,12213.398043,10878.556072
170.373814,-4145.153275,10436.903782,6818.249932
170.374124,1554.432478,13545.768739,2681.334243
170.374433,5329.482782,7994.224174,-3370.820191
170.374743,1702.473667,2368.659014,-6894.859482
170.375052,-7920.203579,4293.194464,1302.362347
170.375362,-8586.388927,12065.356855,1072.533697
170.375671,6809.894666,11695.253884,-12410.747068
170.375981,6143.709319,10955.047942,-10418.898773
170.376290,-3478.967927,9030.512492,6741.640382
170.376600,-3923.091493,-74.020594,9729.412825
170.376909,-1110.308913,5995.668130,612.876398
170.377219,5107.421000,9030.512492,3677.258390
170.377528,2516.700203,10955.047942,2068.457845
170.377838,-3552.988522,13101.645173,-2528.115143
170.378147,-2812.782580,20873.807564,-7737.564530
170.378457,7254.018232,16802.674883,-13330.061665
170.378766,-1110.308913,11917.315666,-10112.460574
170.379076,-5403.503377,7105.977043,6665.030833
170.379385,-1406.391290,7846.182985,8273.831378
170.379695,2220.617826,7402.059420,3140.991542
170.380004,3997.112087,4663.297435,2987.772442
170.380314,-4885.359217,6809.894666,6665.030833
170.380623,888.247130,8216.285956,-7737.564530
170.380933,3701.029710,8438.347739,-16624.272307
170.381242,3701.029710,7920.203579,-4290.134789
170.381552,592.164754,7994.224174,7277.907231
170.381861,-3997.112087,7846.182985,10878.556072
170.382171,-4071.132681,12657.521608,7201.297681
170.382480,9252.574275,10214.842000,-8963.317327
170.382790,3923.091493,7550.100608,-7431.126331
170.383099,-10436.903782,9030.512492,2451.505594
170.383409,-2368.659014,16284.530724,-3907.087040
170.383718,5477.523971,16580.613101,-14402.595362
170.384028,592.164754,16580.613101,-4366.744339
170.384337,-5773.606348,14211.954086,5515.887586
170.384647,1184.329507,2516.700203,-4290.134789
170.384956,2368.659014,1184.329507,-3524.039291
170.385265,-444.123565,1850.514855,9039.926876
170.385575,1776.494261,740.205942,6052.154434
170.385884,-518.144159,8882.471304,1608.800546
170.386194,1480.411884,19023.292709,1455.581446
170.386503,5181.441594,15396.283594,-5975.544884
170.386813,666.185348,12731.542202,-11951.089769
170.387122,-5847.626942,6365.771101,-3677.258390
170.387432,-5477.523971,5847.626942,0.000000
170.387741,-1184.329507,5995.668130,-3907.087040
170.388051,-814.226536,9474.636058,153.219100
170.388360,-0.000000,11473.192101,7201.297681
170.388670,5181.441594,11473.192101,-1915.238745
170.388979,-296.082377,11177.109724,-2757.943793
170.389289,-1702.473667,11843.295072,3447.429741
