#time,accel_x,accel_y,accel_z
91.901641,-0.000000,9770.718434,-766.095498
91.901950,-0.000000,9474.636058,-3600.648841
91.902260,-0.000000,9030.512492,-2221.676944
91.902570,-296.082377,9178.553681,-1455.581446
91.902880,-0.000000,9992.780217,-1225.752797
91.903189,-962.267725,9844.739029,-153.219100
91.903499,-0.000000,9622.677246,-842.705048
91.903809,296.082377,9326.594869,-1378.971896
91.904119,-0.000000,9030.512492,-1991.848295
91.904428,-0.000000,9474.636058,-1302.362347
91.904738,-814.226536,11251.130318,3064.381992
91.905048,-0.000000,9474.636058,-459.657299
91.905358,1184.329507,9474.636058,-2068.457845
91.905667,-592.164754,9178.553681,-1991.848295
91.905977,-74.020594,10362.883188,-306.438199
91.906287,-222.061783,9992.780217,-995.924147
91.906596,-444.123565,8586.388927,-1072.533697
91.906906,888.247130,9252.574275,-1302.362347
91.907216,-0.000000,8956.491898,-1378.971896
91.907526,-0.000000,7920.203579,-4673.182538
91.907835,222.061783,8290.306550,-536.266849
91.908145,740.205942,8660.409521,995.924147
91.908455,1406.391290,7846.182985,1685.410096
91.908765,3256.906145,6513.812290,229.828649
91.909074,1406.391290,7031.956449,5515.887586
91.909384,2368.659014,7550.100608,10035.851024
91.909694,-666.185348,5033.400406,10265.679673
91.910004,6365.771101,8290.306550,7431.126331
91.910313,5181.441594,5921.647536,2374.896044
91.910623,-370.102971,7550.100608,9116.536426
91.910933,-2220.617826,10288.862594,16241.224558
91.911243,2886.803174,11177.109724,7814.174080
91.911552,1480.411884,11399.171507,2757.943793
91.911862,-592.164754,10955.047942,8273.831378
91.912172,-1850.514855,12435.459826,10189.070123
91.912482,-16654.633695,9178.553681,7354.516781
91.912791,19763.498651,23464.528361,-5439.278036
91.913101,-8068.244768,4663.297435,8120.612279
91.913411,-9178.553681,13027.624579,24821.494135
91.913721,-2368.659014,14285.974681,18616.120601
91.914030,-2294.638420,7254.018232,-1455.581446
91.914340,7698.141797,15544.324782,-3600.648841
91.914650,-16062.468941,3330.926739,14325.985813
91.914960,148.041188,14804.118840,5056.230287
91.915269,222.061783,4293.194464,1532.190996
91.915579,-4589.276840,7846.182985,8427.050478
91.915889,3108.864956,5329.482782,17466.977354
91.916198,-2072.576638,444.123565,15321.909960
91.916508,1628.453072,5403.503377,13942.938064
91.916818,-4737.318029,2886.803174,18233.072852
91.917128,3997.112087,8290.306550,3294.210641
91.917437,-2516.700203,5699.585753,-1378.971896
91.917747,370.102971,16580.613101,3294.210641
91.918057,592.164754,11103.089130,1685.410096
91.918367,4515.256246,13619.789333,5975.544884
91.918676,1554.432478,11621.233289,20607.968896
91.918986,592.164754,1554.432478,24591.665486
91.919296,1480.411884,6143.709319,15934.786358
91.919606,-888.247130,4367.215058,7890.783629
91.919915,4219.173869,12213.398043,1149.143247
91.920225,5255.462188,14508.036463,-4903.011187
91.920535,1776.494261,16506.592507,-1072.533697
91.920845,-3552.988522,16210.510130,16164.615008
91.921154,-7105.977043,13101.645173,16624.272307
91.921464,1554.432478,10510.924376,5056.230287
91.921774,1850.514855,10955.047942,-8120.612279
91.922084,3701.029710,9326.594869,-1225.752797
91.922393,962.267725,9622.677246,8580.269578
91.922703,-1110.308913,10436.903782,15398.519510
91.923013,-370.102971,10362.883188,12947.013916
91.923323,4145.153275,5625.565159,5132.839837
91.923632,-74.020594,3034.844362,-459.657299
91.923942,-9178.553681,4441.235652,4749.792088
91.924252,-4663.297435,9844.739029,1455.581446
91.924562,3552.988522,11103.089130,-11414.822920
91.924871,6143.709319,9474.636058,-10342.289223
91.925181,-1776.494261,9030.512492,7431.126331
91.925491,-7550.100608,8068.244768,18079.853753
91.925800,-2368.659014,9992.780217,13483.280765
91.926110,6735.874072,9992.780217,-1762.019645
91.926420,2812.782580,7994.224174,-10342.289223
91.926730,-6883.915261,9992.780217,-3907.087040
91.927039,-10140.821405,13249.686362,-2528.115143
91.927349,9326.594869,15766.386565,-14938.862211
91.927659,8142.265362,9252.574275,-11184.994271
91.927969,-3330.926739,6513.812290,14862.252661
91.928278,-6661.853478,-1110.308913,22982.864940
91.928588,2664.741391,666.185348,1762.019645
91.928898,9252.574275,2072.576638,-5209.449386
91.929208,-10214.842000,-2368.659014,6741.640382
91.929517,5477.523971,12139.377449,1685.410096
91.929827,4663.297435,5033.400406,-13866.328514
91.930137,3923.091493,13101.645173,-7584.345430
91.930447,592.164754,10140.821405,13176.842566
91.930756,-0.000000,6735.874072,14249.376263
91.931066,888.247130,7994.224174,10878.556072
91.931376,1036.288319,6957.935855,6818.249932
91.931686,5699.585753,11917.315666,-6588.421283
91.931995,-3997.112087,14508.036463,-8580.269578
91.932305,-4515.256246,20725.766376,-3140.991542
91.932615,5033.400406,19541.436869,-10878.556072
91.932925,7105.977043,21465.972318,-15321.909960
91.933234,-9770.718434,13249.686362,11721.261119
91.933544,-9696.697840,12583.501014,30490.600820
91.933854,7328.038826,8956.491898,2757.943793
91.934163,8068.244768,5329.482782,-15398.519510
91.934473,-6291.750507,11843.295072,1991.848295
91.934783,-3404.947333,13323.706956,2757.943793
91.935093,11695.253884,14878.139434,-18769.339701
91.935402,3923.091493,16210.510130,-8273.831378
91.935712,-12361.439231,8734.430116,22906.255390
91.936022,-7476.080014,2146.597232,20224.921147
91.936332,4071.132681,-1258.350101,-4519.963438
91.936641,-2072.576638,-888.247130,-5362.668486
91.936951,-6291.750507,4515.256246,1838.629195
91.937261,2072.576638,11621.233289,-10418.898773
91.937571,5033.400406,12435.459826,-14402.595362
91.937880,-1332.370696,14285.974681,7584.345430
91.938190,-5995.668130,10658.965565,20224.921147
91.938500,-444.123565,1850.514855,7354.516781
91.938810,-3034.844362,-1406.391290,3294.210641
91.939119,-6439.791695,4367.215058,5439.278036
91.939429,2516.700203,9030.512492,-9652.803275
91.939739,8438.347739,11991.336260,-18769.339701
91.940049,1258.350101,17320.819043,0.000000
91.940358,-740.205942,17764.942608,13253.452115
91.940668,-814.226536,11103.089130,5439.278036
91.940978,-2442.679609,6587.832884,5975.544884
91.941288,-4515.256246,8808.450710,7354.516781
91.941597,-592.164754,11769.274478,-7277.907231
91.941907,4737.318029,12509.480420,-15704.957709
91.942217,5551.544565,14656.077652,-10955.165621
91.942527,962.267725,14878.139434,0.000000
91.942836,-3552.988522,12287.418637,7507.735880
91.943146,-3034.844362,11399.171507,11721.261119
91.943456,444.123565,7550.100608,1072.533697
91.943765,-740.205942,6291.750507,-7277.907231
91.944075,-1554.432478,6661.853478,-11338.213370
91.944385,3923.091493,6883.915261,-15092.081311
91.944695,7846.182985,6883.915261,-9806.022374
91.945004,-5033.400406,10436.903782,3370.820191
91.945314,-3701.029710,9844.739029,17620.196454
91.945624,2812.782580,9992.780217,5515.887586
91.945934,962.267725,4737.318029,-9346.365076
91.946243,-2812.782580,7179.997637,-5975.544884
91.946553,1628.453072,5551.544565,-12257.527968
91.946863,6883.915261,5847.626942,-17926.634653
91.947173,5847.626942,11695.253884,-4826.401637
91.947482,-5921.647536,8586.388927,15015.471761
91.947792,1480.411884,11547.212695,13713.109414
91.948102,4441.235652,8290.306550,2451.505594
91.948412,-666.185348,3997.112087,-4903.011187
91.948721,1036.288319,7105.977043,-6894.859482
91.949031,4293.194464,5403.503377,-11414.822920
91.949341,7105.977043,11029.068536,-13559.890315
91.949651,3330.926739,12435.459826,1378.971896
91.949960,-7328.038826,12805.562797,13100.233016
91.950270,-1258.350101,11325.150913,17466.977354
91.950580,-814.226536,10140.821405,3983.696590
91.950890,148.041188,10214.842000,-9193.145976
91.951199,1036.288319,10362.883188,-14938.862211
91.951509,1406.391290,10658.965565,-16854.100956
91.951819,3997.112087,11547.212695,-15321.909960
91.952128,-4589.276840,12509.480420,7354.516781
91.952438,-6587.832884,12361.439231,20684.578446
91.952748,-0.000000,9770.718434,11491.432470
91.953058,-888.247130,5033.400406,-1685.410096
91.953367,-3182.885551,8882.471304,-3370.820191
91.953677,-1184.329507,6957.935855,-11568.042020
91.953987,5921.647536,7402.059420,-18922.558801
91.954297,-1184.329507,11103.089130,-2298.286494
91.954606,-7772.162391,9400.615463,16394.443657
91.954916,-740.205942,9030.512492,12410.747068
91.955226,296.082377,9104.533087,2987.772442
91.955536,-5255.462188,7254.018232,2068.457845
91.955845,-3256.906145,10584.944971,-6281.983084
91.956155,10362.883188,5033.400406,-19228.997000
91.956465,6069.688724,6365.771101,-13330.061665
91.956774,-444.123565,10140.821405,9116.536426
91.957084,-5995.668130,8364.327145,20531.359346
91.957394,1702.473667,8364.327145,15704.957709
91.957703,740.205942,6217.729913,6281.983084
91.958013,-1184.329507,6661.853478,-3907.087040
91.958323,-0.000000,6365.771101,-13636.499864
91.958632,4737.318029,8142.265362,-18003.244203
91.958942,6513.812290,13767.830521,-8273.831378
91.959252,-1850.514855,13915.871710,9193.145976
91.959561,-4589.276840,15396.283594,21603.893044
91.959871,-2368.659014,11917.315666,14709.033562
91.960180,-1702.473667,10955.047942,-689.485948
91.960490,592.164754,12361.439231,-13483.280765
91.960800,3256.906145,10807.006753,-22140.159892
91.961109,7402.059420,11695.253884,-21144.235745
91.961419,-1924.535449,13323.706956,-1072.533697
91.961729,-5699.585753,11917.315666,20531.359346
91.962038,148.041188,10510.924376,19305.606550
91.962348,740.205942,3108.864956,5745.716235
91.962658,-4959.379811,-0.000000,1455.581446
91.962967,-148.041188,5329.482782,-8963.317327
91.963277,3997.112087,6143.709319,-27579.437928
91.963586,5033.400406,9696.697840,-14096.157163
91.963896,-6587.832884,12805.562797,9576.193725
91.964206,-4219.173869,11029.068536,16700.881856
91.964515,444.123565,8586.388927,9959.241474
91.964825,-5921.647536,7179.997637,4596.572988
91.965135,-0.000000,10955.047942,-5822.325785
91.965444,5181.441594,7772.162391,-23825.569988
91.965754,6217.729913,9548.656652,-22063.550342
91.966064,444.123565,13249.686362,2298.286494
91.966373,-2738.761985,11473.192101,12257.527968
91.966683,-0.000000,10140.821405,15628.348159
91.966993,2738.761985,7402.059420,10725.336972
91.967302,-2886.803174,3849.070898,2681.334243
91.967612,592.164754,7698.141797,-8120.612279
91.967921,8290.306550,4219.173869,-20761.187996
91.968231,10436.903782,9252.574275,-17850.025103
91.968541,-4293.194464,10881.027347,2528.115143
91.968850,-5551.544565,11103.089130,19458.825649
91.969160,-148.041188,16432.571912,14249.376263
91.969470,-2368.659014,10732.986159,-1838.629195
91.969779,-2072.576638,13175.665768,-7814.174080
91.970089,1110.308913,10362.883188,-14019.547613
91.970399,5699.585753,7476.080014,-25051.322785
91.970708,6069.688724,11029.068536,-12947.013916
91.971018,-8142.265362,11843.295072,14172.766713
91.971328,-5551.544565,10732.986159,22753.036291
91.971637,2886.803174,7846.182985,8733.488677
91.971947,-148.041188,3627.009116,-1225.752797
91.972256,-5255.462188,5995.668130,-3294.210641
91.972566,4737.318029,5403.503377,-17313.758255
91.972876,6957.935855,7254.018232,-20991.016645
91.973185,-3182.885551,11473.192101,459.657299
91.973495,-8512.368333,12213.398043,19305.606550
91.973805,-74.020594,13619.789333,13406.671215
91.974114,-1332.370696,9326.594869,3830.477490
91.974424,-3923.091493,12731.542202,612.876398
91.974734,2960.823768,12213.398043,-13176.842566
91.975043,4885.359217,8364.327145,-23595.741338
91.975353,5181.441594,11325.150913,-10955.165621
91.975662,-3775.050304,12139.377449,9882.631924
91.975972,-5995.668130,9992.780217,20991.016645
91.976282,1406.391290,9622.677246,12257.527968
91.976591,-740.205942,5995.668130,1072.533697
91.976901,-1554.432478,6069.688724,-4519.963438
91.977211,1850.514855,7179.997637,-12717.185267
91.977520,4811.338623,7402.059420,-20991.016645
91.977830,296.082377,11547.212695,-4903.011187
91.978140,-7402.059420,11621.233289,13636.499864
91.978449,-2368.659014,12435.459826,15398.519510
91.978759,-1924.535449,10807.006753,5132.839837
91.979069,-4959.379811,12953.603985,-153.219100
91.979378,-370.102971,12583.501014,-11108.384721
91.979688,4589.276840,7328.038826,-21374.064394
91.979997,5773.606348,9474.636058,-14249.376263
91.980307,-6217.729913,9844.739029,8120.612279
91.980617,-7179.997637,10362.883188,18233.072852
91.980926,1924.535449,7105.977043,9959.241474
91.981236,-222.061783,3552.988522,612.876398
91.981546,-5033.400406,6883.915261,-1685.410096
91.981855,3552.988522,5329.482782,-13023.623466
91.982165,6957.935855,7624.121203,-19688.654299
91.982475,3627.009116,9474.636058,-6511.811733
91.982784,-5699.585753,11695.253884,10189.070123
91.983094,-3923.091493,10807.006753,14709.033562
91.983403,1998.556043,12953.603985,7431.126331
91.983713,-0.000000,10066.800811,-3064.381992
91.984023,-148.041188,11547.212695,-9499.584175
91.984332,4441.235652,9030.512492,-15628.348159
91.984642,6809.894666,12361.439231,-17466.977354
91.984952,1258.350101,11843.295072,-1072.533697
91.985261,-6957.935855,10807.006753,14709.033562
91.985571,1924.535449,10066.800811,12947.013916
91.985881,4145.153275,7179.997637,-612.876398
91.986190,-1258.350101,7254.018232,-4826.401637
91.986500,-2146.597232,6069.688724,-5056.230287
91.986810,6217.729913,5699.585753,-15628.348159
91.987119,7328.038826,7550.100608,-13866.328514
91.987429,-6291.750507,12213.398043,7048.078582
91.987738,-7105.977043,10436.903782,17926.634653
91.988048,1480.411884,11251.130318,5286.058936
91.988358,-962.267725,10288.862594,-5132.839837
91.988667,-3478.967927,9178.553681,-7201.297681
91.988977,3330.926739,9918.759623,-17237.148705
91.989287,3256.906145,7031.956449,-18845.949251
91.989596,-518.144159,11251.130318,-1608.800546
91.989906,-7920.203579,10214.842000,11951.089769
91.990216,1184.329507,8660.409521,7660.954980
91.990525,-518.144159,2812.782580,2374.896044
91.990835,-4959.379811,4737.318029,3140.991542
91.991144,-2146.597232,6069.688724,-4596.572988
91.991454,5921.647536,4515.256246,-18999.168350
91.991764,5773.606348,8660.409521,-12640.575717
91.992073,-4219.173869,9992.780217,4826.401637
91.992383,-5773.606348,12287.418637,15321.909960
91.992693,148.041188,13175.665768,9346.365076
91.993002,444.123565,11103.089130,-2604.724693
91.993312,-4515.256246,9918.759623,-7967.393179
91.993622,666.185348,11991.336260,-13559.890315
91.993931,4145.153275,11177.109724,-19152.387450
91.994241,4663.297435,14730.098246,-8733.488677
91.994551,-2294.638420,12657.521608,4749.792088
91.994860,-3552.988522,9400.615463,15398.519510
91.995170,4589.276840,7624.121203,6971.469032
91.995479,-592.164754,2960.823768,-1072.533697
91.995789,-2146.597232,7624.121203,-2068.457845
91.996099,3997.112087,5107.421000,-9346.365076
91.996408,7105.977043,5181.441594,-18616.120601
91.996718,1480.411884,9548.656652,-3064.381992
91.997028,-8438.347739,9992.780217,19152.387450
91.997337,-2220.617826,11621.233289,15168.690860
91.997647,2220.617826,8956.491898,-1532.190996
91.997957,-2886.803174,11251.130318,-5745.716235
91.998266,-296.082377,13249.686362,-9116.536426
91.998576,3478.967927,9918.759623,-20531.359346
91.998886,4589.276840,12139.377449,-14709.033562
91.999195,-2072.576638,13027.624579,7967.393179
91.999505,-3627.009116,10807.006753,15321.909960
91.999814,3627.009116,7698.141797,8273.831378
92.000124,962.267725,5033.400406,3064.381992
92.000434,-6957.935855,5847.626942,2374.896044
92.000743,3627.009116,5107.421000,-8733.488677
92.001053,8808.450710,5921.647536,-20148.311597
92.001363,2886.803174,12361.439231,-4749.792088
92.001672,-7846.182985,12361.439231,15475.129060
92.001982,-1924.535449,10881.027347,13636.499864
92.002292,1998.556043,11769.274478,2374.896044
92.002601,-5107.421000,11547.212695,-995.924147
92.002911,-1702.473667,14211.954086,-6435.202183
92.003220,8068.244768,9622.677246,-19612.044749
92.003530,6883.915261,13323.706956,-18539.511052
92.003840,-2146.597232,13101.645173,2834.553343
92.004149,-5107.421000,12361.439231,15245.300410
92.004459,1554.432478,8956.491898,11491.432470
92.004769,2516.700203,5921.647536,3600.648841
92.005078,-3478.967927,5107.421000,1608.800546
92.005388,-222.061783,4367.215058,-7354.516781
92.005698,6735.874072,5773.606348,-19152.387450
92.006007,3404.947333,7476.080014,-13483.280765
92.006317,-5255.462188,11325.150913,8197.221829
92.006627,-5477.523971,11547.212695,14172.766713
92.006936,3182.885551,9844.739029,5132.839837
92.007246,-3404.947333,11547.212695,-306.438199
92.007555,-4885.359217,12657.521608,612.876398
92.007865,3997.112087,11103.089130,-15551.738609
92.008175,6439.791695,8660.409521,-20914.407095
92.008484,518.144159,11769.274478,-3983.696590
92.008794,-6217.729913,10881.027347,13253.452115
92.009104,-740.205942,9770.718434,10112.460574
92.009413,1184.329507,6809.894666,2604.724693
92.009723,-3256.906145,6513.812290,1378.971896
92.010033,-2368.659014,6661.853478,-3217.601092
92.010342,6069.688724,2886.803174,-17083.929605
92.010652,7698.141797,5847.626942,-15092.081311
92.010961,-3627.009116,10362.883188,5056.230287
92.011271,-4589.276840,11769.274478,17313.758255
92.011581,148.041188,10658.965565,11031.775171
92.011890,-1110.308913,12139.377449,383.047749
92.012200,-3997.112087,12657.521608,-3677.258390
92.012510,592.164754,13249.686362,-13330.061665
92.012819,5995.668130,9474.636058,-23289.303139
92.013129,-1184.329507,14063.912898,-11951.089769
92.013439,-4145.153275,15840.407159,11031.775171
92.013748,-444.123565,9548.656652,12717.185267
92.014058,3256.906145,7254.018232,5515.887586
92.014368,-6735.874072,5773.606348,5822.325785
92.014677,-5921.647536,4441.235652,-3830.477490
92.014987,7920.203579,3701.029710,-22829.645840
92.015296,6587.832884,5107.421000,-20531.359346
92.015606,-3997.112087,9326.594869,4443.353888
92.015916,-6957.935855,10362.883188,19152.387450
92.016225,2590.720797,10807.006753,11261.603821
92.016535,-0.000000,7328.038826,2987.772442
92.016845,-4441.235652,11547.212695,-995.924147
92.017154,1702.473667,12065.356855,-14479.204912
92.017464,4663.297435,8808.450710,-25970.637382
92.017774,3627.009116,15396.283594,-12410.747068
92.018083,-1998.556043,11177.109724,4366.744339
92.018393,-3552.988522,10436.903782,13789.718964
92.018702,814.226536,8734.430116,12410.747068
92.019012,-2886.803174,9252.574275,3600.648841
92.019322,-148.041188,8438.347739,-2681.334243
92.019631,4885.359217,7698.141797,-13636.499864
92.019941,10658.965565,4071.132681,-22216.769442
92.020251,1406.391290,7031.956449,-2145.067394
92.020560,-8142.265362,9992.780217,20071.702048
92.020870,-1036.288319,8364.327145,18309.682402
92.021180,4737.318029,11325.150913,2528.115143
92.021489,-2960.823768,9548.656652,-2068.457845
92.021799,-1998.556043,14063.912898,-3064.381992
92.022109,3404.947333,9992.780217,-22063.550342
92.022418,5107.421000,10955.047942,-17237.148705
92.022728,-1258.350101,14063.912898,4903.011187
92.023037,-5181.441594,13397.727550,15475.129060
92.023347,-0.000000,11843.295072,9422.974625
92.023657,-3478.967927,8734.430116,4519.963438
92.023966,-3923.091493,6883.915261,-1455.581446
92.024276,4367.215058,4219.173869,-15168.690860
92.024586,5847.626942,5329.482782,-21680.502593
92.024895,2960.823768,8142.265362,-4443.353888
92.025205,-7624.121203,8364.327145,16164.615008
92.025515,-0.000000,10436.903782,15245.300410
92.025824,592.164754,7994.224174,6281.983084
92.026134,-5551.544565,9696.697840,-306.438199
92.026443,-1036.288319,13101.645173,-7048.078582
92.026753,3849.070898,10362.883188,-24438.446386
92.027063,5329.482782,11991.336260,-21986.940793
92.027372,-2220.617826,13619.789333,229.828649
92.027682,-5107.421000,13767.830521,11491.432470
92.027992,-962.267725,11251.130318,13866.328514
92.028301,-888.247130,9696.697840,8963.317327
92.028611,-4367.215058,7476.080014,842.705048
92.028921,1480.411884,7476.080014,-8197.221829
92.029230,9030.512492,4515.256246,-24208.617737
92.029540,3108.864956,6957.935855,-10342.289223
92.029850,-5995.668130,9030.512492,13100.233016
92.030159,-4219.173869,9770.718434,16854.100956
92.030469,2442.679609,10510.924376,5515.887586
92.030778,-4959.379811,7550.100608,2987.772442
92.031088,-3775.050304,13619.789333,-4519.963438
92.031398,5773.606348,10955.047942,-21527.283494
92.031707,7179.997637,9548.656652,-20914.407095
92.032017,1184.329507,11991.336260,-2221.676944
92.032327,-6957.935855,12139.377449,15015.471761
92.032636,-1998.556043,10288.862594,18386.291952
92.032946,2664.741391,7994.224174,6205.373534
92.033256,-3775.050304,7550.100608,-7201.297681
92.033565,-518.144159,7402.059420,-7737.564530
92.033875,5699.585753,4515.256246,-19688.654299
92.034185,7994.224174,4885.359217,-17313.758255
92.034494,-3627.009116,9548.656652,7354.516781
92.034804,-7402.059420,9992.780217,22063.550342
92.035113,4367.215058,9992.780217,10955.165621
92.035423,-0.000000,9474.636058,-689.485948
92.035733,-4885.359217,11325.150913,-612.876398
92.036042,3849.070898,8290.306550,-12563.966167
92.036352,7476.080014,7698.141797,-25204.541884
92.036662,1628.453072,13693.809927,-9039.926876
92.036971,-6513.812290,13693.809927,14632.424012
92.037281,-1998.556043,13101.645173,13942.938064
92.037591,3182.885551,11769.274478,2681.334243
92.037900,-3256.906145,8808.450710,383.047749
92.038210,-2220.617826,7920.203579,-3370.820191
92.038519,7179.997637,2960.823768,-18309.682402
92.038829,9400.615463,5107.421000,-15781.567259
92.039139,-3775.050304,7328.038826,7124.688131
92.039448,-7328.038826,8216.285956,20684.578446
92.039758,2812.782580,10955.047942,9499.584175
92.040068,962.267725,7105.977043,0.000000
92.040377,-4145.153275,10584.944971,3064.381992
92.040687,1184.329507,12731.542202,-10418.898773
92.040997,5181.441594,8734.430116,-22982.864940
92.041306,4737.318029,13545.768739,-11261.603821
92.041616,-3923.091493,13397.727550,8197.221829
92.041926,-4367.215058,11695.253884,11568.042020
92.042235,1850.514855,9548.656652,9116.536426
92.042545,-2442.679609,7328.038826,3753.867940
92.042854,-962.267725,7105.977043,-1915.238745
92.043164,4663.297435,6365.771101,-14632.424012
92.043474,7402.059420,5107.421000,-19075.777900
92.043783,-222.061783,10510.924376,-919.314598
92.044093,-7624.121203,11325.150913,16317.834107
92.044403,1258.350101,9696.697840,11031.775171
92.044712,3552.988522,9030.512492,3753.867940
92.045022,-5551.544565,9104.533087,2145.067394
92.045332,-1776.494261,11843.295072,-5362.668486
92.045641,5699.585753,7920.203579,-18999.168350
92.045951,6143.709319,10214.842000,-15475.129060
92.046260,-3256.906145,12657.521608,2834.553343
92.046570,-5995.668130,13841.851115,15551.738609
92.046880,444.123565,11177.109724,10572.117872
92.047189,-0.000000,7994.224174,-612.876398
92.047499,-3108.864956,9474.636058,-4749.792088
92.047809,296.082377,6661.853478,-7201.297681
92.048118,5403.503377,6957.935855,-15551.738609
92.048428,1480.411884,9030.512492,-6971.469032
92.048738,-6143.709319,10288.862594,12947.013916
92.049047,-1332.370696,10140.821405,12640.575717
92.049357,1776.494261,8734.430116,1149.143247
92.049667,-4219.173869,10214.842000,-2145.067394
92.049976,-5181.441594,11843.295072,-1685.410096
92.050286,4145.153275,11621.233289,-17926.634653
92.050595,7328.038826,8586.388927,-20837.797546
92.050905,-3330.926739,13545.768739,2528.115143
92.051215,-6365.771101,11547.212695,18386.291952
92.051524,1628.453072,9474.636058,9499.584175
92.051834,3775.050304,7254.018232,995.924147
92.052144,-3849.070898,7624.121203,1302.362347
92.052453,2072.576638,6735.874072,-7584.345430
92.052763,6143.709319,4737.318029,-20224.921147
92.053073,1924.535449,10214.842000,-8733.488677
92.053382,-3997.112087,10955.047942,12257.527968
92.053692,-2368.659014,10658.965565,11568.042020
92.054001,3108.864956,10214.842000,2757.943793
92.054311,-1258.350101,9104.533087,3600.648841
92.054621,-4737.318029,11843.295072,5439.278036
92.054930,5921.647536,8734.430116,-14325.985813
92.055240,8216.285956,10140.821405,-18999.168350
92.055549,-148.041188,10658.965565,-1991.848295
92.055859,-5847.626942,11103.089130,13942.938064
92.056168,814.226536,11029.068536,11414.822920
92.056478,3034.844362,8882.471304,3064.381992
92.056787,-2072.576638,8142.265362,153.219100
92.057096,-1258.350101,8586.388927,-3830.477490
92.057406,5995.668130,5921.647536,-16547.662757
92.057715,3627.009116,7179.997637,-13406.671215
92.058025,-2812.782580,11325.150913,2757.943793
92.058334,-4737.318029,9770.718434,13100.233016
92.058643,4737.318029,9844.739029,5898.935335
92.058953,666.185348,9474.636058,-1225.752797
92.059262,-6957.935855,10214.842000,3294.210641
92.059572,3478.967927,10362.883188,-6511.811733
92.059881,7772.162391,6587.832884,-22063.550342
92.060190,666.185348,11399.171507,-7431.126331
92.060500,-7920.203579,10288.862594,13713.109414
92.060809,-148.041188,10066.800811,9346.365076
92.061119,3108.864956,10510.924376,-1225.752797
92.061428,-4663.297435,8882.471304,2451.505594
92.061737,-3478.967927,8290.306550,-153.219100
92.062047,4737.318029,6513.812290,-18309.682402
92.062356,5847.626942,8216.285956,-17007.320056
92.062666,-3478.967927,11621.233289,4596.572988
92.062975,-4367.215058,10510.924376,12640.575717
92.063284,4219.173869,9400.615463,6281.983084
92.063594,-222.061783,10066.800811,2987.772442
92.063903,-6217.729913,9622.677246,2604.724693
92.064213,-74.020594,11547.212695,-8273.831378
92.064522,7550.100608,7254.018232,-24668.275036
92.064831,1924.535449,9844.739029,-13789.718964
92.065141,-5477.523971,12509.480420,7354.516781
92.065450,-5403.503377,9696.697840,12870.404366
92.065760,3701.029710,9252.574275,4213.525239
92.066069,-592.164754,7328.038826,3140.991542
92.066378,-4663.297435,9104.533087,1838.629195
92.066688,3404.947333,8364.327145,-11108.384721
92.066997,7402.059420,4959.379811,-20761.187996
92.067307,592.164754,10066.800811,-4290.134789
92.067616,-6291.750507,10584.944971,15245.300410
92.067925,592.164754,8216.285956,10648.727422
92.068235,666.185348,9622.677246,3753.867940
92.068544,-6143.709319,8956.491898,2834.553343
92.068854,-740.205942,11769.274478,-10342.289223
92.069163,7254.018232,10436.903782,-21986.940793
92.069472,5329.482782,9622.677246,-16777.491406
92.069782,-4737.318029,11251.130318,6971.469032
92.070091,-4145.153275,11473.192101,15475.129060
92.070401,6365.771101,7624.121203,8810.098227
92.070710,1332.370696,7031.956449,2298.286494
92.071019,-6661.853478,7105.977043,3370.820191
92.071329,2442.679609,7994.224174,-7967.393179
92.071638,8216.285956,5699.585753,-19841.873398
92.071947,3627.009116,11177.109724,-9116.536426
92.072257,-5773.606348,10510.924376,11644.651570
92.072566,-1850.514855,9474.636058,12257.527968
92.072876,1258.350101,11029.068536,4903.011187
92.073185,-6809.894666,10140.821405,-612.876398
92.073494,-2072.576638,11991.336260,-6511.811733
92.073804,4663.297435,8808.450710,-20531.359346
92.074113,5773.606348,8216.285956,-19612.044749
92.074423,-1258.350101,11251.130318,2451.505594
92.074732,-5033.400406,9030.512492,15934.786358
92.075041,1628.453072,9252.574275,12563.966167
92.075351,1184.329507,6809.894666,5362.668486
92.075660,-5255.462188,7179.997637,3600.648841
92.075970,814.226536,7402.059420,-6435.202183
92.076279,6439.791695,7105.977043,-23825.569988
92.076588,4515.256246,9622.677246,-14632.424012
92.076898,-5107.421000,12361.439231,8197.221829
92.077207,-3330.926739,9622.677246,12870.404366
92.077517,-370.102971,12361.439231,10572.117872
92.077826,-3923.091493,10510.924376,6665.030833
92.078135,-4145.153275,13323.706956,-1302.362347
92.078445,8290.306550,11473.192101,-19535.435199
92.078754,9696.697840,8068.244768,-23825.569988
92.079064,-370.102971,10214.842000,-3217.601092
92.079373,-7772.162391,10066.800811,18003.244203
92.079682,518.144159,8586.388927,16241.224558
92.079992,5551.544565,8142.265362,4903.011187
92.080301,-3997.112087,4663.297435,9116.536426
92.080611,-2960.823768,6069.688724,-1762.019645
92.080920,6957.935855,5699.585753,-20378.140247
92.081229,7254.018232,8290.306550,-20454.749797
92.081539,-3552.988522,12213.398043,3064.381992
92.081848,-9474.636058,13471.748144,17466.977354
92.082158,-296.082377,13249.686362,10495.508323
92.082467,-888.247130,12361.439231,1685.410096
92.082776,-5255.462188,13397.727550,-459.657299
92.083086,2960.823768,10510.924376,-11951.089769
92.083395,8438.347739,3182.885551,-25664.199183
92.083705,-74.020594,8808.450710,-8197.221829
92.084014,-7105.977043,11325.150913,16547.662757
92.084323,-1702.473667,9844.739029,13483.280765
92.084633,5995.668130,4811.338623,1915.238745
92.084942,-4515.256246,5181.441594,3753.867940
92.085252,-3627.009116,6513.812290,-1149.143247
92.085561,5181.441594,5329.482782,-20301.530697
92.085870,7254.018232,5625.565159,-19228.997000
92.086180,-3256.906145,10658.965565,2451.505594
92.086489,-7550.100608,11843.295072,15321.909960
92.086799,2590.720797,12583.501014,9499.584175
92.087108,-3256.906145,11695.253884,2145.067394
92.087417,-7476.080014,13915.871710,536.266849
92.087727,5181.441594,13989.892304,-15321.909960
92.088036,7402.059420,8438.347739,-27579.437928
92.088346,1406.391290,10510.924376,-9882.631924
92.088655,-5995.668130,10214.842000,15321.909960
92.088964,-1480.411884,9696.697840,17313.758255
92.089274,6883.915261,9104.533087,7354.516781
92.089583,-3552.988522,5625.565159,4213.525239
92.089893,-3108.864956,4959.379811,536.266849
92.090202,4367.215058,7031.956449,-18769.339701
92.090511,7031.956449,7772.162391,-23748.960438
92.090821,370.102971,11991.336260,-3064.381992
92.091130,-7550.100608,11769.274478,14938.862211
92.091439,296.082377,10955.047942,13866.328514
92.091749,-2664.741391,14211.954086,6052.154434
92.092058,-6365.771101,10658.965565,-536.266849
92.092368,2368.659014,11843.295072,-9806.022374
92.092677,6365.771101,6513.812290,-22140.159892
92.092986,5551.544565,8586.388927,-16241.224558
92.093296,-3182.885551,10436.903782,8197.221829
92.093605,-6291.750507,10362.883188,18309.682402
92.093915,2516.700203,8956.491898,8656.879127
92.094224,1406.391290,4885.359217,919.314598
92.094533,-5773.606348,4663.297435,76.609550
92.094843,962.267725,8216.285956,-9806.022374
92.095152,7920.203579,6735.874072,-21067.626195
92.095462,3182.885551,8734.430116,-6971.469032
92.095771,-6661.853478,13323.706956,10955.165621
92.096080,-2368.659014,9326.594869,10648.727422
92.096390,740.205942,11695.253884,6435.202183
92.096699,-5107.421000,12583.501014,1608.800546
92.097009,-1776.494261,15174.221811,-8886.707777
92.097318,8290.306550,5699.585753,-22140.159892
92.097627,3701.029710,5995.668130,-16088.005458
92.097937,-3849.070898,13249.686362,4749.792088
92.098246,-3775.050304,10955.047942,14862.252661
92.098556,2146.597232,8290.306550,7967.393179
92.098865,-666.185348,4959.379811,4290.134789
92.099174,-4959.379811,4663.297435,4290.134789
92.099484,148.041188,5847.626942,-6511.811733
92.099793,5181.441594,7105.977043,-19688.654299
92.100103,4737.318029,9548.656652,-12027.699319
92.100412,-4663.297435,12213.398043,4749.792088
92.100721,-4737.318029,11769.274478,12257.527968
92.101031,-148.041188,12879.583391,5975.544884
92.101340,-1998.556043,11473.192101,-229.828649
92.101650,-3182.885551,12287.418637,-5898.935335
92.101959,4737.318029,10140.821405,-15245.300410
92.102268,6217.729913,6883.915261,-18156.463303
92.102578,-1184.329507,11473.192101,-1608.800546
92.102887,-7105.977043,8956.491898,15934.786358
92.103197,666.185348,9918.759623,11261.603821
92.103506,4515.256246,6513.812290,-1455.581446
92.103815,-2664.741391,4145.153275,0.000000
92.104125,-1998.556043,6291.750507,76.609550
92.104434,4515.256246,6291.750507,-14172.766713
92.104744,8882.471304,6735.874072,-14632.424012
92.105053,-5255.462188,11177.109724,5286.058936
92.105362,-6069.688724,12805.562797,14709.033562
92.105672,3552.988522,13397.727550,4979.620737
92.105981,1184.329507,13175.665768,-6665.030833
92.106291,-4811.338623,14952.160028,-3677.258390
92.106600,1998.556043,10510.924376,-12180.918418
92.106909,6143.709319,6513.812290,-19612.044749
92.107219,-2294.638420,10658.965565,-4290.134789
92.107528,-7772.162391,14211.954086,12717.185267
92.107838,888.247130,10288.862594,7354.516781
92.108147,4071.132681,6291.750507,-1532.190996
92.108456,-444.123565,4663.297435,1991.848295
92.108766,-4441.235652,3997.112087,4060.306139
92.109075,3775.050304,4071.132681,-12104.308868
92.109385,5329.482782,4885.359217,-12640.575717
92.109694,-296.082377,10955.047942,766.095498
92.110003,-7105.977043,11251.130318,10878.556072
92.110313,1480.411884,10140.821405,4213.525239
92.110622,1036.288319,12657.521608,-1762.019645
92.110932,-4293.194464,11621.233289,-4903.011187
92.111241,-0.000000,12657.521608,-8580.269578
92.111550,3034.844362,9548.656652,-17850.025103
92.111860,2664.741391,11843.295072,-13789.718964
92.112169,-5033.400406,12065.356855,8810.098227
92.112478,-2146.597232,12139.377449,12410.747068
92.112788,7402.059420,7328.038826,0.000000
92.113097,-1702.473667,3034.844362,1532.190996
92.113407,-3997.112087,4737.318029,5745.716235
92.113716,2368.659014,4885.359217,-6894.859482
92.114025,9622.677246,4811.338623,-17620.196454
92.114335,740.205942,9548.656652,-2374.896044
92.114644,-5625.565159,8660.409521,15934.786358
92.114954,296.082377,8808.450710,8810.098227
92.115263,2146.597232,12139.377449,-1532.190996
92.115572,-3627.009116,12509.480420,-2604.724693
92.115882,-1480.411884,13101.645173,-6818.249932
92.116191,3701.029710,10362.883188,-16547.662757
92.116501,2590.720797,10732.986159,-14172.766713
92.116810,-3478.967927,13323.706956,3524.039291
92.117119,-3775.050304,11547.212695,12717.185267
92.117429,5255.462188,10066.800811,4366.744339
92.117738,370.102971,3775.050304,2604.724693
92.118048,-2590.720797,4663.297435,5669.106685
92.118357,814.226536,4737.318029,-5439.278036
92.118666,7846.182985,6291.750507,-16547.662757
92.118976,-74.020594,10881.027347,-5209.449386
92.119285,-7328.038826,12361.439231,9422.974625
92.119595,-1184.329507,11695.253884,7507.735880
92.119904,2220.617826,13619.789333,306.438199
92.120213,-4293.194464,14730.098246,-1762.019645
92.120523,-4219.173869,13101.645173,-3983.696590
92.120832,4589.276840,10807.006753,-14325.985813
92.121142,4885.359217,8882.471304,-15092.081311
92.121451,-3923.091493,12953.603985,2298.286494
92.121760,-2294.638420,11991.336260,10189.070123
92.122070,4737.318029,7624.121203,4519.963438
92.122379,3627.009116,5255.462188,-2528.115143
92.122689,-4811.338623,5477.523971,5286.058936
92.122998,-3478.967927,4589.276840,-842.705048
92.123307,6143.709319,3627.009116,-15781.567259
92.123617,4219.173869,9326.594869,-11108.384721
92.123926,-5625.565159,11177.109724,7431.126331
92.124236,-6143.709319,10584.944971,13176.842566
92.124545,5403.503377,12953.603985,2604.724693
92.124854,-74.020594,11991.336260,-4443.353888
92.125164,-3997.112087,12953.603985,-2374.896044
92.125473,740.205942,10732.986159,-6894.859482
92.125783,4515.256246,9474.636058,-15475.129060
92.126092,2590.720797,11399.171507,-8197.221829
92.126401,-5255.462188,13397.727550,11951.089769
92.126711,592.164754,9326.594869,9959.241474
92.127020,3997.112087,4145.153275,-2221.676944
92.127330,-962.267725,4219.173869,-2298.286494
92.127639,-4441.235652,5033.400406,2528.115143
92.127948,3775.050304,4219.173869,-10495.508323
92.128258,7031.956449,8364.327145,-14325.985813
92.128567,-2368.659014,9548.656652,2145.067394
92.128877,-6143.709319,8512.368333,16088.005458
92.129186,296.082377,11991.336260,8810.098227
92.129495,2812.782580,11251.130318,-3140.991542
92.129805,-2812.782580,13989.892304,-6205.373534
92.130114,740.205942,12509.480420,-7967.393179
92.130424,4441.235652,9696.697840,-15475.129060
92.130733,2368.659014,11177.109724,-9499.584175
92.131042,-4145.153275,13619.789333,8810.098227
92.131352,-1406.391290,10584.944971,11414.822920
92.131661,3330.926739,6291.750507,842.705048
92.131971,-1110.308913,5551.544565,1302.362347
92.132280,-3404.947333,6439.791695,766.095498
92.132589,4293.194464,3849.070898,-13713.109414
92.132899,6439.791695,5181.441594,-14479.204912
92.133208,-4145.153275,11473.192101,4443.353888
92.133517,-6069.688724,9622.677246,13100.233016
92.133827,1924.535449,10362.883188,5362.668486
92.134136,3404.947333,10881.027347,76.609550
92.134446,-5625.565159,13397.727550,0.000000
92.134755,-296.082377,11991.336260,-9269.755526
92.135064,6957.935855,9548.656652,-19535.435199
92.135374,370.102971,11843.295072,-11951.089769
92.135683,-5255.462188,13323.706956,8120.612279
92.135993,-1998.556043,12213.398043,11644.651570
92.136302,4737.318029,8216.285956,2068.457845
92.136611,1036.288319,6513.812290,842.705048
92.136921,-5033.400406,4959.379811,3064.381992
92.137230,2812.782580,4441.235652,-9269.755526
92.137540,6143.709319,4219.173869,-17160.539155
92.137849,-0.000000,10881.027347,-1455.581446
92.138158,-5921.647536,11325.150913,12947.013916
92.138468,-740.205942,10436.903782,9116.536426
92.138777,3330.926739,10066.800811,-1838.629195
92.139087,-2368.659014,12213.398043,-3600.648841
92.139396,-1628.453072,11991.336260,-5286.058936
92.139705,3182.885551,9252.574275,-13866.328514
92.140015,6291.750507,11029.068536,-15321.909960
92.140324,-5329.482782,12805.562797,2451.505594
92.140634,-5699.585753,12361.439231,16700.881856
92.140943,2738.761985,8438.347739,8120.612279
92.141252,3478.967927,5995.668130,-2757.943793
92.141562,-1924.535449,7698.141797,-536.266849
92.141871,-3478.967927,6587.832884,-4673.182538
92.142181,5773.606348,5033.400406,-14862.252661
92.142490,1628.453072,9992.780217,-7048.078582
92.142799,-4811.338623,11621.233289,11031.775171
92.143109,-3627.009116,12435.459826,14709.033562
92.143418,2368.659014,10658.965565,2374.896044
92.143728,1776.494261,11695.253884,-6358.592633
92.144037,-3701.029710,12731.542202,-6205.373534
92.144346,1480.411884,10066.800811,-11338.213370
92.144656,4885.359217,10881.027347,-12717.185267
92.144965,296.082377,13471.748144,-1838.629195
92.145275,-5255.462188,12509.480420,14555.814462
92.145584,-1702.473667,8142.265362,11874.480219
92.145893,2886.803174,5329.482782,-689.485948
92.146203,-148.041188,4811.338623,-2451.505594
92.146512,-0.000000,6661.853478,-7584.345430
92.146822,1998.556043,5107.421000,-14019.547613
92.147131,3552.988522,9548.656652,-7277.907231
92.147440,-2516.700203,9474.636058,9039.926876
92.147750,-4737.318029,11399.171507,12563.966167
92.148059,1184.329507,11621.233289,7737.564530
92.148369,962.267725,7550.100608,-2068.457845
92.148678,148.041188,12435.459826,-8580.269578
92.148987,1110.308913,9326.594869,-11031.775171
92.149297,3478.967927,8586.388927,-11338.213370
92.149606,1406.391290,13175.665768,-3447.429741
92.149916,-5181.441594,15174.221811,9652.803275
92.150225,-740.205942,11917.315666,7737.564530
92.150534,2516.700203,6069.688724,-689.485948
92.150844,1702.473667,5181.441594,-4673.182538
92.151153,-1036.288319,6513.812290,-2604.724693
92.151463,2072.576638,5477.523971,-7354.516781
92.151772,5995.668130,7994.224174,-8963.317327
92.152081,-1110.308913,8512.368333,5362.668486
92.152391,-7254.018232,11399.171507,15704.957709
92.152700,1850.514855,10214.842000,6205.373534
92.153009,3108.864956,10584.944971,-8427.050478
92.153319,-1628.453072,12435.459826,-7201.297681
92.153628,-2812.782580,11547.212695,-5898.935335
92.153938,3997.112087,9696.697840,-13253.452115
92.154247,1554.432478,11991.336260,-9269.755526
92.154556,-7031.956449,15026.180623,10495.508323
92.154866,-3330.926739,11251.130318,14479.204912
92.155175,5329.482782,6883.915261,-1762.019645
92.155485,2738.761985,4441.235652,-6281.983084
92.155794,-2516.700203,5995.668130,0.000000
92.156103,-962.267725,6143.709319,-5362.668486
92.156413,6883.915261,8290.306550,-11644.651570
92.156722,-2886.803174,8364.327145,2528.115143
92.157032,-7846.182985,10881.027347,14709.033562
92.157341,1628.453072,8290.306550,7124.688131
92.157650,5921.647536,8586.388927,-8044.002729
92.157960,-2886.803174,12435.459826,-5745.716235
92.158269,-3997.112087,10066.800811,-2681.334243
92.158578,3849.070898,10288.862594,-10801.946522
92.158888,1332.370696,14063.912898,-11721.261119
92.159197,-6587.832884,14508.036463,6588.421283
92.159507,-5107.421000,11251.130318,12027.699319
92.159816,6809.894666,8660.409521,-1455.581446
92.160125,4885.359217,7179.997637,-8886.707777
92.160435,-2664.741391,3701.029710,-612.876398
92.160744,-2886.803174,6439.791695,919.314598
92.161053,5403.503377,6587.832884,-6358.592633
92.161363,3552.988522,9474.636058,-2451.505594
92.161672,-7698.141797,11769.274478,10572.117872
92.161981,-666.185348,11029.068536,7584.345430
92.162291,7698.141797,7328.038826,-7124.688131
92.162600,518.144159,11991.336260,-8733.488677
92.162909,-7105.977043,11843.295072,0.000000
92.163219,-1258.350101,12065.356855,-6588.421283
92.163528,6291.750507,11843.295072,-11108.384721
92.163838,-2590.720797,14211.954086,1915.238745
92.164147,-4071.132681,13175.665768,14479.204912
92.164456,666.185348,8660.409521,4596.572988
92.164766,6587.832884,3627.009116,-7507.735880
92.165075,-2220.617826,4737.318029,766.095498
92.165384,-4737.318029,5403.503377,1991.848295
92.165694,4811.338623,7105.977043,-8886.707777
92.166003,-814.226536,11843.295072,-2757.943793
92.166312,-5921.647536,13693.809927,7201.297681
92.166622,-1480.411884,11769.274478,3294.210641
92.166931,5329.482782,9104.533087,-8733.488677
92.167240,740.205942,10214.842000,-6358.592633
92.167550,-5625.565159,10955.047942,1685.410096
92.167859,1702.473667,11103.089130,-4213.525239
92.168168,4885.359217,10955.047942,-8197.221829
92.168478,-2516.700203,10732.986159,2451.505594
92.168787,-3034.844362,9400.615463,9806.022374
92.169097,3256.906145,6883.915261,-689.485948
92.169406,6587.832884,4589.276840,-10495.508323
92.169715,-1258.350101,7105.977043,-1532.190996
92.170025,-6809.894666,9770.718434,4596.572988
92.170334,1110.308913,10066.800811,-6358.592633
92.170643,5329.482782,10362.883188,-9576.193725
92.170953,-3997.112087,10362.883188,3370.820191
92.171262,-3775.050304,10288.862594,8886.707777
92.171571,5921.647536,9844.739029,-2451.505594
92.171881,3997.112087,10955.047942,-8273.831378
92.172190,-5477.523971,11843.295072,2987.772442
92.172499,-3478.967927,10510.924376,2145.067394
92.172809,5625.565159,10510.924376,-11414.822920
92.173118,3330.926739,11473.192101,-8886.707777
92.173428,-5255.462188,11103.089130,7890.783629
92.173737,-0.000000,7031.956449,5822.325785
92.174046,7772.162391,4441.235652,-7124.688131
92.174356,-1110.308913,6291.750507,-2145.067394
92.174665,-8290.306550,8956.491898,5439.278036
92.174974,1184.329507,6513.812290,-4290.134789
92.175284,6439.791695,8216.285956,-10418.898773
92.175593,-0.000000,12657.521608,919.314598
92.175902,-4959.379811,11991.336260,6358.592633
92.176212,2368.659014,8364.327145,0.000000
92.176521,2516.700203,10510.924376,-4060.306139
92.176830,-3997.112087,12509.480420,1378.971896
92.177140,-1480.411884,11547.212695,153.219100
92.177449,3404.947333,10658.965565,-9269.755526
92.177759,2294.638420,12583.501014,-8120.612279
92.178068,-4441.235652,11325.150913,2374.896044
92.178377,-0.000000,7846.182985,2834.553343
92.178687,4367.215058,5773.606348,-306.438199
92.178996,-1924.535449,7254.018232,995.924147
92.179305,-5329.482782,10362.883188,4060.306139
92.179615,740.205942,8068.244768,-3830.477490
92.179924,4737.318029,8216.285956,-9499.584175
92.180233,-2442.679609,12435.459826,-995.924147
92.180543,-2664.741391,9992.780217,5515.887586
92.180852,2516.700203,8068.244768,1532.190996
92.181161,1554.432478,7031.956449,-1762.019645
92.181471,-4663.297435,12435.459826,2298.286494
92.181780,-5847.626942,13767.830521,-383.047749
92.182089,3923.091493,11177.109724,-12334.137518
92.182399,2590.720797,10140.821405,-12257.527968
92.182708,-3108.864956,10066.800811,995.924147
92.183018,-2590.720797,10362.883188,1532.190996
92.183327,5625.565159,7254.018232,-306.438199
92.183636,1258.350101,5773.606348,383.047749
92.183946,-5181.441594,8956.491898,8580.269578
92.184255,-1924.535449,9252.574275,2145.067394
92.184564,8882.471304,8586.388927,-13789.718964
92.184874,2072.576638,8290.306550,-10418.898773
92.185183,-5773.606348,8882.471304,4366.744339
92.185492,1110.308913,9178.553681,5745.716235
92.185802,5403.503377,11473.192101,-2528.115143
92.186111,-4293.194464,11177.109724,76.609550
92.186420,-5699.585753,10955.047942,3983.696590
92.186730,1850.514855,9622.677246,-9116.536426
92.187039,6365.771101,9474.636058,-16854.100956
92.187349,518.144159,9474.636058,-4749.792088
92.187658,-1924.535449,10362.883188,8886.707777
92.187967,4811.338623,6809.894666,2987.772442
92.188277,2146.597232,4441.235652,1685.410096
92.188586,-5551.544565,7476.080014,7737.564530
92.188895,-2886.803174,3849.070898,2528.115143
92.189205,4885.359217,8068.244768,-12257.527968
92.189514,3775.050304,9622.677246,-12410.747068
92.189823,-3330.926739,11547.212695,-1225.752797
92.190133,-1924.535449,9030.512492,5132.839837
92.190442,1036.288319,10214.842000,919.314598
92.190751,-2664.741391,12509.480420,76.609550
92.191061,-6143.709319,12583.501014,459.657299
92.191370,2738.761985,10436.903782,-8120.612279
92.191679,4959.379811,8512.368333,-14172.766713
92.191989,518.144159,8142.265362,-3140.991542
92.192298,-2664.741391,8734.430116,10189.070123
92.192608,2368.659014,6439.791695,7354.516781
92.192917,4145.153275,6809.894666,0.000000
92.193226,-5995.668130,7920.203579,3524.039291
92.193536,-4811.338623,9474.636058,612.876398
92.193845,4811.338623,9548.656652,-14479.204912
92.194154,6513.812290,10955.047942,-17620.196454
92.194464,-3849.070898,9178.553681,689.485948
92.194773,-5921.647536,11547.212695,9959.241474
92.195082,3478.967927,11991.336260,3753.867940
92.195392,-0.000000,11843.295072,-919.314598
92.195701,-4367.215058,12435.459826,1149.143247
92.196010,518.144159,11473.192101,-4366.744339
92.196320,6217.729913,8438.347739,-14938.862211
92.196629,1110.308913,8512.368333,-7660.954980
92.196939,-3034.844362,9474.636058,8427.050478
92.197248,-1406.391290,7179.997637,7507.735880
92.197557,4145.153275,6513.812290,383.047749
92.197867,-1480.411884,5995.668130,1149.143247
92.198176,-5181.441594,6735.874072,2298.286494
92.198485,2516.700203,7476.080014,-8197.221829
92.198795,6291.750507,8142.265362,-16624.272307
92.199104,-740.205942,10732.986159,-1762.019645
92.199413,-4737.318029,12361.439231,10112.460574
92.199723,1480.411884,11695.253884,4903.011187
92.200032,1110.308913,11621.233289,-612.876398
92.200341,-5921.647536,12879.583391,2298.286494
92.200651,-3034.844362,11325.150913,-4060.306139
92.200960,4737.318029,8882.471304,-14709.033562
92.201270,3923.091493,9474.636058,-10418.898773
92.201579,-5699.585753,13027.624579,3983.696590
92.201888,-1406.391290,8734.430116,9039.926876
92.202198,3552.988522,5773.606348,842.705048
92.202507,-1110.308913,4663.297435,383.047749
92.202816,-5329.482782,5773.606348,3677.258390
92.203126,-0.000000,6143.709319,-2757.943793
92.203435,7328.038826,7920.203579,-13483.280765
92.203744,1184.329507,11325.150913,-5592.497135
92.204054,-6143.709319,10658.965565,9193.145976
92.204363,-1332.370696,12287.418637,11031.775171
92.204672,4515.256246,12583.501014,-4519.963438
92.204982,-3182.885551,14508.036463,-6665.030833
92.205291,-6217.729913,12361.439231,-1532.190996
92.205600,2368.659014,10214.842000,-10035.851024
92.205910,3775.050304,11399.171507,-15321.909960
92.206219,-1628.453072,12435.459826,612.876398
92.206529,-2812.782580,8882.471304,11797.870669
92.206838,3404.947333,5181.441594,2834.553343
92.207147,3034.844362,3997.112087,-536.266849
92.207457,-3701.029710,5551.544565,6358.592633
92.207766,-1406.391290,7254.018232,-2145.067394
92.208075,6069.688724,6217.729913,-12257.527968
92.208385,2664.741391,9844.739029,-6205.373534
92.208694,-4737.318029,8882.471304,5286.058936
92.209003,-222.061783,11991.336260,6358.592633
92.209313,2886.803174,12509.480420,612.876398
92.209622,-2368.659014,12213.398043,-2221.676944
92.209931,-6069.688724,12139.377449,-2221.676944
92.210241,1850.514855,9770.718434,-12640.575717
92.210550,4811.338623,10436.903782,-16011.395908
92.210860,-1554.432478,11695.253884,-1685.410096
92.211169,-2072.576638,10584.944971,12104.308868
92.211478,2886.803174,5773.606348,4443.353888
92.211788,4811.338623,1924.535449,0.000000
92.212097,-5847.626942,4737.318029,8580.269578
92.212406,-4737.318029,6957.935855,3600.648841
92.212716,7105.977043,7179.997637,-12410.747068
92.213025,3182.885551,9696.697840,-14479.204912
92.213334,-4663.297435,14137.933492,2145.067394
92.213644,-2294.638420,13471.748144,4519.963438
92.213953,1628.453072,10732.986159,-1762.019645
92.214262,-1850.514855,13545.768739,-1072.533697
92.214572,-8068.244768,15396.283594,306.438199
92.214881,1628.453072,11769.274478,-7660.954980
92.215191,5107.421000,9252.574275,-12793.794817
92.215500,-444.123565,9326.594869,-2145.067394
92.215809,-592.164754,8956.491898,10035.851024
92.216119,2960.823768,5921.647536,4903.011187
92.216428,2294.638420,4885.359217,-919.314598
92.216737,-4959.379811,5773.606348,5056.230287
92.217047,-5107.421000,8734.430116,1225.752797
92.217356,4663.297435,8882.471304,-12410.747068
92.217665,5995.668130,9252.574275,-13176.842566
92.217975,-1776.494261,10214.842000,0.000000
92.218284,-5477.523971,10584.944971,8350.440928
92.218593,2368.659014,10066.800811,1991.848295
92.218903,1702.473667,11917.315666,-3294.210641
92.219212,-3775.050304,13767.830521,1685.410096
92.219521,-1998.556043,13101.645173,-2374.896044
92.219831,5847.626942,9622.677246,-14096.157163
92.220140,1924.535449,12435.459826,-8197.221829
92.220450,-3108.864956,11103.089130,5056.230287
92.220759,222.061783,8142.265362,4903.011187
92.221068,5033.400406,4959.379811,-1838.629195
92.221378,-2886.803174,7698.141797,2757.943793
92.221687,-3552.988522,5921.647536,5132.839837
92.221996,2590.720797,6143.709319,-5132.839837
92.222306,7772.162391,7698.141797,-11491.432470
92.222615,-0.000000,9178.553681,-1991.848295
92.222924,-3775.050304,9326.594869,5822.325785
92.223234,-0.000000,9030.512492,3600.648841
92.223543,2220.617826,11103.089130,-1685.410096
92.223852,-3330.926739,13323.706956,-383.047749
92.224162,-4885.359217,13989.892304,-2451.505594
92.224471,5699.585753,10658.965565,-8197.221829
92.224781,3034.844362,11177.109724,-12180.918418
92.225090,-5033.400406,11029.068536,1685.410096
92.225399,296.082377,11399.171507,5592.497135
92.225709,3701.029710,5329.482782,-1072.533697
92.226018,1110.308913,2960.823768,842.705048
92.226327,-7846.182985,6439.791695,7048.078582
92.226637,666.185348,4737.318029,-2604.724693
92.226946,7031.956449,4367.215058,-11338.213370
92.227255,1998.556043,9696.697840,-6128.763984
92.227565,-4515.256246,10807.006753,6511.811733
92.227874,-222.061783,10955.047942,3217.601092
92.228183,2220.617826,11325.150913,-3447.429741
92.228493,-3775.050304,12805.562797,-1608.800546
92.228802,-5477.523971,14211.954086,-3447.429741
92.229111,1776.494261,12361.439231,-10572.117872
92.229421,3627.009116,12287.418637,-12947.013916
92.229730,-740.205942,12657.521608,-2221.676944
92.230040,-2146.597232,11917.315666,4826.401637
92.230349,4663.297435,8734.430116,1991.848295
92.230658,2294.638420,3701.029710,1302.362347
92.230968,-3627.009116,5921.647536,6052.154434
92.231277,-1554.432478,6143.709319,2911.162892
92.231586,6217.729913,3478.967927,-7431.126331
92.231896,2886.803174,7698.141797,-7201.297681
92.232205,-4811.338623,9992.780217,5362.668486
92.232514,-518.144159,8512.368333,6435.202183
92.232824,2146.597232,10140.821405,-1532.190996
92.233133,-3552.988522,15470.304188,-2681.334243
92.233442,-6143.709319,13471.748144,0.000000
92.233752,592.164754,11547.212695,-8733.488677
92.234061,4441.235652,11473.192101,-13406.671215
92.234371,-1332.370696,11621.233289,-3064.381992
92.234680,-1258.350101,11103.089130,6435.202183
92.234989,2442.679609,7179.997637,3447.429741
92.235299,2812.782580,5107.421000,3524.039291
92.235608,-4515.256246,5625.565159,8350.440928
92.235917,-3108.864956,5403.503377,4903.011187
92.236227,5625.565159,6587.832884,-9499.584175
92.236536,3034.844362,7402.059420,-9729.412825
92.236845,-2294.638420,10140.821405,306.438199
92.237155,-4219.173869,10807.006753,3983.696590
92.237464,888.247130,11399.171507,-2298.286494
92.237773,-1184.329507,10362.883188,-1378.971896
92.238083,-4441.235652,14434.015869,2145.067394
92.238392,-1036.288319,12879.583391,-4749.792088
92.238702,2516.700203,10288.862594,-12410.747068
92.239011,3034.844362,12139.377449,-6358.592633
92.239320,-3478.967927,11029.068536,2528.115143
92.239630,1924.535449,8438.347739,3447.429741
92.239939,1924.535449,5255.462188,1532.190996
92.240248,-2812.782580,7550.100608,2757.943793
92.240558,-4441.235652,6217.729913,2911.162892
92.240867,1924.535449,5625.565159,-8733.488677
92.241176,4515.256246,6809.894666,-12104.308868
92.241486,-592.164754,8956.491898,-1915.238745
92.241795,-3034.844362,9548.656652,6588.421283
92.242104,444.123565,9178.553681,3217.601092
92.242414,1036.288319,12287.418637,-229.828649
92.242723,-4737.318029,13619.789333,1225.752797
92.243032,-2294.638420,13693.809927,-1608.800546
92.243342,3849.070898,11695.253884,-12027.699319
92.243651,3849.070898,10955.047942,-9806.022374
92.243961,-2220.617826,11547.212695,1532.190996
92.244270,-0.000000,6957.935855,6205.373534
92.244579,4071.132681,5033.400406,919.314598
92.244889,-2442.679609,5551.544565,3677.258390
92.245198,-2886.803174,6809.894666,4979.620737
92.245507,814.226536,3627.009116,-4979.620737
92.245817,11473.192101,5699.585753,-13406.671215
92.246126,592.164754,8586.388927,-1838.629195
92.246435,-4441.235652,9474.636058,8733.488677
92.246745,2368.659014,9252.574275,5439.278036
92.247054,1332.370696,11251.130318,766.095498
92.247363,-3404.947333,14804.118840,1685.410096
92.247673,-3997.112087,14137.933492,-2911.162892
92.247982,5699.585753,14063.912898,-15092.081311
92.248292,3108.864956,12435.459826,-14019.547613
92.248601,-3923.091493,11843.295072,-1455.581446
92.248910,592.164754,9992.780217,6665.030833
92.249220,2738.761985,5477.523971,2068.457845
92.249529,-1776.494261,4219.173869,6665.030833
92.249838,-6513.812290,5255.462188,7737.564530
92.250148,1110.308913,6587.832884,-8350.440928
92.250457,7105.977043,5847.626942,-15475.129060
92.250766,2368.659014,9252.574275,-4596.572988
92.251076,-3701.029710,9252.574275,6435.202183
92.251385,-148.041188,8290.306550,5209.449386
92.251694,1036.288319,12213.398043,1762.019645
92.252004,-5181.441594,12509.480420,1685.410096
92.252313,-4219.173869,12065.356855,-4136.915689
92.252623,1776.494261,12657.521608,-12257.527968
92.252932,4293.194464,11177.109724,-11184.994271
92.253241,-962.267725,12805.562797,-3677.258390
92.253551,-296.082377,10584.944971,5669.106685
92.253860,-370.102971,8808.450710,5439.278036
92.254169,-1850.514855,7846.182985,5056.230287
92.254479,-3034.844362,5995.668130,1225.752797
92.254788,518.144159,6735.874072,-3983.696590
92.255097,7105.977043,7105.977043,-13636.499864
92.255407,3997.112087,7179.997637,-8503.660028
92.255716,-3775.050304,7698.141797,7507.735880
92.256025,-1332.370696,9696.697840,9652.803275
92.256335,2442.679609,9770.718434,1838.629195
92.256644,-1406.391290,10955.047942,1608.800546
92.256953,-5477.523971,13545.768739,536.266849
92.257263,-2072.576638,14804.118840,-8656.879127
92.257572,6143.709319,11621.233289,-16317.834107
92.257882,962.267725,10436.903782,-6435.202183
92.258191,-3923.091493,11621.233289,5515.887586
92.258500,1628.453072,9178.553681,6281.983084
92.258810,666.185348,6661.853478,6281.983084
92.259119,-4811.338623,8364.327145,5592.497135
92.259428,-148.041188,5329.482782,-1149.143247
92.259738,6291.750507,4589.276840,-13483.280765
92.260047,4737.318029,5699.585753,-8580.269578
92.260357,-1554.432478,7698.141797,4213.525239
92.260666,-2812.782580,9178.553681,8503.660028
92.260975,296.082377,11251.130318,4290.134789
92.261285,-666.185348,10658.965565,2374.896044
92.261594,-7846.182985,11769.274478,2145.067394
92.261904,296.082377,13545.768739,-8656.879127
92.262213,8142.265362,12657.521608,-17160.539155
92.262522,444.123565,12879.583391,-9116.536426
92.262832,-3256.906145,12435.459826,6511.811733
92.263141,-3182.885551,10288.862594,8656.879127
92.263451,2590.720797,6069.688724,1915.238745
92.263760,-1998.556043,7254.018232,2604.724693
92.264069,-4811.338623,8660.409521,766.095498
92.264379,4293.194464,5403.503377,-10342.289223
92.264688,7105.977043,4515.256246,-11797.870669
92.264998,-296.082377,8586.388927,842.705048
92.265307,-5625.565159,7920.203579,9729.412825
92.265616,2368.659014,8512.368333,4366.744339
92.265926,-1110.308913,8512.368333,459.657299
92.266235,-4885.359217,11251.130318,919.314598
92.266545,-2072.576638,12805.562797,-4673.182538
92.266854,5403.503377,12213.398043,-14325.985813
92.267163,3775.050304,13915.871710,-10495.508323
92.267473,-3552.988522,11843.295072,1225.752797
92.267782,-1258.350101,10807.006753,7660.954980
92.268092,1184.329507,8216.285956,3983.696590
92.268401,-1776.494261,7105.977043,2451.505594
92.268710,-4515.256246,7105.977043,4290.134789
92.269020,3182.885551,5921.647536,-5515.887586
92.269329,6735.874072,5107.421000,-11644.651570
92.269639,1110.308913,7254.018232,-1762.019645
92.269948,-3552.988522,7476.080014,7354.516781
92.270257,222.061783,5847.626942,6665.030833
92.270567,-148.041188,10436.903782,1838.629195
92.270876,-4219.173869,10510.924376,1762.019645
92.271186,-2368.659014,13841.851115,-3447.429741
92.271495,7105.977043,13323.706956,-16011.395908
92.271804,5181.441594,12435.459826,-12180.918418
92.272114,-2664.741391,13101.645173,536.266849
92.272423,-2072.576638,12953.603985,6128.763984
92.272733,1332.370696,7920.203579,2374.896044
92.273042,-1628.453072,8660.409521,1072.533697
92.273351,-4885.359217,7624.121203,2451.505594
92.273661,2664.741391,5995.668130,-6052.154434
92.273970,5625.565159,3775.050304,-11414.822920
92.274280,1036.288319,6143.709319,-5209.449386
92.274589,-4071.132681,7031.956449,6894.859482
92.274899,-1258.350101,7698.141797,4826.401637
92.275208,2886.803174,9400.615463,-612.876398
92.275517,-5033.400406,11695.253884,0.000000
92.275827,-3849.070898,13101.645173,-4136.915689
92.276136,4293.194464,10584.944971,-11031.775171
92.276446,3997.112087,14285.974681,-12870.404366
92.276755,-2146.597232,13989.892304,-1225.752797
92.277064,-2738.761985,9400.615463,5592.497135
92.277374,3775.050304,11473.192101,383.047749
92.277683,-962.267725,7402.059420,1072.533697
92.277993,-3330.926739,7698.141797,3600.648841
92.278302,-444.123565,6883.915261,-1915.238745
92.278611,4367.215058,5995.668130,-6971.469032
92.278921,3478.967927,7624.121203,-6665.030833
92.279230,-3256.906145,7328.038826,4136.915689
92.279540,-2368.659014,10288.862594,6205.373534
92.279849,2664.741391,10436.903782,995.924147
92.280158,-0.000000,10955.047942,-306.438199
92.280468,-4293.194464,11325.150913,-153.219100
92.280777,2442.679609,10658.965565,-4903.011187
92.281087,5625.565159,10510.924376,-10112.460574
92.281396,1406.391290,11473.192101,-4366.744339
92.281705,-3256.906145,10436.903782,7354.516781
92.282015,740.205942,8808.450710,5592.497135
92.282324,444.123565,8808.450710,-153.219100
92.282634,-1480.411884,8068.244768,536.266849
92.282943,-2960.823768,5107.421000,1685.410096
92.283252,3034.844362,6143.709319,-8120.612279
92.283562,4219.173869,8660.409521,-7584.345430
92.283871,-1480.411884,8438.347739,1685.410096
92.284181,-2664.741391,9178.553681,4903.011187
92.284490,592.164754,8882.471304,4060.306139
92.284799,-1258.350101,8808.450710,1455.581446
92.285109,-2442.679609,11325.150913,-229.828649
92.285418,962.267725,11769.274478,-7967.393179
92.285728,4441.235652,10362.883188,-8503.660028
92.286037,1702.473667,11325.150913,-6435.202183
92.286346,-4145.153275,11399.171507,3753.867940
92.286656,-0.000000,10066.800811,5975.544884
92.286965,1776.494261,7476.080014,1838.629195
92.287275,-1998.556043,8660.409521,2451.505594
92.287584,-2960.823768,9400.615463,-689.485948
92.287893,4071.132681,8068.244768,-8120.612279
92.288203,4737.318029,10066.800811,-12104.308868
92.288512,-1258.350101,9844.739029,-1762.019645
92.288822,-3404.947333,9474.636058,8120.612279
92.289131,1554.432478,9844.739029,2757.943793
92.289440,-222.061783,9622.677246,0.000000
92.289750,-4959.379811,9992.780217,3524.039291
92.290059,-1850.514855,10658.965565,-2987.772442
92.290369,6661.853478,10362.883188,-13023.623466
92.290678,1998.556043,9844.739029,-9806.022374
92.290988,-3478.967927,10955.047942,689.485948
92.291297,-2294.638420,8808.450710,3677.258390
92.291606,1776.494261,9622.677246,-76.609550
92.291916,-1998.556043,7476.080014,2681.334243
92.292225,-2664.741391,6957.935855,2834.553343
92.292535,2516.700203,6661.853478,-4443.353888
92.292844,3849.070898,6217.729913,-7201.297681
92.293153,888.247130,8142.265362,-3140.991542
92.293463,-1036.288319,8512.368333,2145.067394
92.293772,444.123565,11251.130318,1685.410096
92.294082,-1184.329507,11325.150913,2681.334243
92.294391,-3478.967927,11325.150913,8120.612279
92.294700,-592.164754,12361.439231,-3370.820191
92.295010,4219.173869,9844.739029,-10495.508323
92.295319,1776.494261,10955.047942,-8120.612279
92.295629,-2516.700203,9992.780217,0.000000
92.295938,-1850.514855,9770.718434,1915.238745
92.296247,1924.535449,8882.471304,229.828649
92.296557,-2220.617826,8216.285956,2451.505594
92.296866,-3182.885551,9622.677246,2911.162892
92.297176,-444.123565,8734.430116,-3447.429741
92.297485,4589.276840,7846.182985,-10035.851024
92.297794,-0.000000,9326.594869,-2528.115143
92.298104,-1184.329507,9474.636058,3217.601092
92.298413,-0.000000,7994.224174,2451.505594
92.298723,1332.370696,6217.729913,3294.210641
92.299032,-4293.194464,9844.739029,2528.115143
92.299341,-1702.473667,10807.006753,-3753.867940
92.299651,2294.638420,12361.439231,-10878.556072
92.299960,2072.576638,12731.542202,-12870.404366
92.300270,-518.144159,11917.315666,-3677.258390
92.300579,-1258.350101,8808.450710,2298.286494
92.300888,2072.576638,7772.162391,4366.744339
92.301198,-888.247130,6957.935855,4979.620737
92.301507,-3701.029710,7772.162391,995.924147
92.301817,-1332.370696,8438.347739,-2221.676944
92.302126,5329.482782,7846.182985,-11644.651570
92.302435,4293.194464,8586.388927,-9652.803275
92.302745,-3552.988522,10288.862594,459.657299
92.303054,-222.061783,8808.450710,4903.011187
92.303364,740.205942,9474.636058,2681.334243
92.303673,-1924.535449,9992.780217,2604.724693
92.303982,-4145.153275,9696.697840,842.705048
92.304292,3330.926739,6883.915261,-9193.145976
92.304601,5773.606348,9474.636058,-11491.432470
92.304911,2220.617826,10955.047942,-3064.381992
92.305220,-3034.844362,10881.027347,4979.620737
92.305529,1184.329507,8734.430116,5132.839837
92.305839,296.082377,8290.306550,6511.811733
92.306148,-3256.906145,9474.636058,2451.505594
92.306458,-1480.411884,8586.388927,-2987.772442
92.306767,2812.782580,7994.224174,-8733.488677
92.307077,4441.235652,9548.656652,-7584.345430
92.307386,-1776.494261,9622.677246,-1455.581446
92.307695,-1702.473667,10140.821405,3983.696590
92.308005,-888.247130,10510.924376,5439.278036
92.308314,-4441.235652,10066.800811,4136.915689
92.308624,-3034.844362,11399.171507,-4060.306139
92.308933,2294.638420,10288.862594,-11338.213370
92.309242,5329.482782,9400.615463,-13406.671215
92.309552,518.144159,10066.800811,-4213.525239
92.309861,-1628.453072,9622.677246,4826.401637
92.310171,370.102971,6957.935855,6818.249932
92.310480,592.164754,6661.853478,6665.030833
92.310789,-2516.700203,9030.512492,3983.696590
92.311099,-4071.132681,9992.780217,-3140.991542
92.311408,7179.997637,9770.718434,-15092.081311
92.311718,4293.194464,10214.842000,-15398.519510
92.312027,-1554.432478,10955.047942,-4290.134789
92.312336,-2368.659014,10510.924376,5822.325785
92.312646,518.144159,9178.553681,5515.887586
92.312955,592.164754,9326.594869,5898.935335
92.313265,-5255.462188,10955.047942,4366.744339
92.313574,-1480.411884,10140.821405,-4366.744339
92.313883,6809.894666,10140.821405,-14862.252661
92.314193,4145.153275,10066.800811,-12487.356617
92.314502,-1924.535449,10584.944971,-306.438199
92.314812,-1184.329507,8586.388927,7354.516781
92.315121,370.102971,7994.224174,6205.373534
92.315430,-814.226536,6217.729913,4979.620737
92.315740,-3256.906145,5625.565159,3677.258390
92.316049,1554.432478,4663.297435,-4519.963438
92.316359,6957.935855,6587.832884,-11031.775171
92.316668,3034.844362,9696.697840,-5515.887586
92.316977,-3849.070898,11843.295072,3447.429741
92.317287,-4145.153275,12953.603985,6588.421283
92.317596,-2590.720797,11843.295072,2911.162892
92.317906,-2886.803174,13545.768739,153.219100
92.318215,-1332.370696,14137.933492,-7124.688131
92.318524,3478.967927,9622.677246,-14709.033562
92.318834,3034.844362,9918.759623,-9039.926876
92.319143,-1184.329507,8808.450710,2145.067394
92.319453,-0.000000,6439.791695,5439.278036
92.319762,2072.576638,7031.956449,4749.792088
92.320071,-3701.029710,8586.388927,11261.603821
92.320381,-2516.700203,7254.018232,4290.134789
92.320690,3701.029710,6957.935855,-10648.727422
92.321000,5329.482782,7105.977043,-14785.643111
92.321309,592.164754,9844.739029,-4290.134789
92.321618,-4737.318029,10436.903782,4749.792088
92.321928,-888.247130,11843.295072,3140.991542
92.322237,1554.432478,11029.068536,2911.162892
92.322547,-3627.009116,14211.954086,689.485948
92.322856,-1702.473667,11843.295072,-5515.887586
92.323166,3849.070898,11769.274478,-12257.527968
92.323475,4663.297435,9992.780217,-11261.603821
92.323784,-0.000000,9474.636058,-1072.533697
92.324094,-2146.597232,7105.977043,6971.469032
92.324403,1184.329507,5033.400406,9039.926876
92.324713,444.123565,5477.523971,6281.983084
92.325022,-1998.556043,7105.977043,2911.162892
92.325331,222.061783,7105.977043,-5286.058936
92.325641,4293.194464,6513.812290,-13559.890315
92.325950,-0.000000,10881.027347,-7814.174080
92.326260,-1850.514855,11695.253884,-995.924147
92.326569,-1702.473667,11769.274478,2145.067394
92.326878,-1924.535449,12435.459826,3907.087040
92.327188,-4367.215058,12583.501014,2757.943793
92.327497,-518.144159,12213.398043,-3140.991542
92.327807,3182.885551,9770.718434,-9806.022374
92.328116,4663.297435,8142.265362,-9729.412825
92.328425,2220.617826,8882.471304,-2374.896044
92.328735,-518.144159,6291.750507,5975.544884
92.329044,1036.288319,7624.121203,8197.221829
92.329354,-1850.514855,7105.977043,5898.935335
92.329663,-2072.576638,6809.894666,995.924147
92.329972,-1924.535449,7179.997637,-5132.839837
92.330282,2516.700203,7254.018232,-10955.165621
92.330591,2960.823768,10066.800811,-9499.584175
92.330901,-2072.576638,12805.562797,-459.657299
92.331210,-2812.782580,13323.706956,4290.134789
92.331519,296.082377,12139.377449,3140.991542
92.331829,-1332.370696,11769.274478,1532.190996
92.332138,-1702.473667,12731.542202,-459.657299
92.332448,2664.741391,9030.512492,-7814.174080
92.332757,5033.400406,7402.059420,-11414.822920
92.333066,-74.020594,7179.997637,-2987.772442
92.333376,-3478.967927,7105.977043,5592.497135
92.333685,-2072.576638,6291.750507,5592.497135
92.333995,814.226536,5773.606348,1915.238745
92.334304,-2294.638420,8956.491898,0.000000
92.334613,-2220.617826,9030.512492,-2374.896044
92.334923,2960.823768,9548.656652,-8810.098227
92.335232,2072.576638,9400.615463,-9806.022374
92.335542,888.247130,11769.274478,-3064.381992
92.335851,-2738.761985,12435.459826,2604.724693
92.336160,148.041188,11621.233289,4826.401637
92.336470,888.247130,11843.295072,4213.525239
92.336779,-4071.132681,11769.274478,689.485948
92.337089,2368.659014,13323.706956,-6511.811733
92.337398,3923.091493,8142.265362,-11031.775171
92.337707,1332.370696,8142.265362,-7967.393179
92.338017,-518.144159,8956.491898,1455.581446
92.338326,-2590.720797,7846.182985,3524.039291
92.338636,666.185348,7179.997637,2604.724693
92.338945,148.041188,5107.421000,3524.039291
92.339255,-3256.906145,7698.141797,3370.820191
92.339564,1776.494261,5699.585753,-2681.334243
92.339873,7254.018232,7105.977043,-8197.221829
92.340183,1628.453072,11177.109724,-3217.601092
92.340492,-4663.297435,11029.068536,5592.497135
92.340802,-2072.576638,11843.295072,5898.935335
92.341111,-1406.391290,11843.295072,1302.362347
92.341420,-1110.308913,12805.562797,-3140.991542
92.341730,-296.082377,13619.789333,-6511.811733
92.342039,1110.308913,10584.944971,-9652.803275
92.342349,888.247130,9474.636058,-5669.106685
92.342658,-1554.432478,10584.944971,-842.705048
92.342967,-2368.659014,7994.224174,1685.410096
92.343277,1258.350101,6439.791695,4136.915689
92.343586,296.082377,4515.256246,5286.058936
92.343896,-814.226536,6513.812290,1838.629195
92.344205,1258.350101,4663.297435,-1991.848295
92.344514,2886.803174,7031.956449,-5975.544884
92.344824,2220.617826,8068.244768,-4290.134789
92.345133,-1258.350101,9252.574275,1302.362347
92.345443,-2664.741391,11103.089130,4519.963438
92.345752,-1110.308913,10436.903782,3524.039291
92.346061,-1776.494261,13545.768739,-2451.505594
92.346371,-3182.885551,13027.624579,-5592.497135
92.346680,444.123565,14359.995275,-10648.727422
92.346990,3997.112087,12509.480420,-12487.356617
92.347299,-814.226536,13619.789333,-3370.820191
92.347608,-962.267725,10955.047942,4673.182538
92.347918,1776.494261,9474.636058,3983.696590
92.348227,2516.700203,4663.297435,3983.696590
92.348537,-1998.556043,5477.523971,6894.859482
92.348846,-296.082377,6587.832884,1991.848295
92.349155,4959.379811,4959.379811,-11108.384721
92.349465,3775.050304,5329.482782,-9959.241474
92.349774,-1924.535449,8586.388927,2221.676944
92.350084,-3478.967927,10732.986159,4060.306139
92.350393,-0.000000,11177.109724,-2298.286494
92.350702,-2516.700203,10807.006753,766.095498
92.351012,-4145.153275,13471.748144,1225.752797
92.351321,1850.514855,11621.233289,-8886.707777
92.351631,4663.297435,9770.718434,-11184.994271
92.351940,370.102971,10510.924376,-2451.505594
92.352249,-2220.617826,10510.924376,4749.792088
92.352559,2220.617826,8660.409521,4136.915689
92.352868,2072.576638,6365.771101,3294.210641
92.353178,-3701.029710,7920.203579,6741.640382
92.353487,-2220.617826,5921.647536,1225.752797
92.353796,3627.009116,5551.544565,-9499.584175
92.354106,3627.009116,6957.935855,-8963.317327
92.354415,-1554.432478,11621.233289,-1149.143247
92.354725,-2220.617826,11029.068536,1455.581446
92.355034,-1406.391290,10732.986159,766.095498
92.355344,-1480.411884,13471.748144,2834.553343
92.355653,-2886.803174,12657.521608,-1991.848295
92.355962,1480.411884,14285.974681,-7277.907231
92.356272,3330.926739,11251.130318,-11338.213370
92.356581,1406.391290,9770.718434,-3370.820191
92.356891,444.123565,10658.965565,2068.457845
92.357200,2220.617826,10584.944971,919.314598
92.357509,-148.041188,6883.915261,4519.963438
92.357819,-2516.700203,6069.688724,7431.126331
92.358128,-1998.556043,7550.100608,-919.314598
92.358438,1998.556043,7031.956449,-9806.022374
92.358747,1406.391290,7179.997637,-8656.879127
92.359057,-814.226536,8142.265362,-2911.162892
92.359366,-1702.473667,8586.388927,689.485948
92.359676,814.226536,11621.233289,2068.457845
92.359985,-4071.132681,11029.068536,9116.536426
92.360295,-4737.318029,13619.789333,4136.915689
92.360604,-74.020594,12879.583391,-2298.286494
92.360914,4515.256246,11769.274478,-12180.918418
92.361223,4219.173869,9844.739029,-9882.631924
92.361533,-2738.761985,10066.800811,766.095498
92.361842,-1998.556043,8438.347739,3830.477490
92.362152,3182.885551,7105.977043,1838.629195
92.362461,-1406.391290,5921.647536,5745.716235
92.362771,-3923.091493,6143.709319,7431.126331
92.363080,2146.597232,6365.771101,-4826.401637
92.363390,5921.647536,6439.791695,-12027.699319
92.363699,2146.597232,8808.450710,-3140.991542
92.364009,-222.061783,11325.150913,3753.867940
92.364318,-2812.782580,12213.398043,2528.115143
92.364628,-518.144159,12509.480420,5209.449386
92.364937,-2442.679609,12731.542202,4060.306139
92.365247,-1554.432478,13545.768739,-4673.182538
92.365556,1036.288319,13693.809927,-11338.213370
92.365866,2146.597232,9992.780217,-8350.440928
92.366175,888.247130,11399.171507,-3524.039291
92.366485,-222.061783,9844.739029,842.705048
92.366794,-1036.288319,8808.450710,3140.991542
92.367104,-2664.741391,2960.823768,11184.994271
92.367413,-3552.988522,5773.606348,5669.106685
92.367723,2960.823768,5699.585753,-5362.668486
92.368032,3627.009116,4293.194464,-10648.727422
92.368342,814.226536,6513.812290,-3447.429741
92.368651,-2960.823768,8512.368333,4443.353888
92.368961,814.226536,11547.212695,2451.505594
92.369270,1110.308913,11991.336260,1225.752797
92.369580,-5551.544565,14063.912898,3524.039291
92.369889,-2220.617826,13101.645173,-2834.553343
92.370199,4959.379811,14137.933492,-16700.881856
92.370508,1628.453072,12657.521608,-13789.718964
92.370818,-2960.823768,11991.336260,-536.266849
92.371127,148.041188,9474.636058,1378.971896
92.371437,1036.288319,9696.697840,-2834.553343
92.371746,-1258.350101,7994.224174,8044.002729
92.372056,-4071.132681,6439.791695,9193.145976
92.372365,3627.009116,7328.038826,-5209.449386
92.372675,5181.441594,6143.709319,-12870.404366
92.372984,2960.823768,5255.462188,-6511.811733
92.373294,370.102971,7402.059420,1072.533697
92.373603,-1036.288319,10362.883188,3217.601092
92.373913,-888.247130,10066.800811,6052.154434
92.374222,-2368.659014,10732.986159,7507.735880
92.374532,-1110.308913,11547.212695,-1991.848295
92.374841,-0.000000,11399.171507,-9499.584175
92.375151,1850.514855,10510.924376,-11031.775171
92.375460,2146.597232,10807.006753,-7201.297681
92.375770,-1776.494261,13101.645173,1685.410096
92.376079,-148.041188,10807.006753,5822.325785
92.376389,-1258.350101,7031.956449,5515.887586
92.376698,-1850.514855,7550.100608,4136.915689
92.377008,-666.185348,6069.688724,-306.438199
92.377317,2960.823768,6143.709319,-8197.221829
92.377627,3552.988522,5921.647536,-8350.440928
92.377936,-740.205942,8364.327145,766.095498
92.378246,-370.102971,9992.780217,3907.087040
92.378555,-592.164754,11029.068536,3907.087040
92.378865,-2072.576638,12139.377449,3907.087040
92.379174,-2368.659014,11843.295072,2068.457845
92.379484,1924.535449,12583.501014,-10035.851024
92.379793,5033.400406,10955.047942,-14019.547613
92.380103,-1850.514855,10510.924376,-2911.162892
92.380412,-2368.659014,11695.253884,3677.258390
92.380722,1332.370696,9104.533087,459.657299
92.381031,222.061783,8660.409521,1455.581446
92.381341,-5625.565159,8438.347739,8810.098227
92.381650,-814.226536,7772.162391,0.000000
92.381960,3997.112087,8068.244768,-13100.233016
92.382269,2442.679609,8216.285956,-11568.042020
92.382579,-444.123565,7476.080014,1149.143247
92.382888,-2220.617826,6069.688724,6511.811733
92.383198,-370.102971,9030.512492,2834.553343
92.383507,-962.267725,10362.883188,5362.668486
92.383817,-2072.576638,10436.903782,2681.334243
92.384126,814.226536,12953.603985,-6818.249932
92.384436,3034.844362,11029.068536,-12793.794817
92.384745,444.123565,9992.780217,-6511.811733
92.385055,-666.185348,11547.212695,-153.219100
92.385364,-1036.288319,10658.965565,1838.629195
92.385674,-1924.535449,9474.636058,2298.286494
92.385983,-1554.432478,7105.977043,5132.839837
92.386293,-1924.535449,8660.409521,1838.629195
92.386602,2294.638420,6809.894666,-5898.935335
92.386912,2146.597232,4737.318029,-8197.221829
92.387221,666.185348,8882.471304,0.000000
92.387531,-444.123565,8734.430116,4519.963438
92.387840,-148.041188,9844.739029,3064.381992
92.388150,-3404.947333,9548.656652,3753.867940
92.388459,-3404.947333,10214.842000,4519.963438
92.388769,1036.288319,12509.480420,-5439.278036
92.389078,3182.885551,11769.274478,-14479.204912
92.389388,1258.350101,12361.439231,-9346.365076
92.389697,-2516.700203,12435.459826,1608.800546
92.390007,-0.000000,10140.821405,-383.047749
92.390316,1184.329507,9178.553681,-153.219100
92.390626,-2072.576638,5847.626942,5209.449386
92.390935,-2812.782580,7402.059420,5056.230287
92.391245,3627.009116,5625.565159,-7890.783629
92.391554,4071.132681,3997.112087,-10801.946522
92.391864,-1628.453072,7105.977043,383.047749
92.392173,-1480.411884,10066.800811,5209.449386
92.392483,-0.000000,10288.862594,-459.657299
92.392792,2664.741391,9252.574275,4903.011187
92.393102,-4071.132681,11177.109724,2757.943793
92.393411,-2590.720797,12509.480420,-4596.572988
92.393721,3849.070898,11843.295072,-12793.794817
92.394030,666.185348,10510.924376,-9193.145976
92.394340,-1924.535449,12361.439231,459.657299
92.394649,-148.041188,11769.274478,2987.772442
92.394959,1702.473667,9474.636058,612.876398
92.395268,-370.102971,7772.162391,3677.258390
92.395578,-1776.494261,7772.162391,4213.525239
92.395887,-888.247130,6069.688724,-3524.039291
92.396197,3552.988522,6587.832884,-10342.289223
92.396507,4145.153275,7846.182985,-6665.030833
92.396816,-3330.926739,9030.512492,3140.991542
92.397126,-1406.391290,9474.636058,5362.668486
92.397435,148.041188,9252.574275,0.000000
92.397745,-370.102971,10807.006753,153.219100
92.398054,-3034.844362,11177.109724,2528.115143
92.398364,1480.411884,13027.624579,-7277.907231
92.398673,4145.153275,10732.986159,-11797.870669
92.398983,-370.102971,11325.150913,-2604.724693
92.399292,-2294.638420,11769.274478,5132.839837
92.399602,1480.411884,9918.759623,1608.800546
92.399911,2368.659014,8364.327145,-383.047749
92.400221,-2590.720797,5551.544565,5439.278036
92.400530,-962.267725,5921.647536,-612.876398
92.400840,4071.132681,5699.585753,-8810.098227
92.401149,1258.350101,5921.647536,-4903.011187
92.401459,-2442.679609,9104.533087,2528.115143
92.401768,-888.247130,11473.192101,689.485948
92.402078,888.247130,10436.903782,-1685.410096
92.402387,-2590.720797,9474.636058,2145.067394
92.402697,-3849.070898,11843.295072,919.314598
92.403006,1850.514855,11917.315666,-8886.707777
92.403316,4589.276840,10955.047942,-12257.527968
92.403625,-740.205942,9844.739029,-2451.505594
92.403935,-1702.473667,10066.800811,6052.154434
92.404244,-0.000000,8734.430116,3983.696590
92.404554,1332.370696,6809.894666,689.485948
92.404863,-2072.576638,6513.812290,4519.963438
92.405173,-3552.988522,7328.038826,306.438199
92.405482,2368.659014,9474.636058,-10725.336972
92.405792,4737.318029,6661.853478,-12334.137518
92.406101,-2738.761985,10955.047942,-1302.362347
92.406411,-2072.576638,10955.047942,4290.134789
92.406720,1776.494261,9918.759623,153.219100
92.407030,-370.102971,9622.677246,2451.505594
92.407339,-2960.823768,11843.295072,5209.449386
92.407649,-814.226536,11917.315666,-1608.800546
92.407958,5477.523971,10288.862594,-11491.432470
92.408268,814.226536,10214.842000,-6971.469032
92.408577,-2368.659014,9326.594869,2834.553343
92.408887,518.144159,10732.986159,919.314598
92.409196,1850.514855,8290.306550,-689.485948
92.409506,-1776.494261,6661.853478,3907.087040
92.409815,-3108.864956,6217.729913,4136.915689
92.410125,1110.308913,6217.729913,-4596.572988
92.410434,2738.761985,6957.935855,-8886.707777
92.410744,666.185348,8068.244768,-1762.019645
92.411053,-1924.535449,9918.759623,2987.772442
92.411363,740.205942,9918.759623,3140.991542
92.411672,-0.000000,10436.903782,1608.800546
92.411982,-3997.112087,10732.986159,2911.162892
92.412291,-0.000000,11547.212695,-1838.629195
92.412601,2960.823768,10362.883188,-10955.165621
92.412910,-740.205942,12509.480420,-9806.022374
92.413220,-3108.864956,9770.718434,842.705048
92.413529,-1628.453072,8882.471304,1991.848295
92.413839,2738.761985,10955.047942,-2451.505594
92.414148,-666.185348,7920.203579,-612.876398
92.414458,-3478.967927,8364.327145,4903.011187
92.414767,1554.432478,6883.915261,-4443.353888
92.415077,5181.441594,6365.771101,-11261.603821
92.415386,-814.226536,7328.038826,-2298.286494
92.415696,-370.102971,8882.471304,4213.525239
92.416005,1036.288319,11103.089130,153.219100
92.416315,2072.576638,10362.883188,-229.828649
92.416624,-3627.009116,11177.109724,4060.306139
92.416934,-2886.803174,13767.830521,-612.876398
92.417243,3997.112087,11547.212695,-12793.794817
92.417553,444.123565,11399.171507,-13023.623466
92.417862,-1406.391290,10658.965565,-2834.553343
92.418172,-148.041188,10288.862594,1838.629195
92.418481,666.185348,8956.491898,1072.533697
92.418791,-222.061783,7772.162391,4826.401637
92.419100,-3256.906145,5847.626942,8503.660028
92.419410,-0.000000,7994.224174,612.876398
92.419719,4885.359217,7254.018232,-10035.851024
92.420029,962.267725,7846.182985,-9959.241474
92.420338,-3330.926739,9326.594869,1532.190996
92.420648,-296.082377,12139.377449,2911.162892
92.420957,1850.514855,9844.739029,-2374.896044
92.421267,-5107.421000,9178.553681,1838.629195
92.421576,-3701.029710,10881.027347,5056.230287
92.421886,1184.329507,9326.594869,-7660.954980
92.422195,5699.585753,9474.636058,-13559.890315
92.422505,-0.000000,9844.739029,-1915.238745
92.422814,-3256.906145,8882.471304,4903.011187
92.423124,1110.308913,7698.141797,1838.629195
92.423433,1480.411884,8956.491898,2604.724693
92.423743,-2590.720797,7772.162391,6358.592633
92.424052,-2072.576638,7328.038826,1072.533697
92.424362,3775.050304,6883.915261,-7124.688131
92.424671,1480.411884,5551.544565,-7967.393179
92.424981,-370.102971,11843.295072,-1302.362347
92.425290,-1406.391290,11325.150913,1225.752797
92.425600,962.267725,11177.109724,-1838.629195
92.425909,-1258.350101,11325.150913,2068.457845
92.426219,-5033.400406,10362.883188,3907.087040
92.426528,1184.329507,10807.006753,-5515.887586
92.426838,2886.803174,9030.512492,-12947.013916
92.427147,1332.370696,9326.594869,-4596.572988
92.427457,222.061783,9178.553681,3677.258390
92.427766,370.102971,9400.615463,3294.210641
92.428076,2368.659014,7550.100608,2451.505594
92.428385,-2072.576638,4885.359217,6281.983084
92.428695,-2146.597232,9844.739029,2451.505594
92.429004,1480.411884,7476.080014,-8810.098227
92.429314,3404.947333,9326.594869,-11568.042020
92.429623,-888.247130,11325.150913,-4290.134789
92.429933,-148.041188,10288.862594,3524.039291
92.430242,-0.000000,11399.171507,1149.143247
92.430552,-1850.514855,11843.295072,2681.334243
92.430861,-2960.823768,12657.521608,4136.915689
92.431171,-814.226536,10510.924376,-4060.306139
92.431480,3775.050304,10807.006753,-14402.595362
92.431790,3034.844362,9030.512492,-7737.564530
92.432099,-1406.391290,9622.677246,1685.410096
92.432409,1480.411884,9252.574275,4213.525239
92.432718,1110.308913,6513.812290,3524.039291
92.433028,-3034.844362,5773.606348,6511.811733
92.433337,-2664.741391,6291.750507,6358.592633
92.433647,3552.988522,7254.018232,-7201.297681
92.433956,3552.988522,6661.853478,-12947.013916
92.434266,148.041188,6883.915261,-4060.306139
92.434575,-2738.761985,12213.398043,4290.134789
92.434885,-148.041188,12879.583391,1225.752797
92.435194,518.144159,13249.686362,1915.238745
92.435504,-4589.276840,11621.233289,4826.401637
92.435813,-1924.535449,11843.295072,-2911.162892
92.436123,4145.153275,11251.130318,-12793.794817
92.436432,2738.761985,7105.977043,-9959.241474
92.436742,-1406.391290,8438.347739,3064.381992
92.437051,-5329.482782,11843.295072,7584.345430
92.437361,888.247130,8142.265362,1608.800546
92.437670,-1258.350101,5773.606348,4366.744339
92.437980,-2960.823768,4885.359217,4060.306139
92.438290,1702.473667,5625.565159,-6894.859482
92.438599,2590.720797,6069.688724,-9116.536426
92.438909,-296.082377,10362.883188,-2528.115143
92.439218,-2146.597232,11843.295072,4060.306139
92.439528,296.082377,12583.501014,1225.752797
92.439837,370.102971,11917.315666,-76.609550
92.440147,-4293.194464,14434.015869,1915.238745
92.440456,-2886.803174,14804.118840,-2604.724693
92.440766,2738.761985,12213.398043,-12640.575717
92.441075,4885.359217,10066.800811,-13636.499864
92.441385,-1406.391290,11695.253884,1685.410096
92.441694,-296.082377,9178.553681,8427.050478
92.442004,518.144159,5921.647536,4673.182538
92.442313,222.061783,6365.771101,4673.182538
92.442623,-2960.823768,4589.276840,5669.106685
92.442932,666.185348,5551.544565,-3524.039291
92.443242,3849.070898,9252.574275,-12793.794817
92.443551,1554.432478,9252.574275,-8733.488677
92.443861,-1850.514855,13175.665768,1072.533697
92.444170,-1184.329507,13249.686362,-1455.581446
92.444480,1110.308913,11251.130318,689.485948
92.444789,-2146.597232,11251.130318,1762.019645
92.445099,-2664.741391,10436.903782,766.095498
92.445408,3256.906145,9252.574275,-7354.516781
92.445718,2664.741391,4663.297435,-10495.508323
92.446027,-1036.288319,8660.409521,-153.219100
92.446337,-1110.308913,7254.018232,6281.983084
92.446646,962.267725,8216.285956,2374.896044
92.446956,444.123565,7254.018232,2068.457845
92.447265,-3404.947333,5847.626942,5592.497135
92.447575,-518.144159,7328.038826,0.000000
92.447884,4219.173869,8364.327145,-9806.022374
92.448194,3108.864956,9104.533087,-7967.393179
92.448503,-4145.153275,10362.883188,2221.676944
92.448813,-1258.350101,14359.995275,4060.306139
92.449122,518.144159,15248.242405,229.828649
92.449432,-518.144159,12065.356855,0.000000
92.449741,-2442.679609,14285.974681,-995.924147
92.450051,592.164754,11843.295072,-7354.516781
92.450360,3552.988522,8290.306550,-11184.994271
92.450670,-1850.514855,8512.368333,-1302.362347
92.450979,-962.267725,7772.162391,6741.640382
92.451289,592.164754,7031.956449,3907.087040
92.451598,2664.741391,5329.482782,1455.581446
92.451908,-1332.370696,5033.400406,4290.134789
92.452217,-2368.659014,5921.647536,-229.828649
92.452527,2294.638420,9030.512492,-9499.584175
92.452836,4367.215058,9844.739029,-13866.328514
92.453146,-3034.844362,11325.150913,-1302.362347
92.453455,-0.000000,12139.377449,2681.334243
92.453765,1036.288319,13915.871710,153.219100
92.454074,-0.000000,11473.192101,612.876398
92.454384,-3034.844362,11029.068536,2987.772442
92.454693,-1406.391290,13175.665768,-3294.210641
92.455003,5033.400406,10510.924376,-13483.280765
92.455312,1036.288319,8068.244768,-8427.050478
92.455622,-3701.029710,8290.306550,3830.477490
92.455931,-444.123565,8734.430116,3983.696590
92.456241,2886.803174,7254.018232,459.657299
92.456550,-1776.494261,4589.276840,4136.915689
92.456860,-2590.720797,4293.194464,5209.449386
92.457169,3552.988522,7402.059420,-5362.668486
92.457479,6143.709319,7328.038826,-9116.536426
92.457788,1036.288319,9252.574275,-1378.971896
92.458098,-3108.864956,13323.706956,6052.154434
92.458407,1406.391290,12731.542202,766.095498
92.458717,-592.164754,12953.603985,-1915.238745
92.459026,-5699.585753,12139.377449,919.314598
92.459336,-2812.782580,12953.603985,-1072.533697
92.459645,1702.473667,11399.171507,-11414.822920
92.459955,2590.720797,9400.615463,-11644.651570
92.460264,-2442.679609,10732.986159,459.657299
92.460574,-2590.720797,9992.780217,5209.449386
92.460877,2220.617826,8660.409521,536.266849
92.461187,1332.370696,3552.988522,2068.457845
92.461496,-2220.617826,4145.153275,6358.592633
92.461805,-518.144159,4367.215058,612.876398
92.462115,4959.379811,6291.750507,-7507.735880
92.462424,2368.659014,8438.347739,-5286.058936
92.462733,-2590.720797,9844.739029,4903.011187
92.463043,148.041188,10510.924376,4290.134789
92.463352,444.123565,13397.727550,-2298.286494
92.463662,-3404.947333,13767.830521,-2987.772442
92.463971,-3256.906145,12583.501014,-2604.724693
92.464280,1924.535449,13249.686362,-7431.126331
92.464590,2738.761985,12361.439231,-12640.575717
92.464899,518.144159,12139.377449,-2604.724693
92.465209,-814.226536,10807.006753,3370.820191
92.465518,2590.720797,6291.750507,-842.705048
92.465827,666.185348,5033.400406,3983.696590
92.466137,-1924.535449,3256.906145,7354.516781
92.466446,1110.308913,6069.688724,1072.533697
92.466755,2368.659014,4737.318029,-7507.735880
92.467065,-0.000000,7994.224174,-6818.249932
92.467374,-888.247130,9474.636058,229.828649
92.467684,-2738.761985,9622.677246,2374.896044
92.467993,-518.144159,13619.789333,0.000000
92.468302,-1258.350101,10955.047942,-612.876398
92.468612,-3108.864956,16506.592507,-612.876398
92.468921,-518.144159,13101.645173,-5515.887586
92.469231,4071.132681,11029.068536,-10265.679673
92.469540,1554.432478,9030.512492,-4749.792088
92.469849,-888.247130,10214.842000,4136.915689
92.470159,2294.638420,8364.327145,5209.449386
92.470468,3849.070898,3849.070898,2757.943793
92.470777,-370.102971,3701.029710,7967.393179
92.471087,-4515.256246,5255.462188,5592.497135
92.471396,4663.297435,4663.297435,-7124.688131
92.471706,2886.803174,5995.668130,-10035.851024
92.472015,-2738.761985,10732.986159,-1225.752797
92.472324,-1702.473667,11843.295072,1838.629195
92.472634,740.205942,13693.809927,-3524.039291
92.472943,-1332.370696,15322.262999,-383.047749
92.473253,-4811.338623,12731.542202,2374.896044
92.473562,1998.556043,12953.603985,-5286.058936
92.473871,4293.194464,10732.986159,-11031.775171
92.474181,1924.535449,11177.109724,-5286.058936
92.474490,-1554.432478,7402.059420,4213.525239
92.474799,1480.411884,6735.874072,3907.087040
92.475109,2886.803174,6143.709319,1302.362347
92.475418,-2368.659014,3552.988522,3983.696590
92.475728,-3627.009116,4737.318029,1608.800546
92.476037,962.267725,5699.585753,-6818.249932
92.476346,4219.173869,9474.636058,-12104.308868
92.476656,-444.123565,10288.862594,-4903.011187
92.476965,-888.247130,12879.583391,-536.266849
92.477274,-518.144159,12953.603985,766.095498
92.477584,-888.247130,12287.418637,1685.410096
92.477893,-2812.782580,12731.542202,3140.991542
92.478203,-222.061783,11103.089130,-2298.286494
92.478512,6069.688724,12139.377449,-10189.070123
92.478821,2146.597232,9844.739029,-8656.879127
92.479131,-1776.494261,8808.450710,1149.143247
92.479440,-74.020594,9548.656652,2987.772442
92.479750,2886.803174,5107.421000,-536.266849
92.480059,-2072.576638,5107.421000,3524.039291
92.480368,-4441.235652,4367.215058,6281.983084
92.480678,2812.782580,4663.297435,-4213.525239
92.480987,5921.647536,5625.565159,-11338.213370
92.481296,-148.041188,9918.759623,-2221.676944
92.481606,-3923.091493,9696.697840,6741.640382
92.481915,1850.514855,12731.542202,3753.867940
92.482225,1702.473667,14063.912898,-689.485948
92.482534,-4219.173869,14582.057057,2604.724693
92.482843,-962.267725,12731.542202,-1991.848295
92.483153,2960.823768,13175.665768,-12640.575717
92.483462,2294.638420,11399.171507,-12870.404366
92.483772,-1628.453072,10362.883188,-459.657299
92.484081,-3256.906145,9992.780217,6281.983084
92.484390,814.226536,7179.997637,919.314598
92.484700,-1332.370696,6439.791695,3217.601092
92.485009,-2738.761985,3627.009116,5132.839837
92.485318,1628.453072,4145.153275,-4443.353888
92.485628,3849.070898,5699.585753,-12410.747068
92.485937,2664.741391,6069.688724,-3524.039291
92.486247,-2516.700203,9326.594869,4749.792088
92.486556,-74.020594,11695.253884,5669.106685
92.486865,2220.617826,11325.150913,2451.505594
92.487175,-6069.688724,15396.283594,-229.828649
92.487484,-2590.720797,13545.768739,-5286.058936
92.487794,1332.370696,12435.459826,-12563.966167
92.488103,1184.329507,13175.665768,-14249.376263
92.488412,-0.000000,12657.521608,-3677.258390
92.488722,-518.144159,12805.562797,3447.429741
92.489031,1036.288319,10140.821405,4596.572988
92.489340,296.082377,6513.812290,5056.230287
92.489650,-1850.514855,3923.091493,5975.544884
92.489959,-1776.494261,4811.338623,-1915.238745
92.490269,4737.318029,5699.585753,-10418.898773
92.490578,3923.091493,7031.956449,-7048.078582
92.490887,-2146.597232,9400.615463,2374.896044
92.491197,-1850.514855,11177.109724,5669.106685
92.491506,1702.473667,12953.603985,3524.039291
92.491815,-296.082377,10510.924376,995.924147
92.492125,-4589.276840,11473.192101,-842.705048
92.492434,370.102971,11547.212695,-7354.516781
92.492744,4145.153275,11103.089130,-12487.356617
92.493053,148.041188,13027.624579,-5515.887586
92.493362,-1110.308913,13841.851115,3753.867940
92.493672,-148.041188,11325.150913,5209.449386
92.493981,518.144159,9252.574275,4749.792088
92.494291,-1406.391290,4959.379811,4596.572988
92.494600,-1554.432478,5847.626942,-1762.019645
92.494909,4737.318029,5107.421000,-8580.269578
92.495219,5181.441594,5329.482782,-8656.879127
92.495528,-296.082377,7179.997637,3907.087040
92.495837,-3775.050304,9104.533087,8580.269578
92.496147,518.144159,11325.150913,5439.278036
92.496456,1184.329507,10288.862594,153.219100
92.496766,-3404.947333,10658.965565,-2757.943793
92.497075,-3478.967927,8586.388927,-9116.536426
92.497384,3182.885551,11177.109724,-12563.966167
92.497694,-0.000000,12065.356855,-8120.612279
92.498003,-1184.329507,12509.480420,3447.429741
92.498313,296.082377,11029.068536,5515.887586
92.498622,1776.494261,8808.450710,3677.258390
92.498931,-814.226536,7846.182985,2681.334243
92.499241,-1776.494261,5403.503377,-1072.533697
92.499550,1554.432478,8142.265362,-9652.803275
92.499859,4737.318029,7920.203579,-13253.452115
92.500169,148.041188,7772.162391,-1762.019645
92.500478,-2368.659014,9178.553681,4903.011187
92.500788,222.061783,7994.224174,5822.325785
92.501097,1702.473667,11029.068536,3600.648841
92.501406,-3627.009116,10140.821405,306.438199
92.501716,-2812.782580,12287.418637,-5362.668486
92.502025,3330.926739,12731.542202,-11874.480219
92.502335,1332.370696,13249.686362,-12870.404366
92.502644,370.102971,14137.933492,0.000000
92.502953,-444.123565,11029.068536,5362.668486
92.503263,2368.659014,10288.862594,2834.553343
92.503572,518.144159,4737.318029,4213.525239
92.503881,-2886.803174,4219.173869,4136.915689
92.504191,740.205942,4589.276840,-3600.648841
92.504500,6587.832884,3997.112087,-10495.508323
92.504810,2368.659014,6587.832884,-4519.963438
92.505119,-4441.235652,12805.562797,4979.620737
92.505428,-444.123565,11843.295072,5515.887586
92.505738,1480.411884,11695.253884,153.219100
92.506047,-1110.308913,10658.965565,-1685.410096
92.506357,-4663.297435,10214.842000,-1302.362347
92.506666,1480.411884,10140.821405,-7584.345430
92.506975,1924.535449,12509.480420,-9576.193725
92.507285,814.226536,13693.809927,-459.657299
92.507594,-444.123565,12509.480420,4519.963438
92.507903,296.082377,9696.697840,1378.971896
92.508213,-148.041188,8438.347739,1455.581446
92.508522,-2294.638420,5921.647536,2068.457845
92.508832,-0.000000,4515.256246,-6435.202183
92.509141,4737.318029,4663.297435,-8656.879127
92.509450,1036.288319,5625.565159,-2145.067394
92.509760,-2368.659014,7105.977043,7660.954980
92.510069,-3404.947333,8586.388927,6818.249932
92.510378,1702.473667,10955.047942,1532.190996
92.510688,-74.020594,9696.697840,-3140.991542
92.510997,-1332.370696,11325.150913,-5898.935335
92.511307,444.123565,13397.727550,-9193.145976
92.511616,1332.370696,15544.324782,-10418.898773
92.511925,222.061783,12509.480420,-2068.457845
92.512235,-1110.308913,12731.542202,3217.601092
92.512544,1628.453072,10510.924376,2451.505594
92.512854,592.164754,5921.647536,2604.724693
92.513163,-2294.638420,6069.688724,2221.676944
92.513472,-1110.308913,4071.132681,-2068.457845
92.513782,3997.112087,7328.038826,-8273.831378
92.514091,3701.029710,7476.080014,-2451.505594
92.514400,-962.267725,7624.121203,3524.039291
92.514710,-2294.638420,10214.842000,5898.935335
92.515019,222.061783,9178.553681,0.000000
92.515329,296.082377,8734.430116,-1532.190996
92.515638,-3256.906145,10362.883188,1302.362347
92.515947,1332.370696,12435.459826,-5975.544884
92.516257,2516.700203,12435.459826,-10648.727422
92.516566,1998.556043,11843.295072,-3983.696590
92.516876,-2146.597232,10807.006753,5822.325785
92.517185,-518.144159,10066.800811,4903.011187
92.517494,1554.432478,6883.915261,919.314598
92.517804,-1776.494261,5699.585753,1915.238745
92.518113,-1184.329507,6217.729913,-1072.533697
92.518422,2368.659014,3923.091493,-4290.134789
92.518732,2516.700203,8956.491898,-5669.106685
92.519041,-1702.473667,8290.306550,2911.162892
92.519351,-3997.112087,11473.192101,4979.620737
92.519660,962.267725,11843.295072,-612.876398
92.519969,1628.453072,9400.615463,-3064.381992
92.520279,-2442.679609,9622.677246,-1915.238745
92.520588,-1924.535449,9030.512492,-3447.429741
92.520898,1998.556043,11621.233289,-6741.640382
92.521207,2664.741391,10881.027347,-3677.258390
92.521516,-74.020594,11843.295072,3064.381992
92.521826,-592.164754,9844.739029,4519.963438
92.522135,-0.000000,7698.141797,1302.362347
92.522444,296.082377,6809.894666,-536.266849
92.522754,-1554.432478,4811.338623,-3064.381992
92.523063,666.185348,8364.327145,-6665.030833
92.523373,3182.885551,9400.615463,-7124.688131
92.523682,-740.205942,10362.883188,-2528.115143
92.523991,-370.102971,11251.130318,2911.162892
92.524301,666.185348,13767.830521,1378.971896
92.524610,1924.535449,9474.636058,153.219100
92.524919,-2812.782580,8956.491898,1685.410096
92.525229,-2812.782580,10658.965565,-919.314598
92.525538,4145.153275,9844.739029,-12640.575717
92.525848,1110.308913,9030.512492,-7277.907231
92.526157,-962.267725,10066.800811,1149.143247
92.526466,-1332.370696,8512.368333,2528.115143
92.526776,1406.391290,9992.780217,-229.828649
92.527085,-2738.761985,9178.553681,689.485948
92.527395,-3701.029710,6513.812290,459.657299
92.527704,1036.288319,5847.626942,-4903.011187
92.528013,3478.967927,8808.450710,-7431.126331
92.528323,1110.308913,9400.615463,-2451.505594
92.528632,-1702.473667,10288.862594,3294.210641
92.528941,-74.020594,11917.315666,3370.820191
92.529251,3034.844362,11177.109724,919.314598
92.529560,-222.061783,10658.965565,1762.019645
92.529870,-4737.318029,9696.697840,3677.258390
92.530179,1184.329507,10510.924376,-6281.983084
92.530488,3478.967927,10955.047942,-10035.851024
92.530798,-814.226536,9030.512492,-1991.848295
92.531107,-3404.947333,10658.965565,5592.497135
92.531417,-1332.370696,11991.336260,766.095498
92.531726,1332.370696,10066.800811,-2298.286494
92.532035,-1702.473667,7772.162391,689.485948
92.532345,-1110.308913,6291.750507,-2068.457845
92.532654,4737.318029,10807.006753,-7660.954980
92.532963,2590.720797,6587.832884,-3983.696590
92.533273,-1850.514855,8734.430116,3830.477490
92.533582,-0.000000,9400.615463,4903.011187
92.533892,962.267725,9474.636058,306.438199
92.534201,-1258.350101,13619.789333,1762.019645
92.534510,-3775.050304,10658.965565,-1685.410096
92.534820,296.082377,10362.883188,-9193.145976
92.535129,2960.823768,11325.150913,-11721.261119
92.535439,-74.020594,10807.006753,-3294.210641
92.535748,-2368.659014,10658.965565,2221.676944
92.536057,518.144159,11325.150913,3753.867940
92.536367,1554.432478,8660.409521,3600.648841
92.536676,-2072.576638,8438.347739,2911.162892
92.536985,-1628.453072,8438.347739,-3753.867940
92.537295,2886.803174,9030.512492,-7737.564530
92.537604,2220.617826,8734.430116,-8350.440928
92.537914,-222.061783,9030.512492,-1072.533697
92.538223,-1776.494261,10436.903782,3907.087040
92.538532,1924.535449,8512.368333,2987.772442
92.538842,-1036.288319,8512.368333,2298.286494
92.539151,-4367.215058,10066.800811,1608.800546
92.539461,1406.391290,9104.533087,-6052.154434
92.539770,3478.967927,11399.171507,-10801.946522
92.540079,666.185348,10362.883188,-5822.325785
92.540389,-1628.453072,9548.656652,4213.525239
92.540698,592.164754,10658.965565,5209.449386
92.541007,740.205942,9696.697840,4213.525239
92.541317,-1628.453072,9770.718434,4979.620737
92.541626,-888.247130,7179.997637,0.000000
92.541936,3182.885551,7698.141797,-7967.393179
92.542245,2442.679609,10436.903782,-9116.536426
92.542554,-1110.308913,8586.388927,-1302.362347
92.542864,-2368.659014,12287.418637,1149.143247
92.543173,-1184.329507,13027.624579,1455.581446
92.543482,-444.123565,9992.780217,2757.943793
92.543792,-3330.926739,9326.594869,459.657299
92.544101,-1480.411884,11103.089130,-3830.477490
92.544411,4219.173869,8216.285956,-10112.460574
92.544720,740.205942,7476.080014,-3983.696590
92.545029,-1702.473667,9252.574275,5209.449386
92.545339,-0.000000,8734.430116,6894.859482
92.545648,444.123565,10436.903782,2604.724693
92.545958,1480.411884,8882.471304,689.485948
92.546267,-1924.535449,7920.203579,-2451.505594
92.546576,-222.061783,9400.615463,-10035.851024
92.546886,2590.720797,8660.409521,-9806.022374
92.547195,-370.102971,10288.862594,-2145.067394
92.547504,-0.000000,13101.645173,4290.134789
92.547814,296.082377,12361.439231,4673.182538
92.548123,-1036.288319,9918.759623,3294.210641
92.548433,-2072.576638,5625.565159,1762.019645
92.548742,-740.205942,9326.594869,-6971.469032
92.549051,3404.947333,11621.233289,-12104.308868
92.549361,2442.679609,10214.842000,-8120.612279
92.549670,-0.000000,10066.800811,0.000000
92.549980,-1554.432478,10288.862594,6435.202183
92.550289,-74.020594,6291.750507,8350.440928
92.550598,-296.082377,4589.276840,5592.497135
92.550908,-2442.679609,3627.009116,0.000000
92.551217,-296.082377,3923.091493,-5822.325785
92.551526,1924.535449,8438.347739,-9346.365076
92.551836,518.144159,11547.212695,-7048.078582
92.552145,-1184.329507,14359.995275,2451.505594
92.552455,-1036.288319,14952.160028,4749.792088
92.552764,-148.041188,10436.903782,2834.553343
92.553073,-3552.988522,11473.192101,1915.238745
92.553383,-4811.338623,10288.862594,-766.095498
92.553692,4293.194464,9696.697840,-10801.946522
92.554002,4367.215058,7772.162391,-11184.994271
92.554311,-1110.308913,8956.491898,1838.629195
92.554620,-1998.556043,9696.697840,9806.022374
92.554930,518.144159,9104.533087,4060.306139
92.555239,2886.803174,6809.894666,1225.752797
92.555548,-7328.038826,4293.194464,-1302.362347
92.555858,-0.000000,4663.297435,-5592.497135
92.556167,1406.391290,8734.430116,-10265.679673
92.556477,3404.947333,10288.862594,-6435.202183
92.556786,-1998.556043,8364.327145,3907.087040
92.557095,-1480.411884,14285.974681,7890.783629
92.557405,-0.000000,12879.583391,1685.410096
92.557714,-222.061783,12065.356855,-2681.334243
92.558024,-2368.659014,11473.192101,-4673.182538
92.558333,1998.556043,9326.594869,-13713.109414
92.558642,1924.535449,9252.574275,-11031.775171
92.558952,666.185348,8364.327145,-383.047749
92.559261,-2886.803174,10955.047942,8656.879127
92.559570,1998.556043,9474.636058,7814.174080
92.559880,1776.494261,5699.585753,2911.162892
92.560189,-592.164754,3849.070898,-612.876398
92.560498,-2812.782580,5033.400406,-5132.839837
92.560808,2516.700203,8068.244768,-9806.022374
92.561117,2812.782580,10807.006753,-9806.022374
92.561426,222.061783,12583.501014,-536.266849
92.561736,-1628.453072,13175.665768,5056.230287
92.562045,148.041188,11473.192101,4826.401637
92.562354,-666.185348,10288.862594,1532.190996
92.562664,-4885.359217,9030.512492,1225.752797
92.562973,888.247130,10214.842000,-9193.145976
92.563282,3775.050304,7624.121203,-11184.994271
92.563592,1924.535449,9548.656652,-3217.601092
92.563901,-3256.906145,10807.006753,7124.688131
92.564210,666.185348,6957.935855,9116.536426
92.564520,2220.617826,6735.874072,3600.648841
92.564829,-814.226536,4737.318029,-306.438199
92.565138,-2516.700203,5181.441594,-3983.696590
92.565448,-1110.308913,7031.956449,-6818.249932
92.565757,1850.514855,11399.171507,-6281.983084
92.566066,296.082377,13619.789333,-1072.533697
92.566376,-592.164754,14730.098246,4060.306139
92.566685,-2220.617826,10510.924376,3064.381992
92.566994,74.020594,10955.047942,-1762.019645
92.567304,-2368.659014,7698.141797,-2834.553343
92.567613,-0.000000,9326.594869,-7660.954980
92.567922,4441.235652,8808.450710,-8503.660028
92.568232,1554.432478,8290.306550,-2604.724693
92.568541,-2738.761985,10881.027347,5439.278036
92.568850,-1628.453072,8734.430116,7354.516781
92.569160,2294.638420,7624.121203,2068.457845
92.569469,-0.000000,4885.359217,-1762.019645
92.569778,-3849.070898,7846.182985,-4903.011187
92.570088,-1776.494261,7994.224174,-6818.249932
92.570397,2960.823768,11251.130318,-8427.050478
92.570706,1332.370696,11325.150913,-2451.505594
92.571016,-1776.494261,12287.418637,4979.620737
92.571325,740.205942,12583.501014,5209.449386
92.571634,-518.144159,10214.842000,842.705048
92.571944,-1554.432478,10584.944971,-689.485948
92.572253,-888.247130,11473.192101,-6894.859482
92.572562,3627.009116,9474.636058,-14325.985813
92.572872,1628.453072,9326.594869,-6511.811733
92.573181,-2368.659014,10140.821405,3830.477490
92.573490,-1628.453072,9474.636058,5822.325785
92.573800,2516.700203,6365.771101,1838.629195
92.574109,4071.132681,2664.741391,1991.848295
92.574418,-2368.659014,4293.194464,-383.047749
92.574728,-962.267725,4737.318029,-3447.429741
92.575037,3404.947333,9178.553681,-5592.497135
92.575346,3627.009116,10807.006753,-2987.772442
92.575656,-1776.494261,13841.851115,3524.039291
92.575965,-1998.556043,11917.315666,5975.544884
92.576274,222.061783,11769.274478,383.047749
92.576584,-1998.556043,12953.603985,-2834.553343
92.576893,-4145.153275,11843.295072,-3677.258390
92.577202,1850.514855,10584.944971,-9422.974625
92.577512,-0.000000,11325.150913,-8886.707777
92.577821,-666.185348,11029.068536,383.047749
92.578130,-2146.597232,11621.233289,4673.182538
92.578440,2220.617826,7031.956449,-689.485948
92.578749,3256.906145,5033.400406,153.219100
92.579058,-2442.679609,3034.844362,2834.553343
92.579368,-1036.288319,2738.761985,0.000000
92.579677,3108.864956,7402.059420,-2145.067394
92.579986,2960.823768,8364.327145,-2221.676944
92.580296,222.061783,9030.512492,1685.410096
92.580605,-2294.638420,11843.295072,3447.429741
92.580914,-148.041188,13915.871710,-383.047749
92.581224,-3478.967927,14656.077652,-1915.238745
92.581533,-1924.535449,14878.139434,-6894.859482
92.581842,888.247130,12805.562797,-10725.336972
92.582152,2368.659014,10140.821405,-9116.536426
92.582461,-222.061783,10584.944971,0.000000
92.582770,-888.247130,10066.800811,5975.544884
92.583080,1850.514855,9474.636058,4290.134789
92.583389,1776.494261,5403.503377,3524.039291
92.583698,-0.000000,3552.988522,1762.019645
92.584008,-592.164754,4367.215058,-4903.011187
92.584317,2590.720797,7254.018232,-7660.954980
92.584626,2886.803174,7254.018232,-7201.297681
92.584936,222.061783,8364.327145,-383.047749
92.585245,-1998.556043,12287.418637,5362.668486
92.585554,-888.247130,12731.542202,3753.867940
92.585864,-592.164754,12139.377449,459.657299
92.586173,-2812.782580,11473.192101,-4749.792088
92.586482,-0.000000,11103.089130,-9499.584175
92.586792,3478.967927,12879.583391,-10342.289223
92.587101,-0.000000,12139.377449,-4826.401637
92.587410,-1628.453072,10955.047942,5056.230287
92.587720,-518.144159,9918.759623,7124.688131
92.588029,3627.009116,5255.462188,3370.820191
92.588338,1258.350101,1480.411884,0.000000
92.588648,-3404.947333,3404.947333,1149.143247
92.588957,-1258.350101,4959.379811,-4903.011187
92.589266,4663.297435,8068.244768,-8656.879127
92.589576,296.082377,10658.965565,-4366.744339
92.589885,-2960.823768,12731.542202,2987.772442
92.590194,-592.164754,13989.892304,2145.067394
92.590504,-2072.576638,13619.789333,-1762.019645
92.590813,-2294.638420,10955.047942,-1991.848295
92.591122,296.082377,9918.759623,-5592.497135
92.591432,3404.947333,10140.821405,-9959.241474
92.591741,2146.597232,10288.862594,-4673.182538
92.592050,-1258.350101,11399.171507,3524.039291
92.592360,-666.185348,8808.450710,4366.744339
92.592669,1406.391290,8734.430116,1838.629195
92.592978,-814.226536,4367.215058,1915.238745
92.593288,-5107.421000,3404.947333,-842.705048
92.593597,-444.123565,6587.832884,-6971.469032
92.593906,2664.741391,9326.594869,-10112.460574
92.594216,4071.132681,9770.718434,-5515.887586
92.594525,-3108.864956,10807.006753,2528.115143
92.594834,-1480.411884,13989.892304,5898.935335
92.595144,1628.453072,11843.295072,3140.991542
92.595453,-1924.535449,11473.192101,1838.629195
92.595762,-2590.720797,9918.759623,-3217.601092
92.596072,2368.659014,10732.986159,-9422.974625
92.596381,1628.453072,10436.903782,-10418.898773
92.596690,-888.247130,12065.356855,-1991.848295
92.597000,666.185348,10214.842000,-459.657299
92.597309,592.164754,8142.265362,1225.752797
92.597618,2294.638420,5699.585753,3217.601092
92.597928,-3256.906145,3256.906145,3524.039291
92.598237,-2294.638420,4293.194464,-1762.019645
92.598546,5033.400406,5477.523971,-7277.907231
92.598856,4441.235652,7254.018232,-5745.716235
92.599165,-1554.432478,9400.615463,2834.553343
92.599474,-2368.659014,12213.398043,7584.345430
92.599784,1184.329507,15914.427753,2757.943793
92.600093,-370.102971,13397.727550,-1455.581446
92.600402,-4885.359217,12879.583391,-3600.648841
92.600712,-296.082377,10807.006753,-9116.536426
92.601021,2516.700203,11843.295072,-12640.575717
92.601330,814.226536,11917.315666,-5439.278036
92.601640,-2590.720797,11547.212695,5056.230287
92.601949,1480.411884,8734.430116,6435.202183
92.602258,1480.411884,4071.132681,4826.401637
92.602568,-1406.391290,1110.308913,5669.106685
92.602877,-2220.617826,2294.638420,-536.266849
92.603186,2738.761985,5551.544565,-9729.412825
92.603496,3478.967927,8142.265362,-8044.002729
92.603805,-148.041188,9844.739029,-306.438199
92.604114,-4959.379811,12879.583391,1991.848295
92.604424,1628.453072,14582.057057,4826.401637
92.604733,-740.205942,11769.274478,1378.971896
92.605042,-4145.153275,11251.130318,-2528.115143
92.605352,-814.226536,10807.006753,-9576.193725
92.605661,2590.720797,10214.842000,-12717.185267
92.605970,2220.617826,12731.542202,-6971.469032
92.606280,-1406.391290,11991.336260,2451.505594
92.606589,1628.453072,11547.212695,6894.859482
92.606898,-370.102971,8660.409521,5898.935335
92.607208,-2220.617826,4737.318029,4366.744339
92.607517,-1776.494261,3997.112087,-689.485948
92.607826,1406.391290,3627.009116,-8350.440928
92.608136,4589.276840,8660.409521,-10342.289223
92.608445,1702.473667,10140.821405,-4903.011187
92.608754,-3034.844362,11991.336260,4903.011187
92.609064,-1258.350101,12805.562797,7584.345430
92.609373,1850.514855,11251.130318,2068.457845
92.609682,-4293.194464,10362.883188,-2068.457845
92.609992,-3552.988522,10288.862594,-5286.058936
92.610301,2960.823768,8956.491898,-11491.432470
92.610610,3404.947333,11103.089130,-9652.803275
92.610920,-296.082377,12879.583391,2068.457845
92.611229,-4515.256246,10807.006753,7124.688131
92.611538,444.123565,9030.512492,7048.078582
92.611848,-0.000000,6513.812290,3217.601092
92.612157,-2220.617826,4145.153275,-2298.286494
92.612466,592.164754,2368.659014,-8120.612279
92.612776,1850.514855,5995.668130,-8656.879127
92.613085,962.267725,9548.656652,-2757.943793
92.613394,-2072.576638,11843.295072,4290.134789
92.613704,-518.144159,14211.954086,6435.202183
92.614013,1184.329507,9770.718434,995.924147
92.614322,-814.226536,8438.347739,-1991.848295
92.614632,-3108.864956,8956.491898,-6511.811733
92.614941,2738.761985,9030.512492,-11261.603821
92.615250,2886.803174,11621.233289,-7967.393179
92.615560,-1480.411884,13027.624579,1455.581446
92.615869,-2220.617826,11917.315666,6588.421283
92.616178,1776.494261,10658.965565,4903.011187
92.616488,592.164754,7031.956449,1225.752797
92.616797,-3701.029710,4515.256246,-3370.820191
92.617106,-666.185348,5625.565159,-8427.050478
92.617416,2812.782580,8586.388927,-9346.365076
92.617725,1998.556043,8586.388927,-3447.429741
92.618034,-740.205942,10066.800811,5056.230287
92.618344,-1702.473667,12583.501014,6128.763984
92.618653,296.082377,10510.924376,5592.497135
92.618962,-962.267725,9992.780217,76.609550
92.619272,-3923.091493,8290.306550,-5745.716235
92.619581,2146.597232,12805.562797,-13483.280765
92.619890,2294.638420,11177.109724,-11874.480219
92.620200,-740.205942,14359.995275,-995.924147
92.620509,-1036.288319,14063.912898,5592.497135
92.620818,518.144159,9474.636058,4826.401637
92.621128,-296.082377,7105.977043,7967.393179
92.621437,-3182.885551,1332.370696,2681.334243
92.621746,-1924.535449,3108.864956,-4826.401637
92.622056,4663.297435,3627.009116,-8427.050478
92.622365,3701.029710,8290.306550,-5975.544884
92.622674,-1554.432478,9622.677246,2757.943793
92.622984,-4959.379811,11769.274478,10035.851024
92.623293,1554.432478,14656.077652,4060.306139
92.623602,814.226536,9770.718434,-3524.039291
92.623912,-2886.803174,9474.636058,-3983.696590
92.624221,-2368.659014,9474.636058,-7431.126331
92.624530,5107.421000,12139.377449,-11261.603821
92.624840,1258.350101,12361.439231,-4366.744339
92.625149,-3775.050304,13841.851115,7814.174080
92.625458,-74.020594,10955.047942,7737.564530
92.625768,2072.576638,7031.956449,459.657299
92.626077,-0.000000,5033.400406,-2451.505594
92.626386,-1702.473667,1776.494261,-3907.087040
92.626696,592.164754,5551.544565,-8120.612279
92.627005,3108.864956,9474.636058,-4749.792088
92.627314,-1850.514855,7994.224174,3217.601092
92.627624,-2960.823768,12139.377449,7967.393179
92.627933,2294.638420,12287.418637,3907.087040
92.628242,1332.370696,6661.853478,-1455.581446
92.628552,-2368.659014,11103.089130,-5515.887586
92.628861,-962.267725,11325.150913,-10035.851024
92.629170,2886.803174,11251.130318,-11568.042020
92.629480,444.123565,13989.892304,-3907.087040
92.629789,-1924.535449,12731.542202,4903.011187
92.630098,814.226536,11917.315666,6588.421283
92.630408,1110.308913,9178.553681,3370.820191
92.630717,2220.617826,4663.297435,-689.485948
92.631026,-2738.761985,2812.782580,-4136.915689
92.631336,-518.144159,6957.935855,-6665.030833
92.631645,4145.153275,7550.100608,-6281.983084
92.631954,592.164754,9918.759623,-995.924147
92.632264,-0.000000,11991.336260,6205.373534
92.632573,-962.267725,9030.512492,2298.286494
92.632882,1258.350101,9696.697840,383.047749
92.633192,-2220.617826,6217.729913,-2221.676944
92.633501,-1184.329507,9770.718434,-4903.011187
92.633810,1406.391290,13101.645173,-10112.460574
92.634120,2738.761985,13397.727550,-10725.336972
92.634429,-1332.370696,12139.377449,2451.505594
92.634738,-2220.617826,10881.027347,6894.859482
92.635048,1406.391290,8586.388927,3140.991542
92.635357,-3849.070898,7624.121203,1838.629195
92.635666,-4219.173869,4737.318029,-229.828649
92.635976,1036.288319,5033.400406,-5975.544884
92.636285,3923.091493,7624.121203,-7737.564530
92.636594,222.061783,10140.821405,-1838.629195
92.636904,-2664.741391,13545.768739,9806.022374
92.637213,-222.061783,10732.986159,6128.763984
92.637522,962.267725,12361.439231,-612.876398
92.637832,-444.123565,9622.677246,-4060.306139
92.638141,-3330.926739,8364.327145,-5822.325785
92.638450,-0.000000,9918.759623,-7431.126331
92.638760,2220.617826,11325.150913,-6741.640382
92.639069,2072.576638,13101.645173,842.705048
92.639378,-2146.597232,11103.089130,7584.345430
92.639688,4367.215058,10066.800811,9193.145976
92.639997,666.185348,6513.812290,-306.438199
92.640306,-3108.864956,6735.874072,-2681.334243
92.640616,-1332.370696,5255.462188,-5898.935335
92.640925,2220.617826,8438.347739,-9576.193725
92.641234,2294.638420,7402.059420,-4290.134789
92.641544,-2738.761985,10732.986159,2834.553343
92.641853,1110.308913,12287.418637,3370.820191
92.642162,3627.009116,12657.521608,229.828649
92.642472,-1998.556043,9622.677246,1225.752797
92.642781,-3701.029710,7105.977043,-2298.286494
92.643090,2368.659014,5625.565159,-7890.783629
92.643400,2294.638420,10214.842000,-6358.592633
92.643709,-0.000000,11843.295072,995.924147
92.644018,-1480.411884,9474.636058,4596.572988
92.644328,222.061783,11177.109724,2757.943793
92.644637,1332.370696,8808.450710,842.705048
92.644946,-1998.556043,5033.400406,-2145.067394
92.645256,-962.267725,6513.812290,-5209.449386
92.645565,3923.091493,8068.244768,-7584.345430
92.645874,1258.350101,10214.842000,-3830.477490
92.646184,1036.288319,11103.089130,4290.134789
92.646493,-518.144159,10584.944971,6588.421283
92.646802,1776.494261,13915.871710,2451.505594
92.647112,-666.185348,7698.141797,612.876398
92.647421,-2664.741391,8216.285956,-2681.334243
92.647730,148.041188,9474.636058,-7584.345430
92.648040,1332.370696,12065.356855,-9116.536426
92.648349,1924.535449,11251.130318,-2145.067394
92.648658,-3330.926739,12731.542202,2757.943793
92.648968,-74.020594,11917.315666,4060.306139
92.649277,1850.514855,7031.956449,1302.362347
92.649586,-962.267725,3849.070898,-229.828649
92.649896,-3478.967927,4293.194464,-536.266849
92.650205,814.226536,6661.853478,-4443.353888
92.650514,4441.235652,8808.450710,-6741.640382
92.650824,2220.617826,9474.636058,-153.219100
92.651133,-3478.967927,12879.583391,7660.954980
92.651442,592.164754,12435.459826,5132.839837
92.651752,962.267725,10881.027347,-1072.533697
92.652061,-3775.050304,9474.636058,-4903.011187
92.652370,-2072.576638,11621.233289,-8120.612279
92.652680,1776.494261,10436.903782,-11951.089769
92.652989,1036.288319,10288.862594,-7124.688131
92.653298,-1332.370696,12953.603985,2757.943793
92.653608,-518.144159,10658.965565,6894.859482
92.653917,2590.720797,8290.306550,7048.078582
92.654226,2442.679609,4663.297435,1991.848295
92.654536,-3478.967927,3701.029710,-383.047749
92.654845,740.205942,7402.059420,-4136.915689
92.655154,4589.276840,9252.574275,-9269.755526
92.655464,2146.597232,8290.306550,-5745.716235
92.655773,-3404.947333,13989.892304,5822.325785
92.656082,-0.000000,14804.118840,3983.696590
92.656392,592.164754,10066.800811,-612.876398
92.656701,-3034.844362,9474.636058,766.095498
92.657010,-3775.050304,10140.821405,-5132.839837
92.657320,3034.844362,8290.306550,-11797.870669
92.657629,2294.638420,10807.006753,-7354.516781
92.657938,444.123565,10140.821405,3753.867940
92.658248,1110.308913,9474.636058,9576.193725
92.658557,518.144159,9696.697840,7584.345430
92.658866,666.185348,4885.359217,5439.278036
92.659176,-2146.597232,3034.844362,-919.314598
92.659485,-1998.556043,7328.038826,-6205.373534
92.659794,1406.391290,8438.347739,-4443.353888
92.660104,-0.000000,11399.171507,-6435.202183
92.660413,-1406.391290,14137.933492,-229.828649
92.660722,-2368.659014,16358.551318,4519.963438
92.661032,1554.432478,13619.789333,2987.772442
92.661341,-370.102971,9400.615463,-1608.800546
92.661650,-2886.803174,7476.080014,-2451.505594
92.661960,2220.617826,9104.533087,-7354.516781
92.662269,4293.194464,6883.915261,-8197.221829
92.662579,814.226536,8586.388927,1455.581446
92.662888,-3701.029710,10066.800811,9499.584175
92.663198,1924.535449,12139.377449,6588.421283
92.663507,1110.308913,7402.059420,459.657299
92.663817,-2590.720797,5403.503377,-2911.162892
92.664126,-2516.700203,6735.874072,-8350.440928
92.664436,2812.782580,7772.162391,-12180.918418
92.664745,1702.473667,11177.109724,-6511.811733
92.665055,-3627.009116,13545.768739,2298.286494
92.665364,1332.370696,12953.603985,8044.002729
92.665673,2368.659014,14434.015869,4596.572988
92.665983,-2072.576638,11325.150913,2528.115143
92.666292,-1480.411884,7994.224174,-3600.648841
92.666602,2368.659014,8512.368333,-11797.870669
92.666911,4737.318029,8586.388927,-10572.117872
92.667221,-74.020594,8882.471304,-842.705048
92.667530,-962.267725,9400.615463,5975.544884
92.667840,296.082377,10066.800811,6894.859482
92.668149,740.205942,7624.121203,6588.421283
92.668459,-1850.514855,2220.617826,1225.752797
92.668768,-2368.659014,2886.803174,-5592.497135
92.669078,1850.514855,7328.038826,-9806.022374
92.669387,1258.350101,10288.862594,-7584.345430
92.669697,592.164754,14359.995275,229.828649
92.670006,-1480.411884,16358.551318,6435.202183
92.670316,1850.514855,13989.892304,5592.497135
92.670625,-518.144159,10066.800811,2451.505594
92.670934,-3701.029710,8808.450710,-1302.362347
92.671244,-518.144159,6883.915261,-8120.612279
92.671553,2368.659014,6513.812290,-11874.480219
92.671863,888.247130,11251.130318,-3983.696590
92.672172,-2960.823768,11103.089130,5745.716235
92.672482,-2738.761985,11843.295072,6128.763984
92.672791,2220.617826,8142.265362,4136.915689
92.673101,2368.659014,3108.864956,-2604.724693
92.673410,-3404.947333,2220.617826,-2834.553343
92.673720,-814.226536,5921.647536,-4979.620737
92.674029,4737.318029,11843.295072,-10035.851024
92.674339,1776.494261,12065.356855,-1302.362347
92.674648,-2220.617826,13693.809927,10112.460574
92.674958,-0.000000,15322.262999,6358.592633
92.675267,370.102971,11991.336260,536.266849
92.675577,-2220.617826,10732.986159,-3753.867940
92.675886,-814.226536,9770.718434,-12410.747068
92.676195,2072.576638,8734.430116,-18156.463303
92.676505,962.267725,10140.821405,-5669.106685
92.676814,-4663.297435,11547.212695,9652.803275
92.677124,-0.000000,10584.944971,8963.317327
92.677433,3330.926739,8734.430116,11031.775171
92.677743,1110.308913,3627.009116,4979.620737
92.678052,-2146.597232,962.267725,-4136.915689
92.678362,-1702.473667,6957.935855,-8963.317327
92.678671,2738.761985,9030.512492,-11414.822920
92.678981,1554.432478,11991.336260,-6588.421283
92.679290,-2294.638420,16432.571912,3677.258390
92.679600,-962.267725,15100.201217,8733.488677
92.679909,1554.432478,14359.995275,2528.115143
92.680219,-2664.741391,7994.224174,-1762.019645
92.680528,-0.000000,6587.832884,-7201.297681
92.680838,1480.411884,7031.956449,-13636.499864
92.681147,-0.000000,8586.388927,-5669.106685
92.681456,-1332.370696,11621.233289,4903.011187
92.681766,-2442.679609,11473.192101,7737.564530
92.682075,4145.153275,10584.944971,5132.839837
92.682385,1702.473667,4811.338623,1991.848295
92.682694,-3330.926739,3182.885551,-536.266849
92.683004,-222.061783,4145.153275,-4903.011187
92.683313,2738.761985,7994.224174,-9806.022374
92.683623,3478.967927,12065.356855,-6205.373534
92.683932,-4885.359217,12139.377449,7660.954980
92.684242,-1480.411884,16728.654289,7507.735880
92.684551,1406.391290,13841.851115,0.000000
92.684861,-2664.741391,10807.006753,-3753.867940
92.685170,-3404.947333,8956.491898,-5286.058936
92.685480,4959.379811,8512.368333,-14555.814462
92.685789,3478.967927,7920.203579,-9576.193725
92.686099,-2220.617826,10732.986159,6128.763984
92.686408,-962.267725,9474.636058,10418.898773
