#time,accel_x,accel_y,accel_z
157.387491,592.164754,9474.636058,-2068.457845
157.387800,666.185348,10066.800811,-306.438199
157.388110,-0.000000,9474.636058,-459.657299
157.388420,296.082377,9178.553681,-919.314598
157.388729,-1258.350101,9104.533087,-2451.505594
157.389039,-296.082377,8808.450710,-2145.067394
157.389349,222.061783,10066.800811,-536.266849
157.389659,-1184.329507,9326.594869,-536.266849
157.389968,1628.453072,9104.533087,-2068.457845
157.390278,-814.226536,10066.800811,-1072.533697
157.390588,-370.102971,10140.821405,0.000000
157.390897,518.144159,9992.780217,306.438199
157.391207,-740.205942,7846.182985,-842.705048
157.391517,1110.308913,9918.759623,-1532.190996
157.391827,-888.247130,8808.450710,-2911.162892
157.392136,518.144159,8956.491898,-1378.971896
157.392446,-222.061783,9400.615463,229.828649
157.392756,962.267725,9030.512492,766.095498
157.393065,2368.659014,5033.400406,2451.505594
157.393375,3330.926739,5921.647536,306.438199
157.393685,3330.926739,7179.997637,5515.887586
157.393994,2590.720797,7179.997637,9806.022374
157.394304,-1998.556043,4589.276840,11568.042020
157.394614,6069.688724,9178.553681,9193.145976
157.394924,4959.379811,6365.771101,4060.306139
157.395233,888.247130,8956.491898,6665.030833
157.395543,-2368.659014,10807.006753,13253.452115
157.395853,148.041188,12583.501014,8427.050478
157.396162,2368.659014,11325.150913,3294.210641
157.396472,-370.102971,12139.377449,10035.851024
157.396782,-2960.823768,11843.295072,14325.985813
157.397092,-17468.860231,14063.912898,7277.907231
157.397401,17838.963202,19245.354492,-9652.803275
157.397711,-2072.576638,5181.441594,9039.926876
157.398021,-12139.377449,10955.047942,30413.991271
157.398330,3923.091493,18505.148550,11721.261119
157.398640,-5403.503377,6957.935855,-3524.039291
157.398950,5403.503377,14582.057057,1838.629195
157.399260,-17098.757260,-1554.432478,15628.348159
157.399569,222.061783,14878.139434,3677.258390
157.399879,296.082377,4219.173869,2221.676944
157.400189,-5181.441594,8808.450710,6741.640382
157.400498,5773.606348,5625.565159,13023.623466
157.400808,-5551.544565,370.102971,11414.822920
157.401118,3923.091493,7105.977043,14555.814462
157.401427,-5773.606348,4071.132681,18003.244203
157.401737,1998.556043,9474.636058,2911.162892
157.402047,-2960.823768,6069.688724,4903.011187
157.402357,2368.659014,15396.283594,0.000000
157.402666,3478.967927,10955.047942,-5362.668486
157.402976,1628.453072,14285.974681,7201.297681
157.403286,666.185348,12287.418637,24438.446386
157.403595,-0.000000,3627.009116,22982.864940
157.403905,4663.297435,7698.141797,14096.157163
157.404215,-2738.761985,4515.256246,11031.775171
157.404525,3552.988522,10658.965565,-1608.800546
157.404834,5625.565159,12583.501014,-6205.373534
157.405144,3849.070898,17542.880825,-1991.848295
157.405454,-1480.411884,15618.345376,13942.938064
157.405763,-7698.141797,12657.521608,19228.997000
157.406073,-2072.576638,12213.398043,10265.679673
157.406383,3552.988522,8586.388927,-1378.971896
157.406693,5773.606348,7772.162391,-4903.011187
157.407002,-518.144159,7476.080014,6588.421283
157.407312,-1258.350101,11473.192101,17313.758255
157.407622,-1406.391290,8734.430116,12257.527968
157.407931,4737.318029,7254.018232,4749.792088
157.408241,2368.659014,3182.885551,2145.067394
157.408551,-7328.038826,2516.700203,7431.126331
157.408861,-5033.400406,7328.038826,9882.631924
157.409170,4811.338623,9400.615463,-5898.935335
157.409480,7994.224174,8956.491898,-8733.488677
157.409790,222.061783,6957.935855,10955.165621
157.410099,-8956.491898,7550.100608,25281.151434
157.410409,-888.247130,11547.212695,15781.567259
157.410719,5551.544565,11103.089130,-1378.971896
157.411028,444.123565,9770.718434,-2681.334243
157.411338,-6587.832884,12361.439231,2911.162892
157.411648,-1554.432478,14804.118840,-6205.373534
157.411958,7105.977043,14211.954086,-8350.440928
157.412267,5403.503377,12065.356855,5132.839837
157.412577,-5107.421000,7031.956449,25204.541884
157.412887,-0.000000,5329.482782,24515.055936
157.413196,6439.791695,5625.565159,7354.516781
157.413506,-222.061783,4959.379811,5132.839837
157.413816,-1184.329507,5477.523971,8044.002729
157.414126,6513.812290,6069.688724,-2451.505594
157.414435,1258.350101,6883.915261,-1378.971896
157.414745,-3552.988522,11547.212695,16624.272307
157.415055,-5551.544565,-3182.885551,22369.988542
157.415364,-3701.029710,18357.107362,8886.707777
157.415674,13619.789333,16580.613101,6205.373534
157.415984,-14582.057057,12879.583391,7354.516781
157.416294,8882.471304,19541.436869,1532.190996
157.416603,-2812.782580,4367.215058,-5669.106685
157.416913,1332.370696,15766.386565,6128.763984
157.417223,-9104.533087,11843.295072,29418.067123
157.417532,-2590.720797,11695.253884,15168.690860
157.417842,296.082377,8586.388927,2681.334243
157.418152,888.247130,13175.665768,9652.803275
157.418461,5033.400406,8586.388927,2987.772442
157.418771,-6069.688724,5995.668130,-2221.676944
157.419081,1850.514855,16506.592507,12104.308868
157.419391,-1258.350101,13027.624579,11184.994271
157.419700,6069.688724,9252.574275,-4136.915689
157.420010,-370.102971,11621.233289,17926.634653
157.420320,-9770.718434,8068.244768,31792.963167
157.420629,7254.018232,3256.906145,9039.926876
157.420939,7254.018232,3330.926739,459.657299
157.421249,-3923.091493,5033.400406,15398.519510
157.421559,2442.679609,5773.606348,9959.241474
157.421868,6217.729913,8956.491898,689.485948
157.422178,-7105.977043,11177.109724,17926.634653
157.422488,962.267725,14952.160028,19995.092498
157.422797,1850.514855,8068.244768,229.828649
157.423107,-888.247130,6069.688724,383.047749
157.423417,-9326.594869,7624.121203,14325.985813
157.423727,-3701.029710,11325.150913,9959.241474
157.424036,2886.803174,15544.324782,153.219100
157.424346,4367.215058,14434.015869,4979.620737
157.424656,-1110.308913,14434.015869,13100.233016
157.424965,-6735.874072,12065.356855,12410.747068
157.425275,-1554.432478,14804.118840,7277.907231
157.425585,740.205942,10362.883188,612.876398
157.425894,7254.018232,9178.553681,-7277.907231
157.426204,-6439.791695,5329.482782,5898.935335
157.426514,-2294.638420,7328.038826,14709.033562
157.426824,888.247130,6069.688724,9269.755526
157.427133,6513.812290,3923.091493,6205.373534
157.427443,-666.185348,4515.256246,13789.718964
157.427753,-9474.636058,1628.453072,17313.758255
157.428062,4885.359217,8438.347739,2145.067394
157.428372,7550.100608,8068.244768,-10495.508323
157.428682,2960.823768,10214.842000,3064.381992
157.428992,-6365.771101,12657.521608,21220.845295
157.429301,3849.070898,7920.203579,17160.539155
157.429611,10584.944971,13915.871710,5439.278036
157.429921,-4441.235652,4441.235652,12334.137518
157.430230,-5033.400406,9474.636058,20148.311597
157.430540,-222.061783,8808.450710,76.609550
157.430850,7772.162391,15766.386565,-17007.320056
157.431160,962.267725,13323.706956,-383.047749
157.431469,-4515.256246,15544.324782,17620.196454
157.431779,3034.844362,7550.100608,9806.022374
157.432089,7550.100608,11695.253884,5132.839837
157.432398,-2516.700203,7402.059420,13789.718964
157.432708,-4441.235652,5847.626942,12947.013916
157.433018,8586.388927,2812.782580,3217.601092
157.433328,2664.741391,6809.894666,-3907.087040
157.433637,2664.741391,10288.862594,5669.106685
157.433947,-7031.956449,4737.318029,18462.901502
157.434257,1554.432478,7179.997637,8886.707777
157.434566,444.123565,7179.997637,4060.306139
157.434876,-4737.318029,7402.059420,3447.429741
157.435186,-2294.638420,8586.388927,1532.190996
157.435495,-6291.750507,7476.080014,1685.410096
157.435805,5329.482782,14582.057057,1149.143247
157.436115,1184.329507,14285.974681,-3830.477490
157.436425,-2442.679609,13323.706956,4366.744339
157.436734,-14359.995275,12583.501014,18999.168350
157.437044,-2442.679609,16802.674883,7201.297681
157.437354,7698.141797,11991.336260,-15245.300410
157.437663,-2960.823768,7624.121203,-8886.707777
157.437973,-3923.091493,9400.615463,11414.822920
157.438283,-148.041188,3997.112087,4903.011187
157.438593,9326.594869,5847.626942,-2757.943793
157.438902,-4219.173869,7698.141797,13330.061665
157.439212,-5403.503377,2146.597232,13406.671215
157.439522,10214.842000,6217.729913,-5439.278036
157.439831,1998.556043,2738.761985,-4826.401637
157.440141,296.082377,8512.368333,11568.042020
157.440451,-740.205942,5625.565159,11031.775171
157.440761,-888.247130,5181.441594,5745.716235
157.441070,5329.482782,12805.562797,2068.457845
157.441380,370.102971,13175.665768,-5745.716235
157.441690,-0.000000,16432.571912,-2145.067394
157.441999,-3034.844362,19245.354492,1685.410096
157.442309,4219.173869,16506.592507,-4366.744339
157.442618,6513.812290,11843.295072,-6435.202183
157.442928,-6735.874072,11251.130318,6894.859482
157.443238,-6365.771101,11621.233289,11951.089769
157.443547,3997.112087,8956.491898,-1685.410096
157.443857,10288.862594,8956.491898,-12334.137518
157.444166,1258.350101,11547.212695,-842.705048
157.444476,-0.000000,9770.718434,10342.289223
157.444786,-444.123565,1776.494261,7201.297681
157.445095,-2664.741391,3256.906145,4596.572988
157.445405,-6291.750507,7772.162391,8580.269578
157.445715,814.226536,7772.162391,-5822.325785
157.446024,-592.164754,12065.356855,-13023.623466
157.446334,-1776.494261,14804.118840,-1225.752797
157.446643,370.102971,15100.201217,-689.485948
157.446953,-814.226536,7254.018232,-3217.601092
157.447263,-6143.709319,9326.594869,2221.676944
157.447572,-6143.709319,6883.915261,3830.477490
157.447882,2886.803174,7624.121203,-9346.365076
157.448191,2812.782580,7698.141797,-8886.707777
157.448501,-0.000000,11029.068536,7124.688131
157.448811,2294.638420,2294.638420,12027.699319
157.449120,296.082377,-666.185348,5822.325785
157.449430,-1184.329507,3034.844362,4443.353888
157.449739,1628.453072,3330.926739,-1685.410096
157.450049,3627.009116,8216.285956,-8580.269578
157.450359,-370.102971,13767.830521,-2757.943793
157.450668,6439.791695,16136.489536,4060.306139
157.450978,-962.267725,14137.933492,4060.306139
157.451287,-4811.338623,13545.768739,4749.792088
157.451597,-962.267725,13767.830521,-4903.011187
157.451907,2590.720797,15692.365970,-12563.966167
157.452216,4737.318029,17246.798449,-11491.432470
157.452526,-888.247130,21317.931130,3370.820191
157.452835,3849.070898,9770.718434,6128.763984
157.453145,-1628.453072,5625.565159,4826.401637
157.453455,-5995.668130,6809.894666,5362.668486
157.453764,2516.700203,1184.329507,-2451.505594
157.454074,-444.123565,3108.864956,-11568.042020
157.454383,1258.350101,11843.295072,1225.752797
157.454693,3404.947333,5551.544565,5898.935335
157.455003,4071.132681,6587.832884,-7584.345430
157.455312,-9104.533087,-2886.803174,5669.106685
157.455622,-12361.439231,3849.070898,19612.044749
157.455931,4441.235652,8142.265362,-2681.334243
157.456241,4515.256246,9474.636058,-25357.760984
157.456551,-2146.597232,22872.363608,-4749.792088
157.456860,-6513.812290,11917.315666,3447.429741
157.457170,-2886.803174,7698.141797,-10265.679673
157.457479,1406.391290,14582.057057,-2757.943793
157.457789,-888.247130,4515.256246,5669.106685
157.458099,-222.061783,5107.421000,-995.924147
157.458408,-1702.473667,8512.368333,2298.286494
157.458718,4811.338623,2590.720797,612.876398
157.459027,6957.935855,7624.121203,-9729.412825
157.459337,-4589.276840,4219.173869,-612.876398
157.459647,-7105.977043,4589.276840,15321.909960
157.459956,3404.947333,13249.686362,-4519.963438
157.460266,5329.482782,7179.997637,-22369.988542
157.460576,4811.338623,19023.292709,995.924147
157.460885,-11547.212695,15618.345376,14249.376263
157.461195,4737.318029,12805.562797,-6741.640382
157.461504,4737.318029,16358.551318,-8197.221829
157.461814,-4959.379811,9326.594869,1608.800546
157.462124,-0.000000,9178.553681,-4213.525239
157.462433,518.144159,14434.015869,-4213.525239
157.462743,4515.256246,13619.789333,-3677.258390
157.463052,6513.812290,7772.162391,-7660.954980
157.463362,-8142.265362,3701.029710,6894.859482
157.463672,-4885.359217,5255.462188,14096.157163
157.463981,7402.059420,6217.729913,-11568.042020
157.464291,3849.070898,5699.585753,-15781.567259
157.464600,-3997.112087,10510.924376,12334.137518
157.464910,-1258.350101,9770.718434,9039.926876
157.465220,-1554.432478,6513.812290,-9806.022374
157.465529,-148.041188,11991.336260,842.705048
157.465839,-1184.329507,74.020594,8273.831378
157.466148,4811.338623,12509.480420,-9806.022374
157.466458,-4293.194464,13915.871710,995.924147
157.466768,-1998.556043,13767.830521,10725.336972
157.467077,2294.638420,12657.521608,-8044.002729
157.467387,1850.514855,7920.203579,-13330.061665
157.467696,-2590.720797,11991.336260,229.828649
157.468006,-1776.494261,9844.739029,-4213.525239
157.468316,1406.391290,11843.295072,-6128.763984
157.468625,2738.761985,8734.430116,8120.612279
157.468935,1628.453072,10732.986159,4213.525239
157.469244,1628.453072,-518.144159,-7967.393179
157.469554,-740.205942,5033.400406,3907.087040
157.469864,-1924.535449,8364.327145,11031.775171
157.470173,4515.256246,8290.306550,-6281.983084
157.470483,10288.862594,14211.954086,-7660.954980
157.470792,-7328.038826,3182.885551,4826.401637
157.471102,-2738.761985,12213.398043,1532.190996
157.471412,-4515.256246,12435.459826,-1378.971896
157.471721,740.205942,15174.221811,-7354.516781
157.472031,-0.000000,17024.736666,-13023.623466
157.472340,-6365.771101,12731.542202,-5745.716235
157.472650,4663.297435,16136.489536,-3830.477490
157.472960,-5995.668130,8512.368333,-3217.601092
157.473269,-1998.556043,9178.553681,3294.210641
157.473579,-3034.844362,6143.709319,6435.202183
157.473889,6069.688724,740.205942,-3677.258390
157.474198,2146.597232,2960.823768,-3140.991542
157.474508,-4959.379811,6365.771101,6588.421283
157.474817,7772.162391,4145.153275,-1455.581446
157.475127,296.082377,7328.038826,-7737.564530
157.475437,-7772.162391,7031.956449,7584.345430
157.475746,-2738.761985,6513.812290,5132.839837
157.476056,148.041188,11473.192101,-15168.690860
157.476365,148.041188,15026.180623,-11414.822920
157.476675,-1480.411884,17172.777854,-1915.238745
157.476985,5625.565159,16358.551318,-12180.918418
157.477294,-888.247130,10362.883188,-3677.258390
157.477604,-0.000000,9770.718434,16164.615008
157.477913,-5551.544565,8290.306550,10725.336972
157.478223,2294.638420,6957.935855,-7277.907231
157.478533,9252.574275,13027.624579,-7660.954980
157.478842,-0.000000,9030.512492,-3907.087040
157.479152,6513.812290,8882.471304,-10342.289223
157.479461,-962.267725,6957.935855,-1762.019645
157.479771,-4367.215058,4293.194464,9959.241474
157.480081,-1554.432478,8734.430116,4213.525239
157.480390,1110.308913,6217.729913,-2757.943793
157.480700,1702.473667,11177.109724,-2145.067394
157.481009,-0.000000,14434.015869,-5822.325785
157.481319,3404.947333,10807.006753,-8120.612279
157.481629,-0.000000,11621.233289,-2757.943793
157.481938,-8142.265362,11991.336260,4596.572988
157.482248,1406.391290,11621.233289,-2451.505594
157.482557,4071.132681,12361.439231,-5822.325785
157.482867,-3034.844362,9400.615463,-1455.581446
157.483177,-5403.503377,4293.194464,2987.772442
157.483486,4737.318029,10436.903782,-4979.620737
157.483796,4293.194464,-1480.411884,-12180.918418
157.484105,-1776.494261,4071.132681,0.000000
157.484415,-4293.194464,5847.626942,14709.033562
157.484725,3330.926739,9178.553681,2451.505594
157.485034,5921.647536,13693.809927,-6894.859482
157.485344,-1406.391290,8364.327145,5898.935335
157.485653,-4663.297435,10066.800811,7201.297681
157.485963,1110.308913,13101.645173,-9269.755526
157.486273,6661.853478,12213.398043,-13789.718964
157.486582,1554.432478,17764.942608,0.000000
157.486892,-3404.947333,13989.892304,842.705048
157.487202,-3330.926739,11991.336260,306.438199
157.487511,2738.761985,12953.603985,1455.581446
157.487821,888.247130,8290.306550,-9806.022374
157.488130,-370.102971,3627.009116,-5515.887586
157.488440,814.226536,10288.862594,6358.592633
157.488750,740.205942,4737.318029,-383.047749
157.489059,4293.194464,4589.276840,-2681.334243
157.489369,-3034.844362,5773.606348,11951.089769
157.489678,1258.350101,7031.956449,3600.648841
157.489988,444.123565,9622.677246,-8580.269578
157.490298,-2738.761985,8734.430116,1455.581446
157.490607,-1406.391290,10658.965565,766.095498
157.490917,3330.926739,7920.203579,-10878.556072
157.491226,-666.185348,12065.356855,-3677.258390
157.491536,-6809.894666,13989.892304,5209.449386
157.491846,-2442.679609,9474.636058,-612.876398
157.492155,1332.370696,15174.221811,-7507.735880
157.492465,740.205942,11843.295072,-1915.238745
157.492774,-1110.308913,11325.150913,-1762.019645
157.493084,1406.391290,8882.471304,-8120.612279
157.493394,-4367.215058,8956.491898,306.438199
157.493703,5847.626942,7550.100608,-3294.210641
157.494013,-962.267725,4219.173869,-6128.763984
157.494322,-148.041188,7254.018232,5669.106685
157.494632,296.082377,7328.038826,8580.269578
157.494942,2590.720797,3330.926739,-689.485948
157.495251,2146.597232,5699.585753,-2451.505594
157.495561,-2146.597232,10214.842000,2068.457845
157.495870,-3997.112087,7105.977043,-2221.676944
157.496180,2516.700203,16062.468941,-12870.404366
157.496490,1332.370696,18357.107362,-8963.317327
157.496799,-3182.885551,12361.439231,-3217.601092
157.497109,-1110.308913,14656.077652,-1072.533697
157.497418,-4145.153275,11991.336260,2145.067394
157.497728,4737.318029,9252.574275,-5515.887586
157.498038,1702.473667,10807.006753,-6818.249932
157.498347,-2516.700203,7698.141797,5898.935335
157.498657,2072.576638,6587.832884,4673.182538
157.498966,7772.162391,4071.132681,-8197.221829
157.499276,-1184.329507,3923.091493,76.609550
157.499586,-6513.812290,4145.153275,11644.651570
157.499895,-2590.720797,2442.679609,-1915.238745
157.500205,5403.503377,9992.780217,-17160.539155
157.500515,3478.967927,12731.542202,-7431.126331
157.500824,-7328.038826,9548.656652,3600.648841
157.501134,-4737.318029,12287.418637,2911.162892
157.501443,2738.761985,13841.851115,-3753.867940
157.501753,5995.668130,9696.697840,-12487.356617
157.502063,-6883.915261,14656.077652,-1991.848295
157.502372,-4663.297435,9474.636058,8810.098227
157.502682,10881.027347,10436.903782,-7660.954980
157.502991,3256.906145,7105.977043,-13253.452115
157.503301,-9104.533087,3108.864956,10955.165621
157.503611,-3627.009116,8808.450710,11491.432470
157.503920,5255.462188,2590.720797,-11108.384721
157.504230,3330.926739,12361.439231,-14632.424012
157.504539,-1406.391290,9918.759623,1455.581446
157.504849,-1406.391290,6587.832884,306.438199
157.505159,1628.453072,11695.253884,-5975.544884
157.505468,-0.000000,12953.603985,-2528.115143
157.505778,4367.215058,5995.668130,-3753.867940
157.506087,2886.803174,10510.924376,1608.800546
157.506397,-3256.906145,12805.562797,10035.851024
157.506707,4885.359217,11991.336260,3217.601092
157.507016,-3182.885551,14359.995275,-9959.241474
157.507326,-4441.235652,7698.141797,-5669.106685
157.507635,-148.041188,8882.471304,-8350.440928
157.507945,1036.288319,8438.347739,-18616.120601
157.508255,-2072.576638,10732.986159,-5209.449386
157.508564,-2220.617826,12139.377449,11414.822920
157.508874,518.144159,-1036.288319,5132.839837
157.509183,2146.597232,3182.885551,4673.182538
157.509493,-7402.059420,5921.647536,12870.404366
157.509803,-2812.782580,222.061783,1532.190996
157.510112,7105.977043,14730.098246,-17313.758255
157.510422,1480.411884,16136.489536,-12410.747068
157.510731,-74.020594,13101.645173,-2834.553343
157.511041,-2516.700203,13101.645173,-2221.676944
157.511351,-7624.121203,9474.636058,6358.592633
157.511660,2886.803174,10955.047942,9039.926876
157.511970,-1184.329507,5847.626942,-3370.820191
157.512279,-1406.391290,9178.553681,-8810.098227
157.512589,6661.853478,13249.686362,-6358.592633
157.512899,3775.050304,8956.491898,-10801.946522
157.513208,-5181.441594,11399.171507,-995.924147
157.513518,-1702.473667,14359.995275,9116.536426
157.513827,2960.823768,5107.421000,-2911.162892
157.514137,3923.091493,11547.212695,-10572.117872
157.514447,-222.061783,4367.215058,8810.098227
157.514756,888.247130,3997.112087,8197.221829
157.515066,5995.668130,9104.533087,-3370.820191
157.515376,1924.535449,2368.659014,3830.477490
157.515685,-3701.029710,6513.812290,5745.716235
157.515995,-6587.832884,13323.706956,-8120.612279
157.516304,1628.453072,17616.901420,-14709.033562
157.516614,5329.482782,19541.436869,-12870.404366
157.516924,-4367.215058,14211.954086,-9422.974625
157.517233,-3404.947333,12509.480420,1762.019645
157.517543,3627.009116,6809.894666,5898.935335
157.517852,1406.391290,2146.597232,-3064.381992
157.518162,-2960.823768,4515.256246,9116.536426
157.518472,148.041188,7105.977043,12257.527968
157.518781,6809.894666,1628.453072,-8886.707777
157.519091,7698.141797,10436.903782,-11721.261119
157.519400,-7328.038826,3701.029710,6128.763984
157.519710,-7994.224174,4441.235652,9193.145976
157.520020,3552.988522,16062.468941,-8810.098227
157.520329,-222.061783,8956.491898,-12180.918418
157.520639,1480.411884,13323.706956,-3294.210641
157.520948,-4959.379811,11251.130318,-1915.238745
157.521258,740.205942,10214.842000,-5515.887586
157.521568,3775.050304,13101.645173,-1072.533697
157.521877,-2516.700203,10214.842000,2987.772442
157.522187,-2590.720797,11177.109724,2221.676944
157.522496,740.205942,14508.036463,-1838.629195
157.522806,4145.153275,11917.315666,-8350.440928
157.523116,296.082377,6957.935855,-3140.991542
157.523425,666.185348,8216.285956,-612.876398
157.523735,3478.967927,1924.535449,-9346.365076
157.524044,-0.000000,4145.153275,-5898.935335
157.524354,-5403.503377,7105.977043,10878.556072
157.524664,-74.020594,7920.203579,4749.792088
157.524973,8290.306550,11621.233289,-7890.783629
157.525283,1184.329507,9400.615463,0.000000
157.525592,-2072.576638,9178.553681,4749.792088
157.525902,-7550.100608,10881.027347,2451.505594
157.526212,5033.400406,12435.459826,-5209.449386
157.526521,1110.308913,17764.942608,-10878.556072
157.526831,-1332.370696,13397.727550,-6358.592633
157.527140,-6365.771101,16432.571912,2604.724693
157.527450,-1480.411884,12139.377449,-1532.190996
157.527760,6809.894666,7254.018232,-13100.233016
157.528069,-3849.070898,6439.791695,306.438199
157.528379,-8586.388927,-0.000000,15475.129060
157.528689,8512.368333,5773.606348,-919.314598
157.528998,5847.626942,3182.885551,-11031.775171
157.529308,-8364.327145,4071.132681,4596.572988
157.529617,-814.226536,8808.450710,8197.221829
157.529927,7624.121203,9770.718434,-8044.002729
157.530237,1998.556043,10066.800811,-10418.898773
157.530546,-2442.679609,14508.036463,6052.154434
157.530856,-5033.400406,5625.565159,12027.699319
157.531165,1110.308913,10510.924376,-919.314598
157.531475,-74.020594,18061.024985,-11951.089769
157.531785,-2442.679609,12361.439231,-8580.269578
157.532094,-592.164754,11325.150913,-6665.030833
157.532404,-1998.556043,8956.491898,-2757.943793
157.532713,8290.306550,12435.459826,-1608.800546
157.533023,-2368.659014,12287.418637,1378.971896
157.533333,-14063.912898,8808.450710,12334.137518
157.533642,7402.059420,7105.977043,3753.867940
157.533952,9548.656652,7105.977043,-16854.100956
157.534261,2368.659014,7624.121203,-12027.699319
157.534571,-1036.288319,7254.018232,12027.699319
157.534881,-0.000000,888.247130,13483.280765
157.535190,592.164754,5995.668130,306.438199
157.535500,222.061783,11177.109724,2604.724693
157.535809,-3404.947333,4219.173869,4596.572988
157.536119,592.164754,12583.501014,-5056.230287
157.536429,1036.288319,18949.272115,-3370.820191
157.536738,-0.000000,13693.809927,-5515.887586
157.537048,-1480.411884,13693.809927,-8503.660028
157.537357,-9178.553681,13101.645173,-1378.971896
157.537667,2812.782580,9400.615463,1072.533697
157.537977,3034.844362,11251.130318,-1838.629195
157.538286,-6217.729913,8586.388927,6358.592633
157.538596,4293.194464,6439.791695,8503.660028
157.538905,1406.391290,-4441.235652,-3524.039291
157.539215,518.144159,4145.153275,-8120.612279
157.539525,2146.597232,9030.512492,306.438199
157.539834,3256.906145,5921.647536,0.000000
157.540144,5477.523971,13249.686362,1072.533697
157.540453,1554.432478,11103.089130,7814.174080
157.540763,-0.000000,4959.379811,5132.839837
157.541073,-1998.556043,8068.244768,-995.924147
157.541382,-3627.009116,13989.892304,0.000000
157.541692,1554.432478,15470.304188,-2681.334243
157.542001,2664.741391,19467.416275,-14862.252661
157.542311,1850.514855,14508.036463,-11721.261119
157.542620,-222.061783,15988.448347,1685.410096
157.542930,-5847.626942,11473.192101,7201.297681
157.543240,-4071.132681,9178.553681,4673.182538
157.543549,6957.935855,9548.656652,2068.457845
157.543859,1998.556043,-74.020594,-4060.306139
157.544168,2146.597232,5699.585753,-1838.629195
157.544478,-2664.741391,5107.421000,1302.362347
157.544787,4885.359217,2516.700203,-3524.039291
157.545097,444.123565,6661.853478,-2221.676944
157.545406,-2368.659014,4219.173869,10955.165621
157.545716,-7105.977043,9326.594869,6894.859482
157.546025,1480.411884,12657.521608,-6281.983084
157.546335,1850.514855,11473.192101,-11338.213370
157.546645,1184.329507,16210.510130,-5898.935335
157.546954,-3404.947333,16728.654289,-3370.820191
157.547264,-666.185348,13693.809927,-1455.581446
157.547573,6217.729913,15470.304188,-5132.839837
157.547883,296.082377,7328.038826,-3064.381992
157.548192,-4959.379811,7031.956449,8733.488677
157.548502,-1110.308913,9770.718434,7737.564530
157.548811,6513.812290,3701.029710,-2987.772442
157.549121,4515.256246,8364.327145,-5362.668486
157.549431,-6069.688724,4737.318029,4903.011187
157.549740,-2220.617826,7105.977043,2298.286494
157.550050,7031.956449,13619.789333,-13406.671215
157.550359,3256.906145,10436.903782,-10725.336972
157.550669,-3775.050304,11843.295072,8963.317327
157.550978,-10658.965565,10288.862594,13636.499864
157.551288,-2590.720797,11991.336260,-2834.553343
157.551597,9696.697840,12731.542202,-14555.814462
157.551907,2442.679609,10584.944971,-7048.078582
157.552217,-4219.173869,14508.036463,-153.219100
157.552526,6587.832884,12731.542202,459.657299
157.552836,4145.153275,3404.947333,-1378.971896
157.553145,-4737.318029,8586.388927,6281.983084
157.553455,-5773.606348,4515.256246,13942.938064
157.553764,-888.247130,2738.761985,2681.334243
157.554074,6291.750507,11843.295072,-14172.766713
157.554383,2146.597232,3256.906145,-7507.735880
157.554693,-2516.700203,6291.750507,2374.896044
157.555003,-4811.338623,11251.130318,2757.943793
157.555312,-740.205942,8882.471304,229.828649
157.555622,6143.709319,12583.501014,-306.438199
157.555931,-2664.741391,7105.977043,1532.190996
157.556241,-4663.297435,13027.624579,6971.469032
157.556550,3627.009116,12435.459826,3140.991542
157.556860,5181.441594,5921.647536,-11031.775171
157.557169,-370.102971,11843.295072,-10342.289223
157.557479,-4367.215058,10436.903782,6741.640382
157.557788,-3330.926739,7994.224174,3370.820191
157.558098,4145.153275,11325.150913,-9806.022374
157.558408,518.144159,10362.883188,-6665.030833
157.558717,-222.061783,2442.679609,842.705048
157.559027,1332.370696,5699.585753,3217.601092
157.559336,666.185348,7550.100608,842.705048
157.559646,2442.679609,9770.718434,2298.286494
157.559955,1110.308913,8660.409521,4673.182538
157.560265,-4293.194464,10288.862594,1608.800546
157.560574,6587.832884,15174.221811,-5056.230287
157.560884,1850.514855,7254.018232,-10342.289223
157.561194,-9474.636058,11473.192101,-2757.943793
157.561503,-2886.803174,13841.851115,5975.544884
157.561813,1554.432478,10362.883188,-8656.879127
157.562122,4515.256246,13397.727550,-13483.280765
157.562432,-4737.318029,8512.368333,2911.162892
157.562741,222.061783,4663.297435,6358.592633
157.563051,7920.203579,3923.091493,0.000000
157.563360,444.123565,4367.215058,4443.353888
157.563670,-2294.638420,8586.388927,8503.660028
157.563980,-370.102971,5921.647536,-3983.696590
157.564289,2146.597232,8808.450710,-10035.851024
157.564599,4515.256246,10214.842000,-3830.477490
157.564908,-5699.585753,9622.677246,1149.143247
157.565218,-1998.556043,11399.171507,1225.752797
157.565527,-1332.370696,12213.398043,3677.258390
157.565837,814.226536,9326.594869,-3983.696590
157.566146,1924.535449,9474.636058,-5669.106685
157.566456,-296.082377,11843.295072,3064.381992
157.566766,-1406.391290,14211.954086,1149.143247
157.567075,1776.494261,16062.468941,-6894.859482
157.567385,-1702.473667,6661.853478,-4979.620737
157.567694,-1702.473667,9400.615463,-2757.943793
157.568004,-1776.494261,10658.965565,-2145.067394
157.568313,2368.659014,9622.677246,3370.820191
157.568623,7328.038826,8808.450710,1991.848295
157.568932,-0.000000,740.205942,4366.744339
157.569242,-4737.318029,4293.194464,7890.783629
157.569552,-3330.926739,6069.688724,4366.744339
157.569861,-2590.720797,5551.544565,-4903.011187
157.570171,3775.050304,13397.727550,-11644.651570
157.570480,148.041188,16432.571912,-8427.050478
157.570790,-4959.379811,11991.336260,-6128.763984
157.571099,-148.041188,11251.130318,-3983.696590
157.571409,-0.000000,8586.388927,4213.525239
157.571718,222.061783,11621.233289,5975.544884
157.572028,-2960.823768,10362.883188,5515.887586
157.572337,962.267725,7846.182985,1991.848295
157.572647,6143.709319,10288.862594,-7048.078582
157.572957,-444.123565,4811.338623,-11338.213370
157.573266,-4071.132681,8438.347739,-2298.286494
157.573576,5847.626942,8882.471304,-2298.286494
157.573885,1480.411884,4589.276840,-4903.011187
157.574195,-5995.668130,8068.244768,9039.926876
157.574504,-1554.432478,9326.594869,9269.755526
157.574814,3701.029710,3256.906145,-4903.011187
157.575123,6587.832884,13693.809927,-6588.421283
157.575433,-4737.318029,10066.800811,4519.963438
157.575743,-2812.782580,10288.862594,6511.811733
157.576052,1036.288319,13989.892304,-3370.820191
157.576362,-148.041188,12805.562797,-6894.859482
157.576671,-0.000000,17098.757260,-5669.106685
157.576981,-4293.194464,14656.077652,-2298.286494
157.577290,-6291.750507,9326.594869,76.609550
157.577600,8512.368333,12213.398043,-4596.572988
157.577909,2072.576638,3404.947333,-9806.022374
157.578219,-6143.709319,4885.359217,5669.106685
157.578529,1628.453072,10362.883188,8427.050478
157.578838,9622.677246,-1036.288319,-7814.174080
157.579148,-518.144159,3997.112087,-766.095498
157.579457,-6143.709319,7105.977043,18616.120601
157.579767,-2960.823768,4441.235652,6894.859482
157.580076,6291.750507,11769.274478,-12947.013916
157.580386,370.102971,9918.759623,-10265.679673
157.580695,-2294.638420,14434.015869,-766.095498
157.581005,-3256.906145,15692.365970,-3830.477490
157.581315,-0.000000,16136.489536,-4749.792088
157.581624,3478.967927,16728.654289,-612.876398
157.581934,-7105.977043,12139.377449,306.438199
157.582243,-1184.329507,11843.295072,-689.485948
157.582553,3256.906145,9548.656652,-4826.401637
157.582862,2738.761985,4515.256246,-7431.126331
157.583172,-4441.235652,5329.482782,919.314598
157.583481,1998.556043,7550.100608,4826.401637
157.583791,4737.318029,2590.720797,-3907.087040
157.584100,740.205942,7179.997637,2451.505594
157.584410,-1776.494261,9030.512492,14785.643111
157.584720,-2664.741391,2516.700203,3140.991542
157.585029,2072.576638,14359.995275,-7431.126331
157.585339,-962.267725,9844.739029,-8580.269578
157.585648,-888.247130,13323.706956,-11797.870669
157.585958,-1776.494261,11325.150913,-10112.460574
157.586267,-888.247130,13323.706956,1991.848295
157.586577,1184.329507,17542.880825,6052.154434
157.586886,-4737.318029,8882.471304,5745.716235
157.587196,-7328.038826,11325.150913,5592.497135
157.587506,3182.885551,10732.986159,-3294.210641
157.587815,10288.862594,6587.832884,-18233.072852
157.588125,-1628.453072,7105.977043,-8044.002729
157.588434,-1036.288319,4663.297435,11797.870669
157.588744,-1036.288319,6143.709319,5209.449386
157.589053,-2960.823768,8808.450710,153.219100
157.589363,-2960.823768,2886.803174,3370.820191
157.589672,1702.473667,6439.791695,-7277.907231
157.589982,6735.874072,10732.986159,-16700.881856
157.590292,-962.267725,11769.274478,-3064.381992
157.590601,2368.659014,14211.954086,4443.353888
157.590911,-2960.823768,8438.347739,2298.286494
157.591220,1184.329507,14434.015869,5745.716235
157.591530,-4071.132681,10955.047942,4060.306139
157.591839,1776.494261,7624.121203,-5132.839837
157.592149,1850.514855,12065.356855,-9806.022374
157.592458,-888.247130,11843.295072,-8427.050478
157.592768,-814.226536,8660.409521,-6435.202183
157.593078,-7254.018232,8808.450710,-2911.162892
157.593387,296.082377,6809.894666,-1838.629195
157.593697,3478.967927,8882.471304,-2911.162892
157.594006,1258.350101,8216.285956,1608.800546
157.594316,-4219.173869,4367.215058,9959.241474
157.594625,4293.194464,3849.070898,5822.325785
157.594935,2738.761985,-0.000000,-3217.601092
157.595244,1258.350101,4811.338623,-3600.648841
157.595554,-4071.132681,10881.027347,2298.286494
157.595864,-7031.956449,12065.356855,3370.820191
157.596173,1110.308913,18801.230927,-8656.879127
157.596483,1776.494261,21317.931130,-13100.233016
157.596792,-962.267725,13027.624579,-7124.688131
157.597102,-4145.153275,13397.727550,842.705048
157.597411,814.226536,10881.027347,-2068.457845
157.597721,3552.988522,8660.409521,-8503.660028
157.598030,-0.000000,5477.523971,995.924147
157.598340,-2664.741391,4293.194464,12487.356617
157.598649,8290.306550,4589.276840,995.924147
157.598959,1702.473667,2886.803174,-306.438199
157.599269,-6365.771101,10362.883188,8197.221829
157.599578,2738.761985,8068.244768,-4290.134789
157.599888,5033.400406,3923.091493,-19688.654299
157.600197,-1110.308913,10584.944971,-6511.811733
157.600507,-2516.700203,12879.583391,4596.572988
157.600816,-222.061783,8586.388927,76.609550
157.601126,-1258.350101,13471.748144,4596.572988
157.601435,-4515.256246,9178.553681,5056.230287
157.601745,-962.267725,11843.295072,-5439.278036
157.602055,6439.791695,15322.262999,-15475.129060
157.602364,-2368.659014,9474.636058,-7277.907231
157.602674,-0.000000,16580.613101,1455.581446
157.602983,2738.761985,10066.800811,-2604.724693
157.603293,-4663.297435,6883.915261,2451.505594
157.603602,3108.864956,6513.812290,7354.516781
157.603912,2664.741391,3330.926739,-3753.867940
157.604221,-0.000000,3775.050304,-6128.763984
157.604531,-2368.659014,4885.359217,3370.820191
157.604841,-296.082377,1998.556043,3294.210641
157.605150,-0.000000,10510.924376,-6894.859482
157.605460,2812.782580,8438.347739,-3524.039291
157.605769,-3404.947333,10288.862594,1762.019645
157.606079,-3997.112087,14730.098246,919.314598
157.606388,6957.935855,16654.633695,-3370.820191
157.606698,-74.020594,16136.489536,-4673.182538
157.607007,-4737.318029,14285.974681,2451.505594
157.607317,-3330.926739,12213.398043,995.924147
157.607627,7179.997637,10066.800811,-13559.890315
157.607936,-296.082377,5255.462188,-7124.688131
157.608246,-7994.224174,9030.512492,9576.193725
157.608555,3330.926739,10955.047942,1608.800546
157.608865,5773.606348,444.123565,-6205.373534
157.609174,-7179.997637,3182.885551,7814.174080
157.609484,-5181.441594,2368.659014,13483.280765
157.609793,1332.370696,7254.018232,-4213.525239
157.610103,3627.009116,15988.448347,-16394.443657
157.610412,888.247130,12731.542202,-6741.640382
157.610722,-888.247130,13545.768739,1149.143247
157.611032,-2146.597232,13767.830521,-1608.800546
157.611341,-3034.844362,13471.748144,689.485948
157.611651,4885.359217,11325.150913,-2374.896044
157.611960,-4145.153275,7402.059420,-4826.401637
157.612270,-3108.864956,7179.997637,995.924147
157.612579,8290.306550,10807.006753,-5286.058936
157.612889,2220.617826,3627.009116,-12947.013916
157.613198,-2590.720797,12361.439231,6894.859482
157.613508,-3108.864956,10658.965565,11874.480219
157.613818,-1480.411884,1554.432478,-3140.991542
157.614127,2294.638420,9918.759623,-4673.182538
157.614437,2812.782580,7328.038826,-4213.525239
157.614746,-740.205942,8660.409521,-10265.679673
157.615056,-1924.535449,9770.718434,-459.657299
157.615365,-1184.329507,11991.336260,5898.935335
157.615675,1924.535449,13323.706956,-3600.648841
157.615984,-1924.535449,11251.130318,-1685.410096
157.616294,-5181.441594,13397.727550,2451.505594
157.616604,5403.503377,12213.398043,-6818.249932
157.616913,6143.709319,8512.368333,-11261.603821
157.617223,-12435.459826,9400.615463,-3140.991542
157.617532,518.144159,10732.986159,229.828649
157.617842,3627.009116,4219.173869,-15168.690860
157.618151,444.123565,5107.421000,-6894.859482
157.618461,-2664.741391,7920.203579,11874.480219
157.618770,3256.906145,5181.441594,3447.429741
157.619080,5995.668130,5699.585753,-2298.286494
157.619390,-1332.370696,2812.782580,8963.317327
157.619699,-2738.761985,5995.668130,7814.174080
157.620009,-1998.556043,8734.430116,-6665.030833
157.620318,2664.741391,13545.768739,-12793.794817
157.620628,1036.288319,16876.695478,-9116.536426
157.620937,-3849.070898,14508.036463,-4443.353888
157.621247,-4515.256246,19171.333898,-2374.896044
157.621556,1258.350101,11843.295072,-6971.469032
157.621866,518.144159,7698.141797,-4749.792088
157.622176,-2368.659014,8956.491898,5439.278036
157.622485,2516.700203,7402.059420,1072.533697
157.622795,2590.720797,1998.556043,-4213.525239
157.623104,1776.494261,4293.194464,7890.783629
157.623414,-0.000000,6365.771101,8427.050478
157.623723,-444.123565,6809.894666,-2911.162892
157.624033,-1036.288319,6735.874072,-5745.716235
157.624342,-1184.329507,5033.400406,-2528.115143
157.624652,-444.123565,11251.130318,-6894.859482
157.624961,-1628.453072,7772.162391,-2451.505594
157.625271,-7031.956449,13471.748144,1685.410096
157.625581,4515.256246,13101.645173,-1685.410096
157.625890,-148.041188,9844.739029,-7048.078582
157.626200,-5107.421000,14878.139434,2374.896044
157.626509,-814.226536,13915.871710,1762.019645
157.626819,5773.606348,11251.130318,-10878.556072
157.627128,-2590.720797,9770.718434,-2221.676944
157.627438,-4145.153275,13545.768739,3677.258390
157.627747,1110.308913,6587.832884,-3064.381992
157.628057,1406.391290,3034.844362,-6052.154434
157.628367,2812.782580,7772.162391,1378.971896
157.628676,3478.967927,5995.668130,5132.839837
157.628986,370.102971,4515.256246,4903.011187
157.629295,-2738.761985,7476.080014,6281.983084
157.629605,2368.659014,9104.533087,1532.190996
157.629914,5107.421000,9326.594869,-8503.660028
157.630224,-3627.009116,12879.583391,-6435.202183
157.630533,-3404.947333,15100.201217,306.438199
157.630843,2590.720797,10881.027347,-2834.553343
157.631153,-5403.503377,20133.601622,-2451.505594
157.631462,74.020594,13915.871710,-3217.601092
157.631772,-4663.297435,15470.304188,-5822.325785
157.632081,2812.782580,10807.006753,-9806.022374
157.632391,5699.585753,2590.720797,-5362.668486
157.632700,-296.082377,7698.141797,1225.752797
157.633010,-3775.050304,-0.000000,10035.851024
157.633319,-3404.947333,3552.988522,10955.165621
157.633629,6291.750507,1554.432478,-1302.362347
157.633939,3923.091493,2886.803174,-6665.030833
157.634248,-3330.926739,8808.450710,2221.676944
157.634558,-0.000000,13249.686362,1685.410096
157.634867,5625.565159,10807.006753,-7277.907231
157.635177,-1628.453072,14582.057057,-4213.525239
157.635486,-3182.885551,14952.160028,4903.011187
157.635796,-2886.803174,9104.533087,2911.162892
157.636105,1702.473667,17394.839637,-5132.839837
157.636415,-2368.659014,13101.645173,-4136.915689
157.636724,-2516.700203,12287.418637,-4366.744339
157.637034,-1184.329507,15026.180623,-6281.983084
157.637344,4219.173869,12213.398043,-8044.002729
157.637653,5403.503377,9992.780217,-5975.544884
157.637963,518.144159,1110.308913,4366.744339
157.638272,-5107.421000,4219.173869,15092.081311
157.638582,4219.173869,1554.432478,7431.126331
157.638891,5107.421000,-2220.617826,-3983.696590
157.639201,-6365.771101,3034.844362,1762.019645
157.639510,-3627.009116,6069.688724,5209.449386
157.639820,-1258.350101,10510.924376,-8733.488677
157.640130,4367.215058,17987.004391,-17313.758255
157.640439,1258.350101,15544.324782,-4366.744339
157.640749,-4811.338623,15470.304188,919.314598
157.641058,-4145.153275,17394.839637,-383.047749
157.641368,1258.350101,9918.759623,689.485948
157.641677,3627.009116,11917.315666,-4136.915689
157.641987,4367.215058,7105.977043,-5132.839837
157.642296,-740.205942,4811.338623,306.438199
157.642606,1332.370696,5699.585753,3524.039291
157.642916,-4811.338623,6587.832884,5439.278036
157.643228,-4219.173869,9622.677246,2451.505594
157.643537,1258.350101,8586.388927,-3830.477490
157.643847,962.267725,8068.244768,-13713.109414
157.644156,6439.791695,6439.791695,-10495.508323
157.644466,3330.926739,7550.100608,-536.266849
157.644775,-2072.576638,7994.224174,6818.249932
157.645085,-2664.741391,9252.574275,14096.157163
157.645394,888.247130,12213.398043,9806.022374
157.645704,1554.432478,11103.089130,-4903.011187
157.646013,3182.885551,10584.944971,-10878.556072
157.646323,-1036.288319,14434.015869,-7124.688131
157.646632,-2812.782580,15766.386565,-6435.202183
157.646942,-1184.329507,14952.160028,-2604.724693
157.647251,-444.123565,16136.489536,-1378.971896
157.647561,1332.370696,7772.162391,-1378.971896
157.647870,296.082377,2590.720797,4290.134789
157.648179,-5329.482782,9104.533087,6665.030833
157.648489,1776.494261,3108.864956,-2145.067394
157.648798,2738.761985,4071.132681,-6971.469032
157.649108,370.102971,7328.038826,-306.438199
157.649417,-1036.288319,5995.668130,1915.238745
157.649727,962.267725,10955.047942,-153.219100
157.650036,4219.173869,9030.512492,229.828649
157.650346,-148.041188,9844.739029,5132.839837
157.650655,-74.020594,9104.533087,4366.744339
157.650965,-0.000000,10140.821405,-1072.533697
157.651274,-2072.576638,14359.995275,-4596.572988
157.651584,592.164754,15914.427753,-5056.230287
157.651893,-2738.761985,14878.139434,-7660.954980
157.652203,-2146.597232,17542.880825,-6205.373534
157.652512,4959.379811,10436.903782,-8810.098227
157.652822,-1628.453072,8512.368333,-4519.963438
157.653131,-4071.132681,10436.903782,9346.365076
157.653441,2960.823768,-296.082377,8810.098227
157.653750,5255.462188,4441.235652,-1608.800546
157.654059,4441.235652,592.164754,2528.115143
157.654369,-148.041188,-962.267725,7201.297681
157.654678,-1036.288319,5033.400406,2528.115143
157.654988,-1332.370696,8734.430116,-842.705048
157.655297,1554.432478,12435.459826,-919.314598
157.655607,-2220.617826,11325.150913,-4979.620737
157.655916,-962.267725,16210.510130,-10418.898773
157.656226,-5403.503377,16284.530724,-5975.544884
157.656535,666.185348,16062.468941,-9499.584175
157.656845,2442.679609,13471.748144,-9422.974625
157.657154,-4737.318029,16728.654289,5209.449386
157.657464,2442.679609,14211.954086,6205.373534
157.657773,5699.585753,5329.482782,-2451.505594
157.658083,740.205942,2590.720797,5669.106685
157.658392,-1702.473667,1998.556043,13100.233016
157.658702,444.123565,4367.215058,-1915.238745
157.659011,3404.947333,-1480.411884,-7124.688131
157.659321,-1924.535449,7846.182985,1532.190996
157.659630,-2072.576638,10658.965565,-689.485948
157.659939,3330.926739,10066.800811,-7048.078582
157.660249,-5699.585753,17690.922014,-4596.572988
157.660558,-962.267725,15840.407159,-2911.162892
157.660868,5107.421000,11325.150913,-8120.612279
157.661177,-1702.473667,14582.057057,-1991.848295
157.661487,-296.082377,13027.624579,6741.640382
157.661796,-74.020594,11843.295072,153.219100
157.662106,1480.411884,11547.212695,-536.266849
157.662415,814.226536,11843.295072,919.314598
157.662725,2368.659014,5329.482782,-3907.087040
157.663034,-2960.823768,8882.471304,-3140.991542
157.663344,-3552.988522,9844.739029,536.266849
157.663653,3182.885551,7328.038826,-7277.907231
157.663963,1924.535449,4959.379811,-9959.241474
157.664272,-1924.535449,1998.556043,2987.772442
157.664582,-3552.988522,2442.679609,9882.631924
157.664891,-1332.370696,4293.194464,4290.134789
157.665201,1702.473667,13471.748144,2451.505594
157.665510,962.267725,12583.501014,0.000000
157.665819,518.144159,17024.736666,-4673.182538
157.666129,962.267725,16432.571912,-9806.022374
157.666438,1776.494261,17024.736666,-5592.497135
157.666748,296.082377,18357.107362,-5592.497135
157.667057,-5329.482782,11473.192101,4290.134789
157.667367,666.185348,10288.862594,6358.592633
157.667676,296.082377,3775.050304,-4903.011187
157.667986,6143.709319,-148.041188,-5515.887586
157.668295,-3923.091493,592.164754,4366.744339
157.668605,-2960.823768,9178.553681,2604.724693
157.668914,2442.679609,9400.615463,-306.438199
157.669224,-2442.679609,10807.006753,-459.657299
157.669533,3330.926739,11325.150913,-3294.210641
157.669843,2072.576638,8734.430116,-7507.735880
157.670152,-592.164754,8808.450710,-2757.943793
157.670462,3256.906145,6587.832884,5822.325785
157.670771,-2072.576638,12361.439231,3217.601092
157.671081,2368.659014,8882.471304,3677.258390
157.671390,-1110.308913,10066.800811,2757.943793
157.671699,-4367.215058,13471.748144,-5745.716235
157.672009,-1924.535449,7624.121203,-9959.241474
157.672318,-888.247130,14434.015869,-7048.078582
157.672628,222.061783,10066.800811,-11414.822920
157.672937,1702.473667,5033.400406,-5822.325785
157.673247,-3108.864956,10881.027347,7277.907231
157.673556,2664.741391,9178.553681,7584.345430
157.673866,4737.318029,814.226536,4213.525239
157.674175,-814.226536,-74.020594,11568.042020
157.674485,-888.247130,3182.885551,6052.154434
157.674794,2664.741391,3997.112087,-7737.564530
157.675104,-0.000000,8364.327145,-6052.154434
157.675413,-1110.308913,14359.995275,766.095498
157.675723,-5699.585753,22872.363608,-919.314598
157.676032,-1036.288319,18579.169144,-5898.935335
157.676342,814.226536,16358.551318,-4290.134789
157.676651,-370.102971,13397.727550,-8810.098227
157.676960,1924.535449,10881.027347,-7277.907231
157.677270,-7328.038826,13027.624579,-919.314598
157.677579,3849.070898,7994.224174,842.705048
157.677889,7105.977043,962.267725,-1915.238745
157.678198,-4071.132681,2664.741391,10725.336972
157.678508,-1332.370696,5255.462188,14785.643111
157.678817,3404.947333,-666.185348,-3600.648841
157.679127,-2220.617826,2664.741391,-536.266849
157.679436,2368.659014,10732.986159,2451.505594
157.679746,-2590.720797,10732.986159,-10572.117872
157.680055,370.102971,15618.345376,-8656.879127
157.680365,-3923.091493,15396.283594,-2451.505594
157.680674,-1332.370696,15100.201217,-6358.592633
157.680984,1628.453072,12805.562797,-4060.306139
157.681293,-3552.988522,14878.139434,3524.039291
157.681603,2664.741391,11029.068536,3524.039291
157.681912,4737.318029,8956.491898,229.828649
157.682222,-2738.761985,12805.562797,1838.629195
157.682531,2590.720797,5699.585753,-1608.800546
157.682840,5921.647536,6587.832884,-4366.744339
157.683150,-7105.977043,9770.718434,2145.067394
157.683459,3256.906145,12583.501014,-306.438199
157.683769,3108.864956,7254.018232,-13330.061665
157.684078,1184.329507,3034.844362,-2221.676944
157.684388,74.020594,1332.370696,13942.938064
157.684697,-6735.874072,5699.585753,6205.373534
157.685007,740.205942,8142.265362,76.609550
157.685316,-1998.556043,10436.903782,-1225.752797
157.685626,6365.771101,13101.645173,-13866.328514
157.685935,2368.659014,12509.480420,-17620.196454
157.686245,-6439.791695,18653.189738,1838.629195
157.686554,-2220.617826,18061.024985,7354.516781
157.686864,5477.523971,11621.233289,383.047749
157.687173,-5329.482782,8808.450710,7354.516781
157.687483,2368.659014,2960.823768,7584.345430
157.687792,2664.741391,1776.494261,-8120.612279
157.688102,-7179.997637,2738.761985,-4903.011187
157.688411,-0.000000,10658.965565,612.876398
157.688720,2072.576638,12879.583391,-9346.365076
157.689030,1554.432478,12583.501014,-7201.297681
157.689339,-4811.338623,15248.242405,9806.022374
157.689649,3478.967927,9326.594869,0.000000
157.689958,8068.244768,666.185348,-7584.345430
157.690268,-2220.617826,1628.453072,8733.488677
157.690577,-4737.318029,2072.576638,17160.539155
157.690887,-0.000000,12805.562797,1532.190996
157.691196,-3478.967927,17542.880825,-5669.106685
157.691506,1036.288319,21169.889941,-16854.100956
157.691815,3552.988522,12953.603985,-21986.940793
157.692125,-3404.947333,8956.491898,-13176.842566
157.692434,-1554.432478,12509.480420,3140.991542
157.692744,-2368.659014,6809.894666,3140.991542
157.693053,4811.338623,1406.391290,9806.022374
157.693363,4811.338623,1628.453072,16241.224558
157.693672,-740.205942,4663.297435,3907.087040
157.693982,2590.720797,6587.832884,-3524.039291
157.694291,-888.247130,12731.542202,-2528.115143
157.694600,2294.638420,9326.594869,-11108.384721
157.694910,1776.494261,11769.274478,-9806.022374
157.695219,-7550.100608,19023.292709,-536.266849
157.695529,-1480.411884,10362.883188,2681.334243
157.695838,5699.585753,13323.706956,-5286.058936
157.696148,-2072.576638,5181.441594,-1072.533697
157.696457,1406.391290,2368.659014,7660.954980
157.696767,-3701.029710,10732.986159,2528.115143
157.697076,-6069.688724,15692.365970,-6128.763984
157.697386,5107.421000,14285.974681,-5592.497135
157.697695,2368.659014,10436.903782,-14172.766713
157.698005,-2220.617826,5995.668130,-8197.221829
157.698314,1258.350101,7920.203579,5745.716235
157.698624,-370.102971,2220.617826,6052.154434
157.698933,1554.432478,4441.235652,8886.707777
157.699243,-888.247130,7846.182985,13559.890315
157.699552,518.144159,3182.885551,-1225.752797
157.699862,2442.679609,7994.224174,-11338.213370
157.700171,-5847.626942,14434.015869,-10648.727422
157.700480,-4441.235652,14211.954086,-9652.803275
157.700790,5329.482782,21614.013506,-12640.575717
157.701099,-8290.306550,12213.398043,-3907.087040
157.701409,2442.679609,12065.356855,2604.724693
157.701718,3701.029710,11621.233289,-1149.143247
157.702028,4515.256246,3256.906145,-1455.581446
157.702337,-0.000000,1850.514855,12257.527968
157.702647,-2072.576638,-0.000000,9116.536426
157.702956,-3552.988522,4885.359217,0.000000
157.703266,-2072.576638,18949.272115,-6281.983084
157.703575,-0.000000,12361.439231,-15934.786358
157.703885,5477.523971,7772.162391,-19228.997000
157.704194,-5625.565159,8364.327145,-3830.477490
157.704504,-4145.153275,3182.885551,5515.887586
157.704813,-0.000000,3775.050304,8580.269578
157.705123,2072.576638,9252.574275,12257.527968
157.705432,2664.741391,10436.903782,11031.775171
157.705741,2738.761985,15988.448347,-306.438199
157.706051,-5403.503377,10584.944971,-9422.974625
157.706360,740.205942,14285.974681,-7507.735880
157.706670,296.082377,14730.098246,-16241.224558
157.706979,-2146.597232,10436.903782,-12640.575717
157.707289,-7476.080014,12731.542202,5209.449386
157.707598,-3775.050304,6957.935855,6818.249932
157.707908,5625.565159,7920.203579,-2451.505594
157.708217,296.082377,5181.441594,766.095498
157.708527,-592.164754,2146.597232,153.219100
157.708836,4737.318029,1110.308913,-1302.362347
157.709146,-74.020594,7476.080014,-459.657299
157.709455,962.267725,13915.871710,-612.876398
157.709765,-962.267725,6809.894666,-1532.190996
157.710074,-3256.906145,7105.977043,3677.258390
157.710384,-0.000000,9474.636058,1455.581446
157.710693,296.082377,10955.047942,-6052.154434
157.711003,-2368.659014,11843.295072,-3064.381992
157.711312,-2590.720797,12953.603985,3294.210641
157.711621,1184.329507,15396.283594,-5209.449386
157.711931,-3701.029710,13471.748144,-6818.249932
157.712240,-6217.729913,16506.592507,3370.820191
157.712550,5847.626942,8882.471304,-7584.345430
157.712859,2220.617826,2516.700203,-6588.421283
157.713169,-8734.430116,7105.977043,9959.241474
157.713478,-1702.473667,6587.832884,9193.145976
157.713788,8438.347739,3478.967927,-7431.126331
157.714097,3552.988522,6513.812290,-3447.429741
157.714407,-3775.050304,4885.359217,8886.707777
157.714716,-1554.432478,6069.688724,1838.629195
157.715026,-1776.494261,6587.832884,-4903.011187
157.715335,-2960.823768,16950.716072,1685.410096
157.715645,3997.112087,12805.562797,-6818.249932
157.715954,1406.391290,7550.100608,-16930.710506
157.716264,-1998.556043,12509.480420,-2451.505594
157.716573,-2590.720797,9474.636058,4519.963438
157.716883,1110.308913,10807.006753,-1532.190996
157.717192,2072.576638,17764.942608,3217.601092
157.717501,2590.720797,14952.160028,-1915.238745
157.717811,2738.761985,13619.789333,-5362.668486
157.718120,-444.123565,2960.823768,-995.924147
157.718430,-518.144159,6439.791695,-3524.039291
157.718739,1036.288319,3256.906145,-3524.039291
157.719049,-2960.823768,-2442.679609,7048.078582
157.719358,-3404.947333,9104.533087,8273.831378
157.719668,1258.350101,9326.594869,-459.657299
157.719977,296.082377,13249.686362,-6281.983084
157.720287,-1554.432478,11325.150913,-4136.915689
157.720596,5033.400406,10955.047942,-7967.393179
157.720906,-962.267725,8068.244768,-8886.707777
157.721215,-9400.615463,14137.933492,6665.030833
157.721525,3552.988522,18949.272115,4213.525239
157.721834,1924.535449,13767.830521,-8120.612279
157.722144,518.144159,13101.645173,-2221.676944
157.722453,-222.061783,4515.256246,0.000000
157.722763,2368.659014,4219.173869,-8350.440928
157.723072,-4589.276840,6883.915261,536.266849
157.723381,-3627.009116,11251.130318,8120.612279
157.723691,5995.668130,9252.574275,-5898.935335
157.724000,5329.482782,6883.915261,-8656.879127
157.724310,-2220.617826,10955.047942,5745.716235
157.724619,-1554.432478,3182.885551,1302.362347
157.724929,5329.482782,3404.947333,-7660.954980
157.725238,814.226536,11547.212695,-1762.019645
157.725548,-5033.400406,8216.285956,7124.688131
157.725857,444.123565,17394.839637,5898.935335
157.726167,-2664.741391,16728.654289,-3064.381992
157.726476,1628.453072,16062.468941,-11261.603821
157.726786,444.123565,11103.089130,-11797.870669
157.727095,-2516.700203,8438.347739,-8656.879127
157.727405,-2812.782580,12139.377449,0.000000
157.727714,-0.000000,16728.654289,-536.266849
157.728024,3404.947333,7476.080014,-2145.067394
157.728333,3182.885551,3923.091493,1991.848295
157.728643,1036.288319,2738.761985,7048.078582
157.728952,-3182.885551,-5847.626942,4519.963438
157.729261,222.061783,5921.647536,2987.772442
157.729571,2812.782580,1702.473667,-995.924147
157.729880,2738.761985,7994.224174,-766.095498
157.730190,-6217.729913,13841.851115,3370.820191
157.730499,-962.267725,15988.448347,-919.314598
157.730809,4219.173869,16580.613101,-11491.432470
157.731118,-1924.535449,10066.800811,-4060.306139
157.731428,-1480.411884,10807.006753,2987.772442
157.731737,-3923.091493,14211.954086,-5056.230287
157.732047,1850.514855,14359.995275,-2145.067394
157.732356,1332.370696,13101.645173,842.705048
157.732666,740.205942,7994.224174,-4826.401637
157.732975,-5699.585753,5107.421000,995.924147
157.733285,-3775.050304,6661.853478,5439.278036
157.733594,5699.585753,4737.318029,-5362.668486
157.733904,7402.059420,5033.400406,-5669.106685
157.734213,-5403.503377,7105.977043,4290.134789
157.734522,-3923.091493,4145.153275,4519.963438
157.734832,6439.791695,6217.729913,-2221.676944
157.735141,-4737.318029,814.226536,3217.601092
157.735451,-222.061783,8142.265362,5515.887586
157.735760,-7031.956449,9252.574275,-2068.457845
157.736070,-444.123565,10066.800811,-9346.365076
157.736379,3330.926739,18061.024985,-6052.154434
157.736689,-666.185348,17912.983796,-7660.954980
157.736998,-5477.523971,16580.613101,-1378.971896
157.737308,-2442.679609,15840.407159,1762.019645
157.737617,9770.718434,8364.327145,-5975.544884
157.737927,1998.556043,4663.297435,-766.095498
157.738236,-6957.935855,9770.718434,11721.261119
157.738546,1628.453072,-0.000000,-1225.752797
157.738855,5551.544565,2368.659014,-7124.688131
157.739165,-2960.823768,8290.306550,5592.497135
157.739474,-2590.720797,5699.585753,2528.115143
157.739784,-222.061783,13619.789333,-9269.755526
157.740093,1702.473667,12583.501014,-6435.202183
157.740402,2294.638420,11029.068536,-3140.991542
157.740712,-0.000000,9474.636058,-2221.676944
157.741021,-4145.153275,13767.830521,3677.258390
157.741331,2960.823768,12731.542202,6358.592633
157.741640,3330.926739,7179.997637,-4366.744339
157.741950,1184.329507,7476.080014,-2145.067394
157.742259,-6513.812290,14508.036463,3294.210641
157.742569,6217.729913,9696.697840,-8733.488677
157.742878,-2368.659014,9104.533087,-6358.592633
157.743188,-6809.894666,12583.501014,7048.078582
157.743497,2960.823768,10214.842000,-2145.067394
157.743807,4737.318029,8216.285956,-13942.938064
157.744116,-1850.514855,1776.494261,5439.278036
157.744426,-4959.379811,8586.388927,10955.165621
157.744735,3256.906145,7254.018232,-5286.058936
157.745045,8586.388927,5699.585753,-5592.497135
157.745354,-370.102971,9548.656652,6511.811733
157.745663,-8586.388927,8734.430116,7201.297681
157.745973,1110.308913,12879.583391,-2681.334243
157.746282,-222.061783,11843.295072,-5439.278036
157.746592,2146.597232,9400.615463,-10189.070123
157.746901,-4071.132681,7846.182985,-3294.210641
157.747211,-9918.759623,16432.571912,2374.896044
157.747520,2146.597232,16654.633695,-8580.269578
157.747830,7031.956449,8512.368333,-14938.862211
157.748139,-592.164754,6217.729913,2604.724693
157.748449,-222.061783,4589.276840,9193.145976
157.748758,3775.050304,4737.318029,-2757.943793
157.749068,1258.350101,1332.370696,5592.497135
157.749377,-740.205942,5181.441594,15704.957709
157.749686,3256.906145,7179.997637,689.485948
157.749996,5181.441594,5403.503377,-12104.308868
157.750305,-2220.617826,14137.933492,-3217.601092
157.750615,-1110.308913,10140.821405,-1608.800546
157.750924,-1702.473667,16210.510130,-7048.078582
157.751234,-962.267725,15692.365970,-5745.716235
157.751543,-0.000000,6883.915261,-1532.190996
157.751853,-1998.556043,12731.542202,3983.696590
157.752162,-3627.009116,11473.192101,4749.792088
157.752472,3034.844362,12509.480420,-4443.353888
157.752781,518.144159,4885.359217,-4213.525239
157.753091,-1036.288319,7105.977043,1915.238745
157.753400,-2516.700203,11399.171507,689.485948
157.753709,5995.668130,12731.542202,-5209.449386
157.754019,4589.276840,5477.523971,-2911.162892
157.754328,-3034.844362,4515.256246,4749.792088
157.754638,-888.247130,-0.000000,8810.098227
157.754947,1184.329507,2590.720797,-766.095498
157.755257,-444.123565,5995.668130,-1915.238745
157.755566,-0.000000,6069.688724,1762.019645
157.755876,-3256.906145,13841.851115,-3677.258390
157.756185,-3256.906145,17394.839637,-7277.907231
157.756495,7402.059420,21614.013506,-11031.775171
157.756804,-1332.370696,13397.727550,-10418.898773
157.757114,-2220.617826,9474.636058,2068.457845
157.757423,-1924.535449,9992.780217,5362.668486
157.757732,2886.803174,11325.150913,-6665.030833
157.758042,1850.514855,5551.544565,383.047749
157.758351,-2294.638420,4811.338623,9576.193725
157.758661,6439.791695,7105.977043,-3294.210641
157.758970,592.164754,6069.688724,-8733.488677
157.759280,-3256.906145,7846.182985,2451.505594
157.759589,-1036.288319,4441.235652,2528.115143
157.759899,962.267725,8438.347739,-10725.336972
157.760208,-5107.421000,10214.842000,1762.019645
157.760518,4885.359217,8734.430116,2374.896044
157.760827,1036.288319,9474.636058,-8273.831378
157.761137,888.247130,9474.636058,383.047749
157.761446,-1850.514855,11177.109724,5592.497135
157.761755,666.185348,17246.798449,-6894.859482
157.762065,-1480.411884,13471.748144,-4443.353888
157.762374,962.267725,13175.665768,2374.896044
157.762684,5033.400406,10732.986159,-8886.707777
157.762993,-2442.679609,7179.997637,-7507.735880
157.763303,-11547.212695,8660.409521,7890.783629
157.763612,6217.729913,7105.977043,-3907.087040
157.763922,7105.977043,6365.771101,-15015.471761
157.764231,-2294.638420,9992.780217,7354.516781
157.764541,-4811.338623,4219.173869,14938.862211
157.764850,3034.844362,5255.462188,459.657299
157.765160,2886.803174,4737.318029,-995.924147
157.765469,814.226536,9992.780217,-1225.752797
157.765778,-518.144159,9622.677246,-10418.898773
157.766088,1850.514855,9474.636058,-5515.887586
157.766397,1184.329507,12065.356855,-2757.943793
157.766707,3701.029710,16432.571912,-7354.516781
157.767016,-3923.091493,11621.233289,1608.800546
157.767326,-2220.617826,11547.212695,13789.718964
157.767635,-0.000000,8364.327145,1991.848295
157.767945,2220.617826,6883.915261,-9499.584175
157.768254,-6661.853478,10436.903782,-1685.410096
157.768564,-666.185348,6365.771101,-4749.792088
157.768873,5107.421000,7772.162391,-16471.053207
157.769183,-2220.617826,14359.995275,-1608.800546
157.769492,-9326.594869,12287.418637,11184.994271
157.769801,7402.059420,11695.253884,1302.362347
157.770111,7105.977043,5181.441594,-2834.553343
157.770420,2368.659014,148.041188,6052.154434
157.770730,-4737.318029,962.267725,7967.393179
157.771039,518.144159,5921.647536,0.000000
157.771349,-0.000000,10362.883188,-766.095498
157.771658,-370.102971,9992.780217,-2681.334243
157.771968,-2664.741391,14730.098246,-6511.811733
157.772277,-4737.318029,21021.848753,-4519.963438
157.772587,5329.482782,12287.418637,-9116.536426
157.772896,-1184.329507,7031.956449,-8656.879127
157.773206,-4367.215058,11843.295072,3217.601092
157.773515,-2886.803174,10881.027347,7737.564530
157.773824,8956.491898,7476.080014,-2834.553343
157.774134,3627.009116,5699.585753,2298.286494
157.774443,-1998.556043,10955.047942,12104.308868
157.774753,-814.226536,9400.615463,4290.134789
157.775062,-3182.885551,3552.988522,-2911.162892
157.775372,4515.256246,12879.583391,-5822.325785
157.775681,-2072.576638,7550.100608,-10418.898773
157.775991,-518.144159,10436.903782,-5898.935335
157.776300,-5107.421000,15692.365970,995.924147
157.776610,3923.091493,5255.462188,-2911.162892
157.776919,4589.276840,6365.771101,689.485948
157.777229,-592.164754,6809.894666,7967.393179
157.777538,-518.144159,6217.729913,5745.716235
157.777847,1924.535449,6217.729913,-2374.896044
157.778157,-1924.535449,7476.080014,-2604.724693
157.778466,888.247130,13397.727550,-5056.230287
157.778776,2738.761985,12435.459826,-11568.042020
157.779085,-2590.720797,9400.615463,-3294.210641
157.779395,444.123565,14359.995275,2987.772442
157.779704,2368.659014,11029.068536,-4979.620737
157.780014,814.226536,7624.121203,-4826.401637
157.780323,-2072.576638,4367.215058,10878.556072
157.780633,-2590.720797,-814.226536,9039.926876
157.780942,-666.185348,5403.503377,-3294.210641
157.781251,3256.906145,10066.800811,-3217.601092
157.781561,592.164754,10955.047942,-6128.763984
157.781870,-2516.700203,10807.006753,-6665.030833
157.782180,1776.494261,17987.004391,-2221.676944
157.782489,5551.544565,17024.736666,-6281.983084
157.782799,-3627.009116,9770.718434,1532.190996
157.783108,-2368.659014,8142.265362,13100.233016
157.783418,-3997.112087,7402.059420,536.266849
157.783727,6365.771101,6291.750507,-11338.213370
157.784037,740.205942,7846.182985,-4290.134789
157.784346,-4589.276840,9030.512492,-2451.505594
157.784656,222.061783,9326.594869,-4673.182538
157.784965,1480.411884,8068.244768,-1149.143247
157.785274,1184.329507,9770.718434,3677.258390
157.785584,5255.462188,6439.791695,2528.115143
157.785893,1480.411884,7179.997637,2145.067394
157.786203,-5773.606348,7846.182985,5592.497135
157.786512,4145.153275,9474.636058,-5745.716235
157.786822,-740.205942,11399.171507,-12947.013916
157.787131,370.102971,8216.285956,1838.629195
157.787441,-2442.679609,14952.160028,3600.648841
157.787750,1702.473667,12583.501014,-4596.572988
157.788060,-2368.659014,9400.615463,-229.828649
157.788369,888.247130,5847.626942,4213.525239
157.788679,2294.638420,6069.688724,-6128.763984
157.788988,-5847.626942,9918.759623,-3983.696590
157.789297,-2368.659014,13693.809927,2451.505594
157.789607,11991.336260,8216.285956,-10342.289223
157.789916,3997.112087,11843.295072,-10801.946522
157.790226,-3849.070898,11991.336260,14325.985813
157.790535,-3404.947333,6957.935855,16088.005458
157.790845,2294.638420,3701.029710,-919.314598
157.791154,-0.000000,2442.679609,-1149.143247
157.791464,-3923.091493,9622.677246,-5822.325785
157.791773,3849.070898,13471.748144,-17466.977354
157.792083,-1776.494261,13175.665768,-8810.098227
157.792392,-666.185348,14508.036463,2987.772442
157.792702,3034.844362,15914.427753,76.609550
157.793011,-4515.256246,11917.315666,5822.325785
157.793320,-5403.503377,9696.697840,12334.137518
157.793630,4293.194464,1332.370696,-1608.800546
157.793939,9622.677246,888.247130,-13176.842566
157.794249,-9400.615463,4145.153275,2834.553343
157.794558,-5033.400406,8216.285956,6818.249932
157.794868,2738.761985,12139.377449,-6588.421283
157.795177,-2664.741391,13175.665768,-689.485948
157.795487,3256.906145,20207.622217,3064.381992
157.795796,1406.391290,12583.501014,-13023.623466
157.796106,-1258.350101,2738.761985,-4749.792088
157.796415,-222.061783,3034.844362,7431.126331
157.796725,2072.576638,4885.359217,-4519.963438
157.797034,3552.988522,13175.665768,3370.820191
157.797343,-4367.215058,10807.006753,15398.519510
157.797653,-296.082377,12731.542202,4749.792088
157.797962,3701.029710,14285.974681,-11568.042020
157.798272,-5403.503377,12731.542202,-3677.258390
157.798581,2664.741391,12139.377449,-7507.735880
157.798891,370.102971,4811.338623,-14402.595362
157.799200,-5255.462188,11769.274478,76.609550
157.799510,-3775.050304,13915.871710,5132.839837
157.799819,7105.977043,8142.265362,-6741.640382
157.800129,7772.162391,4515.256246,-383.047749
157.800438,-5033.400406,3923.091493,17160.539155
157.800748,-3182.885551,4959.379811,7354.516781
157.801057,2664.741391,5107.421000,-8503.660028
157.801366,-0.000000,14434.015869,-1608.800546
157.801676,-740.205942,10362.883188,-3830.477490
157.801985,-5477.523971,11029.068536,-5975.544884
157.802295,1184.329507,18653.189738,-3600.648841
157.802604,5107.421000,7772.162391,-5515.887586
157.802914,-1776.494261,5995.668130,-2604.724693
157.803223,-11843.295072,11251.130318,9806.022374
157.803533,888.247130,7179.997637,2681.334243
157.803842,7254.018232,9696.697840,-11644.651570
157.804152,2812.782580,6069.688724,-6665.030833
157.804461,-6957.935855,9030.512492,4749.792088
157.804771,2664.741391,13767.830521,-2374.896044
157.805080,5773.606348,8734.430116,-6665.030833
157.805389,5699.585753,9918.759623,4060.306139
157.805699,-7105.977043,12583.501014,5209.449386
157.806008,-3849.070898,10140.821405,0.000000
157.806318,-1258.350101,10140.821405,-2987.772442
157.806627,5255.462188,4293.194464,-11184.994271
157.806937,888.247130,8586.388927,-11261.603821
157.807246,-6661.853478,11325.150913,3753.867940
157.807556,-3182.885551,11843.295072,4826.401637
157.807865,3701.029710,14211.954086,-3447.429741
157.808175,5033.400406,13693.809927,-1532.190996
157.808484,4441.235652,11103.089130,4979.620737
157.808794,-5921.647536,6143.709319,-459.657299
157.809103,370.102971,4959.379811,2145.067394
157.809412,1998.556043,9178.553681,-2451.505594
157.809722,4663.297435,11843.295072,-12487.356617
157.810031,-5699.585753,11103.089130,-3907.087040
157.810341,-0.000000,10214.842000,3447.429741
157.810650,222.061783,1480.411884,-229.828649
157.810960,1776.494261,7402.059420,-2221.676944
157.811269,-1850.514855,7105.977043,-76.609550
157.811579,-1776.494261,6883.915261,-536.266849
157.811888,3701.029710,8586.388927,-306.438199
157.812198,1332.370696,10066.800811,1149.143247
157.812507,3923.091493,18357.107362,-4979.620737
157.812817,-1998.556043,11769.274478,-766.095498
157.813126,-4811.338623,6439.791695,7737.564530
157.813435,2072.576638,7254.018232,1455.581446
157.813745,5551.544565,9696.697840,-13559.890315
157.814054,-1554.432478,9992.780217,-5975.544884
157.814364,-7476.080014,9030.512492,7124.688131
157.814673,370.102971,10066.800811,1072.533697
157.814983,1776.494261,12435.459826,-4290.134789
157.815292,1184.329507,18061.024985,1378.971896
157.815602,-1776.494261,11991.336260,-1378.971896
157.815911,518.144159,10362.883188,-5056.230287
157.816221,-3034.844362,9252.574275,0.000000
157.816530,5847.626942,6661.853478,-8810.098227
157.816839,3182.885551,8364.327145,-9116.536426
157.817149,-6513.812290,9696.697840,12410.747068
157.817458,-0.000000,9918.759623,11721.261119
157.817768,10066.800811,12139.377449,-9882.631924
157.818077,4959.379811,4885.359217,-5132.839837
157.818387,-8956.491898,3849.070898,12563.966167
157.818696,-3108.864956,10510.924376,919.314598
157.819006,-1110.308913,7698.141797,-13023.623466
157.819315,-1480.411884,14730.098246,-5898.935335
157.819625,2368.659014,10955.047942,-9346.365076
157.819934,-74.020594,6957.935855,-10801.946522
157.820244,-5773.606348,16136.489536,1762.019645
157.820553,1406.391290,7179.997637,1532.190996
157.820862,5773.606348,9252.574275,-1915.238745
157.821172,-814.226536,6069.688724,10648.727422
157.821481,-3182.885551,4589.276840,10725.336972
157.821791,444.123565,7698.141797,-5132.839837
157.822100,-1332.370696,5773.606348,-7124.688131
157.822410,-148.041188,8290.306550,-4903.011187
157.822719,-592.164754,11843.295072,-12104.308868
157.823029,-3923.091493,10658.965565,-10112.460574
157.823338,-666.185348,12657.521608,5898.935335
157.823648,5699.585753,6513.812290,-459.657299
157.823957,3627.009116,6439.791695,-1378.971896
157.824267,-11399.171507,6291.750507,13406.671215
157.824576,-1702.473667,9030.512492,7431.126331
157.824885,9992.780217,6809.894666,-11951.089769
157.825195,4293.194464,12435.459826,-6588.421283
157.825504,-6513.812290,13841.851115,919.314598
157.825814,-2072.576638,19541.436869,-4673.182538
157.826123,-3627.009116,6883.915261,-4443.353888
157.826433,-74.020594,9474.636058,153.219100
157.826742,-444.123565,11325.150913,-7201.297681
157.827052,-0.000000,5551.544565,-4366.744339
157.827361,-5773.606348,8142.265362,5056.230287
157.827671,8660.409521,5847.626942,-5362.668486
157.827980,2146.597232,6291.750507,-7890.783629
157.828290,-6143.709319,11029.068536,11108.384721
157.828599,1406.391290,4737.318029,9269.755526
157.828908,8808.450710,4885.359217,-4826.401637
157.829218,-2516.700203,8438.347739,2451.505594
157.829527,-3034.844362,9548.656652,612.876398
157.829837,5699.585753,9622.677246,-14096.157163
157.830146,3997.112087,6883.915261,-6205.373534
157.830456,-5181.441594,11695.253884,7354.516781
157.830765,-2960.823768,15766.386565,-383.047749
157.831075,-6439.791695,15692.365970,-4903.011187
157.831384,1184.329507,13249.686362,2451.505594
157.831694,4441.235652,8512.368333,-9882.631924
157.832003,1924.535449,5551.544565,-13636.499864
157.832313,-10288.862594,11547.212695,6358.592633
157.832622,1184.329507,6365.771101,5745.716235
157.832931,6291.750507,5921.647536,-5592.497135
157.833241,2368.659014,12065.356855,4290.134789
157.833550,-222.061783,9104.533087,7967.393179
157.833860,5033.400406,3923.091493,-4060.306139
157.834169,-6513.812290,-2516.700203,4749.792088
157.834479,-4663.297435,10955.047942,4596.572988
157.834788,518.144159,9030.512492,-8350.440928
157.835098,3404.947333,12287.418637,-6511.811733
157.835407,-3182.885551,10436.903782,3294.210641
157.835717,1184.329507,11843.295072,-2451.505594
157.836026,518.144159,14359.995275,-6511.811733
157.836336,-5107.421000,15692.365970,1685.410096
157.836645,4663.297435,13619.789333,0.000000
157.836954,3849.070898,10436.903782,-7737.564530
157.837264,-4367.215058,14063.912898,459.657299
157.837573,-3997.112087,9844.739029,383.047749
157.837883,5625.565159,7402.059420,-8503.660028
157.838192,518.144159,3404.947333,-3370.820191
157.838502,-1554.432478,7624.121203,7354.516781
157.838811,1184.329507,6957.935855,995.924147
157.839121,4219.173869,-1110.308913,1762.019645
157.839430,-2812.782580,4441.235652,8197.221829
157.839740,-2886.803174,6735.874072,3907.087040
157.840049,-370.102971,12509.480420,-5592.497135
157.840359,2442.679609,13471.748144,-4749.792088
157.840668,3034.844362,10066.800811,-5822.325785
157.840977,-2812.782580,16136.489536,-7507.735880
157.841287,-5403.503377,21021.848753,-76.609550
157.841596,5181.441594,11769.274478,-4443.353888
157.841906,3775.050304,7994.224174,-2068.457845
157.842215,-6217.729913,6439.791695,9576.193725
157.842525,-1406.391290,5699.585753,7431.126331
157.842834,1850.514855,6217.729913,-3983.696590
157.843144,1184.329507,6365.771101,-995.924147
157.843453,-3330.926739,8364.327145,2834.553343
157.843763,3330.926739,9326.594869,-7201.297681
157.844072,2294.638420,7402.059420,-9039.926876
157.844381,-5551.544565,6661.853478,3524.039291
157.844691,-1702.473667,8216.285956,4903.011187
157.845000,4145.153275,9548.656652,-3064.381992
157.845310,518.144159,12657.521608,2604.724693
157.845619,666.185348,8068.244768,7354.516781
157.845928,-296.082377,11991.336260,0.000000
157.846238,-518.144159,13693.809927,-5362.668486
157.846547,-1850.514855,14434.015869,-8044.002729
157.846857,370.102971,16358.551318,-7507.735880
157.847166,-4145.153275,9474.636058,-2221.676944
157.847476,-296.082377,12287.418637,-4443.353888
157.847785,5699.585753,13101.645173,-10878.556072
157.848094,-1184.329507,888.247130,1685.410096
157.848404,-7105.977043,2146.597232,15245.300410
157.848713,6661.853478,3923.091493,842.705048
157.849023,10288.862594,6587.832884,-7201.297681
157.849332,-5995.668130,7624.121203,8656.879127
157.849641,-2072.576638,4145.153275,10112.460574
157.849951,8586.388927,10881.027347,-7660.954980
157.850260,-1924.535449,13249.686362,-7124.688131
157.850570,-2368.659014,12213.398043,1455.581446
157.850879,-4293.194464,9918.759623,-3677.258390
157.851188,2368.659014,17468.860231,-4826.401637
157.851498,-4071.132681,13101.645173,-3447.429741
157.851807,-2886.803174,17912.983796,-6818.249932
157.852117,222.061783,9178.553681,-2911.162892
157.852426,-1702.473667,10436.903782,229.828649
157.852735,-0.000000,10140.821405,995.924147
157.853045,1480.411884,7105.977043,-306.438199
157.853354,-2812.782580,7698.141797,3524.039291
157.853664,3478.967927,3034.844362,-306.438199
157.853973,6217.729913,2516.700203,-3600.648841
157.854283,-2294.638420,3182.885551,1149.143247
157.854592,1110.308913,5773.606348,4443.353888
157.854901,3997.112087,6291.750507,-1455.581446
157.855211,2072.576638,9622.677246,-1225.752797
157.855520,-4145.153275,10732.986159,1455.581446
157.855830,-2812.782580,14211.954086,0.000000
157.856139,-1554.432478,11399.171507,-10725.336972
157.856448,666.185348,15174.221811,-10418.898773
157.856758,-4885.359217,13471.748144,-6128.763984
157.857067,-592.164754,12065.356855,-1455.581446
157.857377,-296.082377,14952.160028,-1455.581446
157.857686,5477.523971,10658.965565,-3217.601092
157.857995,-370.102971,7179.997637,2221.676944
157.858305,-6661.853478,8142.265362,9116.536426
157.858614,6957.935855,3552.988522,76.609550
157.858924,5255.462188,370.102971,-9346.365076
157.859233,-1628.453072,3182.885551,2145.067394
157.859542,-5033.400406,5255.462188,7431.126331
157.859852,296.082377,10066.800811,-6435.202183
157.860161,4515.256246,6439.791695,-8427.050478
157.860471,2886.803174,6883.915261,536.266849
157.860780,-4071.132681,9918.759623,3447.429741
157.861089,-1036.288319,12731.542202,383.047749
157.861399,888.247130,13989.892304,-1072.533697
157.861708,3404.947333,14137.933492,-5132.839837
157.862018,-3775.050304,16136.489536,-995.924147
157.862327,-5699.585753,18135.045579,-689.485948
157.862637,6069.688724,8364.327145,-7277.907231
157.862946,2886.803174,5699.585753,-5132.839837
157.863255,-6143.709319,7476.080014,9193.145976
157.863565,-4145.153275,9030.512492,5439.278036
157.863874,5033.400406,7105.977043,-7048.078582
157.864184,-1702.473667,5107.421000,-7354.516781
157.864493,1258.350101,5329.482782,-689.485948
157.864802,2294.638420,7476.080014,-7660.954980
157.865112,1332.370696,7105.977043,-842.705048
157.865421,-3108.864956,10584.944971,7507.735880
157.865731,4515.256246,9326.594869,-1762.019645
157.866040,7994.224174,10214.842000,-3294.210641
157.866349,-6809.894666,7994.224174,7737.564530
157.866659,-4219.173869,6365.771101,7277.907231
157.866968,-1776.494261,12509.480420,-9422.974625
157.867278,-1776.494261,15840.407159,-6741.640382
157.867587,1924.535449,18579.169144,-12104.308868
157.867896,-1258.350101,14137.933492,-13406.671215
157.868206,-4145.153275,14730.098246,-3600.648841
157.868515,1628.453072,9178.553681,-1532.190996
157.868825,3701.029710,3627.009116,-3064.381992
157.869134,4071.132681,1406.391290,8503.660028
157.869443,-3997.112087,6587.832884,16777.491406
157.869753,4219.173869,6883.915261,2451.505594
157.870062,8068.244768,5847.626942,-8733.488677
157.870372,1184.329507,12583.501014,-4060.306139
157.870681,-4145.153275,12139.377449,-3830.477490
157.870991,3182.885551,11029.068536,-9422.974625
157.871300,-3552.988522,16358.551318,-8656.879127
157.871609,5625.565159,10362.883188,-3217.601092
157.871919,296.082377,7179.997637,-459.657299
157.872228,-3627.009116,7550.100608,8886.707777
157.872538,-2072.576638,4811.338623,10648.727422
157.872847,-1480.411884,10214.842000,-4060.306139
157.873156,3923.091493,7994.224174,-7201.297681
157.873466,370.102971,17320.819043,-3677.258390
157.873775,-3256.906145,17394.839637,-5745.716235
157.874085,-888.247130,11991.336260,-8580.269578
157.874394,-222.061783,10584.944971,-3294.210641
157.874703,2146.597232,5625.565159,2068.457845
157.875013,-2220.617826,7254.018232,3217.601092
157.875322,-1036.288319,7698.141797,4749.792088
157.875632,6143.709319,3849.070898,-4213.525239
157.875941,5255.462188,3849.070898,-6818.249932
157.876250,-4737.318029,8882.471304,1685.410096
157.876560,-1480.411884,11769.274478,2451.505594
157.876869,1480.411884,14285.974681,-5439.278036
157.877179,2812.782580,9992.780217,-3294.210641
157.877488,1184.329507,10881.027347,0.000000
157.877798,-0.000000,7328.038826,-2757.943793
157.878107,-2220.617826,6809.894666,0.000000
157.878416,-1480.411884,11251.130318,2298.286494
157.878726,1850.514855,10436.903782,-2834.553343
157.879035,2368.659014,10288.862594,-3907.087040
157.879345,-4367.215058,14730.098246,3677.258390
157.879654,-370.102971,9992.780217,2145.067394
157.879963,2516.700203,10732.986159,-6588.421283
157.880273,-370.102971,11547.212695,-5286.058936
157.880582,-148.041188,10955.047942,-4290.134789
157.880892,1480.411884,9178.553681,-1685.410096
157.881201,1850.514855,11399.171507,-612.876398
157.881510,5033.400406,8438.347739,1455.581446
157.881820,-222.061783,10066.800811,1685.410096
157.882129,-2812.782580,4071.132681,5745.716235
157.882439,-3330.926739,6143.709319,1685.410096
157.882748,2220.617826,7846.182985,-11414.822920
157.883057,-2960.823768,8882.471304,-7354.516781
157.883367,-2368.659014,13545.768739,-1455.581446
157.883676,5403.503377,11547.212695,-7354.516781
157.883986,3997.112087,10584.944971,-5669.106685
157.884295,-4293.194464,9400.615463,10648.727422
157.884604,-2368.659014,6439.791695,9422.974625
157.884914,5551.544565,7328.038826,-995.924147
157.885223,370.102971,3701.029710,-842.705048
157.885533,-2960.823768,7920.203579,-1072.533697
157.885842,-3034.844362,11843.295072,-4519.963438
157.886152,5181.441594,11621.233289,-9576.193725
157.886461,3478.967927,15914.427753,-6511.811733
157.886770,-5773.606348,13249.686362,-612.876398
157.887080,-296.082377,11769.274478,2145.067394
157.887389,-1924.535449,9770.718434,0.000000
157.887699,3775.050304,8364.327145,-5286.058936
157.888008,1258.350101,6439.791695,-3753.867940
157.888317,814.226536,5625.565159,5286.058936
157.888627,2368.659014,6587.832884,3447.429741
157.888936,1480.411884,8956.491898,919.314598
157.889246,-4367.215058,11769.274478,3140.991542
157.889555,-5329.482782,9400.615463,-766.095498
157.889864,2886.803174,12879.583391,-9499.584175
157.890174,3330.926739,7402.059420,-12793.794817
157.890483,222.061783,10436.903782,-7890.783629
157.890793,-7846.182985,11251.130318,1838.629195
157.891102,-4293.194464,12361.439231,3907.087040
157.891411,-2664.741391,17764.942608,-4519.963438
157.891721,1036.288319,15248.242405,-13023.623466
157.892030,2146.597232,10955.047942,-12180.918418
157.892340,-3034.844362,8290.306550,-7584.345430
157.892649,1998.556043,6735.874072,-8503.660028
157.892958,-0.000000,5847.626942,-5362.668486
157.893268,518.144159,11621.233289,-1838.629195
157.893577,814.226536,8438.347739,-2451.505594
157.893887,3478.967927,7105.977043,-7124.688131
157.894196,740.205942,2072.576638,-9806.022374
157.894506,-3256.906145,2220.617826,-7354.516781
157.894815,-1110.308913,5847.626942,-7814.174080
157.895124,-814.226536,9696.697840,-9422.974625
157.895434,2516.700203,16210.510130,-9652.803275
157.895743,3478.967927,11029.068536,-12334.137518
157.896053,444.123565,13175.665768,-9959.241474
157.896362,-148.041188,8142.265362,-5822.325785
157.896671,666.185348,6143.709319,-8350.440928
157.896981,5699.585753,9252.574275,-8733.488677
157.897290,222.061783,9622.677246,-2834.553343
157.897600,-3923.091493,12287.418637,-1072.533697
157.897909,1850.514855,12879.583391,-11031.775171
157.898218,2516.700203,8438.347739,-22063.550342
157.898528,-3701.029710,9770.718434,-18692.730151
157.898837,-5625.565159,7105.977043,-10265.679673
157.899147,148.041188,7698.141797,-11644.651570
157.899456,4959.379811,8808.450710,-9576.193725
157.899765,1554.432478,10140.821405,-1685.410096
157.900075,-3034.844362,7254.018232,1072.533697
157.900384,1036.288319,9622.677246,-7431.126331
157.900694,4441.235652,8512.368333,-17237.148705
157.901003,-5255.462188,8882.471304,-15475.129060
157.901312,-1554.432478,13175.665768,-11261.603821
157.901622,-592.164754,13323.706956,-13176.842566
157.901931,3108.864956,13989.892304,-15321.909960
157.902241,-4145.153275,13323.706956,-9346.365076
157.902550,-4885.359217,8660.409521,-4979.620737
157.902860,962.267725,4367.215058,-9652.803275
157.903169,5477.523971,3849.070898,-17313.758255
157.903478,-5255.462188,7550.100608,-13176.842566
157.903788,-2146.597232,8142.265362,-5975.544884
157.904097,296.082377,13027.624579,-12410.747068
157.904407,7402.059420,9770.718434,-16700.881856
157.904716,222.061783,8364.327145,-8120.612279
157.905025,-4811.338623,4515.256246,-459.657299
157.905335,1850.514855,8216.285956,-8120.612279
157.905644,4885.359217,6143.709319,-17696.806004
157.905954,4145.153275,13619.789333,-15628.348159
157.906263,-5625.565159,13101.645173,-4903.011187
157.906572,-2590.720797,15026.180623,-6052.154434
157.906882,5699.585753,12065.356855,-21297.454844
157.907191,5551.544565,11473.192101,-17390.367805
157.907501,-3182.885551,7402.059420,-4213.525239
157.907810,-5107.421000,8808.450710,-229.828649
157.908119,2960.823768,12435.459826,-9346.365076
157.908429,7624.121203,11103.089130,-17696.806004
157.908738,-2072.576638,11177.109724,-13253.452115
157.909048,-3775.050304,10214.842000,-4979.620737
157.909357,-740.205942,12139.377449,-9269.755526
157.909667,2516.700203,15100.201217,-17466.977354
157.909976,3997.112087,10584.944971,-16624.272307
157.910285,-2368.659014,7105.977043,-5132.839837
157.910595,-740.205942,1850.514855,-536.266849
157.910904,-1776.494261,3108.864956,-3524.039291
157.911214,-296.082377,3775.050304,-12027.699319
157.911523,-1332.370696,7994.224174,-8503.660028
157.911832,-2590.720797,10288.862594,-11951.089769
157.912142,-1776.494261,18653.189738,-15704.957709
157.912451,-1998.556043,18579.169144,-17313.758255
157.912761,-1258.350101,17542.880825,-15628.348159
157.913070,-2664.741391,11917.315666,-11951.089769
157.913379,-370.102971,8882.471304,-9882.631924
157.913689,1924.535449,5921.647536,-7584.345430
157.913998,6143.709319,5625.565159,-6128.763984
157.914308,1850.514855,1480.411884,-459.657299
157.914617,-3256.906145,5847.626942,1838.629195
157.914926,-814.226536,10214.842000,-5515.887586
157.915236,1184.329507,11547.212695,-18769.339701
157.915545,296.082377,14730.098246,-21220.845295
157.915855,-1184.329507,13027.624579,-16854.100956
157.916164,-296.082377,11399.171507,-14632.424012
157.916473,592.164754,7402.059420,-13483.280765
157.916783,1036.288319,9178.553681,-5592.497135
157.917092,-2516.700203,9548.656652,1455.581446
157.917402,1036.288319,8660.409521,-3524.039291
157.917711,3997.112087,9178.553681,-11031.775171
157.918021,4145.153275,8734.430116,-13866.328514
157.918330,-2886.803174,7846.182985,-11721.261119
157.918639,-3775.050304,13027.624579,-7814.174080
157.918949,1258.350101,15470.304188,-13023.623466
157.919258,-74.020594,13619.789333,-16471.053207
157.919568,-4145.153275,10732.986159,-13253.452115
157.919877,-2886.803174,5773.606348,-12104.308868
157.920186,2516.700203,7328.038826,-17237.148705
157.920496,666.185348,6809.894666,-13866.328514
157.920805,-2146.597232,7624.121203,-4060.306139
157.921115,814.226536,8216.285956,-1608.800546
157.921424,4589.276840,6217.729913,-7431.126331
157.921733,1110.308913,5995.668130,-7277.907231
157.922043,-2886.803174,5329.482782,-6741.640382
157.922352,-2146.597232,8808.450710,-10495.508323
157.922662,1332.370696,10807.006753,-17237.148705
157.922971,1406.391290,13619.789333,-20837.797546
157.923280,-1406.391290,15100.201217,-12870.404366
157.923590,-1850.514855,13471.748144,-4749.792088
157.923899,-666.185348,11251.130318,-6894.859482
157.924209,-0.000000,6217.729913,-11491.432470
157.924518,-148.041188,6365.771101,-8580.269578
157.924827,-2516.700203,6809.894666,-6588.421283
157.925137,-296.082377,10807.006753,-10189.070123
157.925446,2072.576638,14878.139434,-16547.662757
157.925756,2516.700203,16580.613101,-16011.395908
157.926065,-444.123565,15100.201217,-12027.699319
157.926375,888.247130,11029.068536,-10112.460574
157.926684,2738.761985,4885.359217,-10572.117872
157.926993,2294.638420,814.226536,-7354.516781
157.927303,-1036.288319,-2516.700203,-2451.505594
157.927612,-2072.576638,296.082377,-1225.752797
157.927922,-888.247130,5033.400406,-7584.345430
157.928231,2812.782580,12287.418637,-14862.252661
157.928540,-370.102971,17172.777854,-16930.710506
157.928850,-2220.617826,17246.798449,-14555.814462
157.929159,-814.226536,16876.695478,-14479.204912
157.929469,1850.514855,13323.706956,-16241.224558
157.929778,-1406.391290,7476.080014,-10801.946522
157.930087,-3627.009116,6217.729913,-3600.648841
157.930397,-1258.350101,5477.523971,-3447.429741
157.930706,592.164754,7920.203579,-9576.193725
157.931016,2590.720797,9030.512492,-14785.643111
157.931325,-222.061783,9326.594869,-15398.519510
157.931634,-1258.350101,10214.842000,-12410.747068
157.931944,222.061783,12065.356855,-10955.165621
157.932253,3034.844362,9326.594869,-12717.185267
157.932563,3997.112087,4811.338623,-4903.011187
157.932872,-1258.350101,2220.617826,-842.705048
157.933181,1332.370696,1110.308913,-3907.087040
157.933491,2664.741391,5699.585753,-8503.660028
157.933800,1332.370696,11325.150913,-9116.536426
157.934110,-1480.411884,12879.583391,-8044.002729
157.934419,148.041188,16284.530724,-11568.042020
157.934729,1406.391290,15766.386565,-15934.786358
157.935038,-1554.432478,13323.706956,-14632.424012
157.935347,-2516.700203,10955.047942,-10572.117872
157.935657,-740.205942,7920.203579,-9499.584175
157.935966,1480.411884,7994.224174,-9116.536426
157.936276,-518.144159,9030.512492,-5132.839837
157.936585,666.185348,9178.553681,-4749.792088
157.936894,962.267725,8068.244768,-11568.042020
157.937204,1554.432478,7179.997637,-9806.022374
157.937513,-0.000000,7179.997637,-8350.440928
157.937823,1332.370696,7402.059420,-6894.859482
157.938132,-1184.329507,6661.853478,-4596.572988
157.938441,-0.000000,6957.935855,229.828649
157.938751,1776.494261,8364.327145,-5975.544884
157.939060,814.226536,7624.121203,-7431.126331
157.939370,-2072.576638,11103.089130,-3907.087040
157.939679,-2886.803174,11843.295072,-3677.258390
157.939988,-1480.411884,12435.459826,-9346.365076
157.940298,-3182.885551,12287.418637,-10648.727422
157.940607,-4663.297435,11917.315666,-9806.022374
157.940917,-3478.967927,11177.109724,-13330.061665
157.941226,-2812.782580,10881.027347,-11874.480219
157.941536,-2442.679609,13323.706956,-11338.213370
157.941845,-222.061783,13249.686362,-11261.603821
157.942154,148.041188,14063.912898,-11031.775171
157.942464,-0.000000,13175.665768,-8350.440928
157.942773,-1776.494261,12731.542202,-9269.755526
157.943083,-0.000000,10955.047942,-13713.109414
157.943392,-0.000000,9696.697840,-16624.272307
157.943701,370.102971,8290.306550,-17620.196454
157.944011,5033.400406,6661.853478,-18692.730151
157.944320,2960.823768,7105.977043,-14172.766713
157.944630,3182.885551,7254.018232,-6818.249932
157.944939,3256.906145,5995.668130,-3830.477490
157.945249,6513.812290,3034.844362,-4213.525239
157.945558,-5773.606348,1406.391290,-3064.381992
157.945867,-148.041188,5995.668130,-7814.174080
157.946177,-1554.432478,5551.544565,-19612.044749
157.946486,4071.132681,14211.954086,-29571.286223
157.946796,-6217.729913,15248.242405,-29341.457573
157.947105,-888.247130,18209.066173,-20607.968896
157.947415,1406.391290,14952.160028,-15475.129060
157.947724,3923.091493,13915.871710,-10495.508323
157.948033,1554.432478,8512.368333,-3217.601092
157.948343,1184.329507,-74.020594,-2451.505594
157.948652,21539.992912,6439.791695,-6511.811733
157.948962,-8142.265362,-6291.750507,2681.334243
157.949271,-8586.388927,-1036.288319,-13406.671215
157.949581,-6217.729913,7624.121203,-37845.117601
157.949890,-4071.132681,20281.642811,-18922.558801
157.950199,6661.853478,26055.249158,-2528.115143
157.950509,-13101.645173,12805.562797,-12257.527968
157.950818,2886.803174,6365.771101,-27196.390179
157.951128,-9030.512492,8586.388927,-9729.412825
157.951437,-4441.235652,4441.235652,-7660.954980
157.951747,-3404.947333,9104.533087,-8273.831378
157.952056,1998.556043,14878.139434,-8963.317327
157.952366,12953.603985,17320.819043,-16394.443657
157.952675,-4071.132681,6883.915261,-16317.834107
157.952984,-3923.091493,12731.542202,1532.190996
157.953294,-7031.956449,7402.059420,306.438199
157.953603,3478.967927,10732.986159,-27656.047478
157.953913,2368.659014,4367.215058,-25051.322785
157.954222,-4589.276840,7254.018232,-10112.460574
157.954532,-3627.009116,7550.100608,-8273.831378
157.954841,5847.626942,12213.398043,-10648.727422
157.955150,7846.182985,9696.697840,-9116.536426
157.955460,-814.226536,4737.318029,-3600.648841
157.955769,-2442.679609,4145.153275,7584.345430
157.956079,-3552.988522,4737.318029,-1225.752797
157.956388,5181.441594,11695.253884,-21220.845295
157.956698,1776.494261,13693.809927,-22982.864940
157.957007,-2886.803174,16950.716072,-11184.994271
157.957316,-1554.432478,15174.221811,-9882.631924
157.957626,4589.276840,18135.045579,-13789.718964
157.957935,-1628.453072,14952.160028,-6665.030833
157.958245,-2220.617826,9918.759623,766.095498
157.958554,-1702.473667,7031.956449,-5898.935335
157.958864,1184.329507,6661.853478,-15321.909960
157.959173,3256.906145,6513.812290,-16930.710506
157.959482,2664.741391,8660.409521,-9959.241474
157.959792,444.123565,12509.480420,-1225.752797
157.960101,-2590.720797,12583.501014,459.657299
157.960411,1480.411884,13397.727550,-4213.525239
157.960720,-0.000000,10436.903782,-8886.707777
157.961030,-1702.473667,7179.997637,-9193.145976
157.961339,-4663.297435,3701.029710,-9882.631924
157.961648,-4959.379811,6883.915261,-13866.328514
157.961958,-2960.823768,10436.903782,-12334.137518
157.962267,-3182.885551,12509.480420,-7814.174080
157.962577,814.226536,16358.551318,-8120.612279
157.962886,1998.556043,13841.851115,-8656.879127
157.963196,3108.864956,10066.800811,-5056.230287
157.963505,-1184.329507,6217.729913,-2834.553343
157.963815,-740.205942,5329.482782,-5286.058936
157.964124,-814.226536,10807.006753,-6818.249932
157.964433,4145.153275,14730.098246,-15015.471761
157.964743,1332.370696,11325.150913,-20071.702048
157.965052,-4293.194464,14730.098246,-11261.603821
157.965362,518.144159,11325.150913,-9576.193725
157.965671,-2442.679609,7550.100608,-14172.766713
157.965981,3108.864956,8216.285956,-12104.308868
157.966290,1850.514855,2220.617826,-7507.735880
157.966599,-3997.112087,4515.256246,-3677.258390
157.966909,518.144159,8290.306550,-6435.202183
157.967218,1036.288319,7031.956449,-14249.376263
157.967528,3256.906145,13619.789333,-20607.968896
157.967837,2294.638420,15988.448347,-18462.901502
157.968147,-6143.709319,15618.345376,-11951.089769
157.968456,2886.803174,12435.459826,-14249.376263
157.968765,2812.782580,9474.636058,-19075.777900
157.969075,4885.359217,5773.606348,-14172.766713
157.969384,-1480.411884,3775.050304,-4979.620737
157.969694,444.123565,6735.874072,2145.067394
157.970003,3627.009116,8808.450710,-8963.317327
157.970313,6587.832884,9030.512492,-17543.586904
157.970622,-1924.535449,9474.636058,-14709.033562
157.970931,-4589.276840,11103.089130,-7277.907231
157.971241,-4145.153275,12435.459826,-12793.794817
157.971550,7328.038826,8216.285956,-21374.064394
157.971860,-1406.391290,7698.141797,-16777.491406
157.972169,-4145.153275,2812.782580,-4826.401637
157.972479,-2590.720797,5921.647536,-1762.019645
157.972788,-1184.329507,7624.121203,-11414.822920
157.973097,2960.823768,12509.480420,-14479.204912
157.973407,-4071.132681,10881.027347,-10342.289223
157.973716,-0.000000,16950.716072,-11797.870669
157.974026,-2072.576638,10362.883188,-21374.064394
157.974335,9178.553681,13693.809927,-21450.673944
157.974645,-518.144159,5403.503377,-11721.261119
157.974954,-4515.256246,7772.162391,76.609550
157.975264,-666.185348,7402.059420,-2298.286494
157.975573,8142.265362,7476.080014,-10801.946522
157.975882,3256.906145,4219.173869,-14096.157163
157.976192,-2590.720797,2368.659014,-7507.735880
157.976501,2146.597232,6217.729913,-6511.811733
157.976811,2516.700203,7994.224174,-8656.879127
157.977120,-888.247130,10732.986159,-5975.544884
157.977430,-3182.885551,7476.080014,-2451.505594
157.977739,1554.432478,6143.709319,-9193.145976
157.978048,3034.844362,6957.935855,-14325.985813
157.978358,740.205942,5403.503377,-9729.412825
157.978667,-740.205942,7105.977043,-5132.839837
157.978977,1776.494261,11251.130318,766.095498
157.979286,-1998.556043,9178.553681,536.266849
157.979596,1776.494261,11695.253884,-3830.477490
157.979905,5551.544565,9548.656652,-9576.193725
157.980214,-222.061783,8216.285956,-7814.174080
157.980524,-9918.759623,9178.553681,-1608.800546
157.980833,3627.009116,11547.212695,-9116.536426
157.981143,4811.338623,12731.542202,-15398.519510
157.981452,-592.164754,10288.862594,-4519.963438
157.981762,-6069.688724,10214.842000,8733.488677
157.982071,1406.391290,13841.851115,5132.839837
157.982380,3256.906145,9696.697840,-5132.839837
157.982690,1628.453072,5477.523971,-5056.230287
157.982999,-2960.823768,7994.224174,-383.047749
157.983309,-518.144159,9326.594869,-766.095498
157.983618,-3404.947333,12731.542202,-459.657299
157.983928,3552.988522,13767.830521,-7431.126331
157.984237,-0.000000,10584.944971,-5056.230287
157.984546,-4071.132681,11843.295072,1838.629195
157.984856,-3849.070898,10214.842000,1378.971896
157.985165,3478.967927,11103.089130,-8733.488677
157.985475,5921.647536,12583.501014,-6588.421283
157.985784,-1036.288319,6587.832884,3294.210641
157.986094,-1036.288319,8956.491898,5209.449386
157.986403,666.185348,12287.418637,1762.019645
157.986713,1036.288319,12805.562797,-1225.752797
157.987022,-814.226536,11621.233289,-5362.668486
157.987331,148.041188,6735.874072,-9039.926876
157.987641,1924.535449,10807.006753,-5745.716235
157.987950,2664.741391,8956.491898,-3907.087040
157.988260,-296.082377,7105.977043,536.266849
157.988569,-5847.626942,7031.956449,7507.735880
157.988879,1998.556043,10362.883188,3447.429741
157.989188,2368.659014,5403.503377,-7890.783629
157.989497,1998.556043,10362.883188,-6281.983084
157.989807,-4959.379811,7772.162391,-2374.896044
157.990116,1258.350101,9474.636058,-5822.325785
157.990426,3627.009116,15100.201217,-8886.707777
157.990735,1998.556043,15840.407159,-5975.544884
157.991045,1258.350101,12657.521608,-1762.019645
157.991354,-740.205942,7846.182985,1072.533697
157.991663,-0.000000,6957.935855,2374.896044
157.991973,5181.441594,5699.585753,-3217.601092
157.992282,3997.112087,6513.812290,-3447.429741
157.992592,-4811.338623,6069.688724,7354.516781
157.992901,-2368.659014,11695.253884,3907.087040
157.993211,2516.700203,9622.677246,-9729.412825
157.993520,592.164754,10955.047942,-8963.317327
157.993829,-5033.400406,10288.862594,2298.286494
157.994139,-6883.915261,10362.883188,1991.848295
157.994448,-0.000000,15618.345376,-8886.707777
157.994758,5699.585753,13397.727550,-10801.946522
157.995067,-740.205942,9918.759623,-4979.620737
157.995377,-7105.977043,7031.956449,3140.991542
157.995686,-222.061783,7105.977043,5362.668486
157.995995,8438.347739,7328.038826,-3524.039291
157.996305,3034.844362,7105.977043,-2374.896044
157.996614,-3182.885551,8142.265362,8886.707777
157.996924,-3478.967927,8586.388927,-1225.752797
157.997233,2220.617826,8216.285956,-16317.834107
157.997543,5033.400406,10732.986159,-14479.204912
157.997852,518.144159,5329.482782,-4366.744339
157.998162,-6439.791695,5033.400406,2068.457845
157.998471,-888.247130,10881.027347,5515.887586
157.998780,2516.700203,9992.780217,3294.210641
157.999090,1998.556043,1702.473667,-842.705048
157.999399,-2442.679609,1258.350101,4596.572988
157.999709,-2664.741391,10066.800811,-689.485948
158.000018,4293.194464,9400.615463,-11644.651570
158.000328,1036.288319,14804.118840,-7890.783629
158.000637,-4737.318029,16506.592507,-1072.533697
158.000946,4145.153275,11991.336260,-4979.620737
158.001256,3997.112087,13767.830521,-2757.943793
158.001565,666.185348,9622.677246,2834.553343
158.001875,4293.194464,370.102971,3983.696590
158.002184,2590.720797,2442.679609,2604.724693
158.002494,-2368.659014,2516.700203,8427.050478
158.002803,-3034.844362,10288.862594,7048.078582
158.003112,3108.864956,11991.336260,-2757.943793
158.003422,2442.679609,15544.324782,-6894.859482
158.003731,518.144159,19615.457463,-5975.544884
158.004041,3478.967927,9992.780217,-9346.365076
158.004350,-222.061783,6513.812290,-1378.971896
158.004660,-5995.668130,7254.018232,14172.766713
158.004969,1036.288319,11399.171507,10878.556072
158.005278,-74.020594,11843.295072,-2221.676944
158.005588,-0.000000,6069.688724,-1149.143247
158.005897,-2220.617826,7698.141797,-842.705048
158.006207,222.061783,10955.047942,-6052.154434
158.006516,-4441.235652,14285.974681,-2987.772442
158.006826,-4145.153275,16580.613101,1838.629195
158.007135,2294.638420,8216.285956,-2911.162892
158.007444,4589.276840,6439.791695,-2604.724693
158.007754,-1480.411884,5033.400406,7048.078582
158.008063,-0.000000,518.144159,5132.839837
158.008373,814.226536,5403.503377,3600.648841
158.008682,-0.000000,8882.471304,4903.011187
158.008992,-74.020594,8512.368333,3907.087040
158.009301,-3256.906145,12213.398043,-5745.716235
158.009611,-148.041188,13619.789333,-5286.058936
158.009920,3330.926739,10807.006753,-10418.898773
158.010229,3701.029710,8216.285956,-11031.775171
158.010539,-2738.761985,9030.512492,3830.477490
158.010848,-2886.803174,11325.150913,15704.957709
158.011158,1554.432478,8438.347739,6358.592633
158.011467,1628.453072,10584.944971,-1225.752797
158.011777,-3775.050304,12583.501014,-2528.115143
158.012086,-444.123565,9104.533087,-12334.137518
158.012395,2442.679609,9030.512492,-16471.053207
158.012705,2368.659014,11621.233289,-5286.058936
158.013014,-1258.350101,11547.212695,5515.887586
158.013324,-0.000000,10362.883188,7737.564530
158.013633,1036.288319,9918.759623,5822.325785
158.013943,5107.421000,6957.935855,-7201.297681
158.014252,-1702.473667,5551.544565,-6511.811733
158.014561,-3701.029710,6661.853478,-919.314598
158.014871,888.247130,8068.244768,-7048.078582
158.015180,4737.318029,11917.315666,-9576.193725
158.015490,-2220.617826,12805.562797,689.485948
158.015799,-4293.194464,11251.130318,2681.334243
158.016109,1702.473667,7254.018232,-2834.553343
158.016418,1924.535449,2368.659014,383.047749
158.016727,-2960.823768,7846.182985,4366.744339
158.017037,-4145.153275,5329.482782,2604.724693
158.017346,-0.000000,15322.262999,-4060.306139
158.017656,2812.782580,12583.501014,-7048.078582
158.017965,1702.473667,13027.624579,-8886.707777
158.018275,-5551.544565,9474.636058,-3677.258390
158.018584,592.164754,6217.729913,919.314598
158.018893,2738.761985,5181.441594,-1455.581446
158.019203,222.061783,11695.253884,2298.286494
158.019512,-222.061783,9030.512492,5975.544884
158.019822,2738.761985,6661.853478,1991.848295
158.020131,4219.173869,7624.121203,-5362.668486
158.020441,-2072.576638,9400.615463,0.000000
158.020750,-2812.782580,10658.965565,2757.943793
158.021060,-1406.391290,9178.553681,-3600.648841
158.021369,1850.514855,11769.274478,-3447.429741
158.021678,888.247130,9474.636058,-4060.306139
158.021988,-3775.050304,5625.565159,-3677.258390
158.022297,-2072.576638,6291.750507,2604.724693
158.022607,-0.000000,9104.533087,7814.174080
158.022916,4219.173869,7179.997637,229.828649
158.023226,-3552.988522,15914.427753,1149.143247
158.023535,-962.267725,15396.283594,1378.971896
158.023844,5255.462188,12731.542202,-9576.193725
158.024154,1998.556043,10436.903782,-8963.317327
158.024463,-1332.370696,7920.203579,2374.896044
158.024773,-4663.297435,5403.503377,3294.210641
158.025082,4293.194464,7624.121203,0.000000
158.025392,3034.844362,7920.203579,1608.800546
158.025701,-1406.391290,10881.027347,3524.039291
158.026010,-1184.329507,8142.265362,-5745.716235
158.026320,4071.132681,12805.562797,-4136.915689
158.026629,1036.288319,8734.430116,-1149.143247
158.026939,-666.185348,12583.501014,-4366.744339
158.027248,-0.000000,16802.674883,-2298.286494
158.027558,2516.700203,7698.141797,0.000000
158.027867,-1406.391290,8216.285956,-1838.629195
158.028176,-962.267725,8512.368333,1532.190996
158.028486,1998.556043,8364.327145,1378.971896
158.028795,888.247130,4071.132681,-2374.896044
158.029105,740.205942,9400.615463,3217.601092
158.029414,4367.215058,11473.192101,7737.564530
158.029724,-2738.761985,11029.068536,-4366.744339
158.030033,-0.000000,8438.347739,-5056.230287
158.030342,-5181.441594,9252.574275,0.000000
158.030652,2368.659014,7402.059420,-6971.469032
158.030961,3034.844362,7179.997637,-10878.556072
158.031271,-888.247130,15618.345376,-1302.362347
158.031580,-4219.173869,8512.368333,9346.365076
158.031890,1628.453072,9548.656652,4290.134789
158.032199,3923.091493,9326.594869,2374.896044
158.032508,2886.803174,8290.306550,-1838.629195
158.032818,-3997.112087,6291.750507,-766.095498
158.033127,-3775.050304,10584.944971,919.314598
158.033437,6957.935855,9918.759623,-6971.469032
158.033746,2220.617826,12583.501014,-14325.985813
158.034056,-6809.894666,13101.645173,3447.429741
158.034365,-2886.803174,8290.306550,12180.918418
158.034675,148.041188,9992.780217,-2528.115143
158.034984,7031.956449,7624.121203,-6818.249932
158.035293,518.144159,10436.903782,2987.772442
158.035603,-3404.947333,7105.977043,4136.915689
158.035912,3330.926739,9992.780217,-3983.696590
158.036222,5699.585753,14211.954086,-2451.505594
158.036531,-2516.700203,11843.295072,2374.896044
158.036841,-8364.327145,9474.636058,2911.162892
158.037150,-0.000000,15322.262999,-612.876398
158.037459,8808.450710,11325.150913,-14785.643111
158.037769,-2738.761985,7105.977043,-9269.755526
158.038078,-4737.318029,13323.706956,7124.688131
158.038388,-148.041188,2960.823768,842.705048
158.038697,1924.535449,7476.080014,-2987.772442
158.039007,592.164754,10732.986159,5822.325785
158.039316,1258.350101,10066.800811,689.485948
158.039625,6513.812290,6883.915261,-6894.859482
158.039935,740.205942,7550.100608,-1608.800546
158.040244,814.226536,11177.109724,-1532.190996
158.040554,148.041188,8290.306550,-4826.401637
158.040863,2368.659014,8734.430116,2834.553343
158.041173,-4293.194464,20577.725188,10418.898773
158.041482,-2294.638420,12139.377449,-3064.381992
158.041791,592.164754,10288.862594,-10648.727422
158.042101,888.247130,7328.038826,-8273.831378
158.042410,296.082377,5773.606348,-6358.592633
158.042720,-6957.935855,9844.739029,995.924147
158.043029,-1406.391290,14211.954086,7890.783629
158.043339,5033.400406,7994.224174,-536.266849
158.043648,1480.411884,5255.462188,-4443.353888
158.043957,-3775.050304,3330.926739,4903.011187
158.044267,-592.164754,5329.482782,1149.143247
158.044576,2368.659014,4367.215058,-7737.564530
158.044886,1332.370696,9770.718434,-995.924147
158.045195,-3182.885551,14804.118840,3524.039291
158.045505,-0.000000,11251.130318,-3370.820191
158.045814,3552.988522,8142.265362,-4366.744339
158.046124,1480.411884,8216.285956,2757.943793
158.046433,-5255.462188,8734.430116,3753.867940
158.046743,-4737.318029,10881.027347,1302.362347
158.047053,1332.370696,13471.748144,-7507.735880
158.047362,1924.535449,10584.944971,-9039.926876
158.047672,296.082377,14137.933492,-5132.839837
158.047981,296.082377,12805.562797,-2068.457845
158.048291,5181.441594,8364.327145,4060.306139
158.048600,-2886.803174,666.185348,9576.193725
158.048910,-5033.400406,4441.235652,12793.794817
158.049219,3108.864956,9918.759623,-766.095498
158.049529,7254.018232,8142.265362,-11874.480219
158.049839,-1924.535449,8364.327145,-7584.345430
158.050148,-888.247130,11843.295072,-2068.457845
158.050458,1332.370696,14285.974681,-5056.230287
158.050767,-148.041188,15322.262999,2068.457845
158.051077,-3182.885551,13915.871710,14555.814462
158.051386,-0.000000,11917.315666,3677.258390
158.051696,2294.638420,11325.150913,-11261.603821
158.052006,370.102971,5773.606348,-15092.081311
158.052315,888.247130,5107.421000,-5209.449386
158.052625,-2812.782580,8364.327145,7354.516781
158.052934,-962.267725,13915.871710,8656.879127
158.053244,2442.679609,10955.047942,2834.553343
158.053553,1184.329507,1924.535449,-995.924147
158.053863,-1110.308913,1924.535449,1302.362347
158.054172,370.102971,4959.379811,-1915.238745
158.054482,814.226536,3108.864956,-7890.783629
158.054792,-0.000000,7846.182985,-612.876398
158.055101,-1258.350101,15026.180623,7431.126331
158.055411,2220.617826,11917.315666,1838.629195
158.055720,2442.679609,14730.098246,-4060.306139
158.056030,-1924.535449,14878.139434,1685.410096
158.056339,-3849.070898,10436.903782,1532.190996
158.056649,-740.205942,9030.512492,-6818.249932
158.056958,2368.659014,10140.821405,-9422.974625
158.057268,-814.226536,15248.242405,-4596.572988
158.057578,-666.185348,10658.965565,-153.219100
158.057887,3775.050304,3108.864956,-459.657299
158.058197,-2590.720797,5255.462188,1991.848295
158.058506,-1110.308913,4811.338623,8733.488677
158.058816,518.144159,2294.638420,1302.362347
158.059125,4367.215058,7031.956449,-4519.963438
158.059435,3552.988522,7179.997637,-4060.306139
158.059744,-9474.636058,9696.697840,0.000000
158.060054,-3923.091493,9696.697840,76.609550
158.060364,2886.803174,15396.283594,-6128.763984
158.060673,2294.638420,18727.210333,-8963.317327
158.060983,296.082377,20133.601622,-3294.210641
158.061292,-444.123565,15174.221811,-3217.601092
158.061602,-2886.803174,6291.750507,-3830.477490
158.061911,-148.041188,8216.285956,229.828649
158.062221,-0.000000,9474.636058,-2451.505594
158.062531,1184.329507,-2590.720797,-4903.011187
158.062840,-2146.597232,1924.535449,7201.297681
158.063150,296.082377,8586.388927,2221.676944
158.063459,592.164754,9030.512492,-8886.707777
158.063769,-962.267725,7920.203579,-5822.325785
158.064078,-2368.659014,8808.450710,-842.705048
158.064388,-296.082377,9770.718434,-8273.831378
158.064697,2886.803174,12731.542202,-10648.727422
158.065007,5033.400406,9030.512492,-1762.019645
158.065317,592.164754,10288.862594,5286.058936
158.065626,-9104.533087,9474.636058,16471.053207
158.065936,-1406.391290,15618.345376,4136.915689
158.066245,8216.285956,11843.295072,-15475.129060
158.066555,-740.205942,11769.274478,-14785.643111
158.066864,-10436.903782,18505.148550,-3524.039291
158.067174,518.144159,16950.716072,-8963.317327
158.067483,10510.924376,9030.512492,-16241.224558
158.067793,1406.391290,7402.059420,3983.696590
158.068103,-5995.668130,8142.265362,20071.702048
158.068412,2812.782580,148.041188,8503.660028
158.068722,2146.597232,-962.267725,-842.705048
158.069031,7920.203579,2738.761985,-1072.533697
158.069341,296.082377,7476.080014,-4519.963438
158.069650,-5255.462188,15618.345376,995.924147
158.069960,-1776.494261,18727.210333,2528.115143
158.070269,-740.205942,20873.807564,-10495.508323
158.070579,1258.350101,17690.922014,-14172.766713
158.070889,-74.020594,12435.459826,-4903.011187
158.071198,-5403.503377,14285.974681,-1302.362347
158.071508,-3034.844362,7105.977043,-3447.429741
158.071817,9030.512492,4885.359217,-2374.896044
158.072127,1554.432478,4663.297435,3370.820191
158.072436,-4071.132681,2590.720797,13023.623466
158.072746,-2590.720797,4811.338623,9269.755526
158.073056,9696.697840,3627.009116,-7124.688131
158.073365,8512.368333,814.226536,-7201.297681
158.073675,-7105.977043,7698.141797,3600.648841
158.073984,-8512.368333,5847.626942,919.314598
158.074294,6291.750507,15470.304188,-5132.839837
158.074603,3256.906145,13175.665768,-6128.763984
158.074913,-2220.617826,13619.789333,-3217.601092
158.075222,-6809.894666,18653.189738,995.924147
158.075532,-2812.782580,14656.077652,2374.896044
158.075842,1184.329507,11103.089130,-4596.572988
158.076151,2590.720797,12509.480420,-8580.269578
158.076461,148.041188,11991.336260,-2451.505594
158.076770,-4589.276840,6365.771101,5745.716235
158.077080,3627.009116,3627.009116,2911.162892
158.077389,4737.318029,8586.388927,-3140.991542
158.077699,666.185348,7105.977043,-3140.991542
158.078008,-962.267725,3552.988522,3064.381992
158.078318,7105.977043,1332.370696,2681.334243
158.078628,-888.247130,3478.967927,-2987.772442
158.078937,2442.679609,7994.224174,1072.533697
158.079247,-1924.535449,11843.295072,3217.601092
158.079556,-888.247130,7920.203579,-2451.505594
158.079866,518.144159,13323.706956,-7354.516781
158.080175,2220.617826,19689.478057,-11108.384721
158.080485,370.102971,17320.819043,-9652.803275
158.080794,-2442.679609,13767.830521,0.000000
158.081104,-0.000000,13915.871710,3370.820191
158.081414,1184.329507,7920.203579,-1225.752797
158.081723,-518.144159,8956.491898,76.609550
158.082033,-0.000000,666.185348,1072.533697
158.082342,-148.041188,-888.247130,-4060.306139
158.082652,-296.082377,3182.885551,-3064.381992
158.082961,-74.020594,7105.977043,1455.581446
158.083271,888.247130,9696.697840,2528.115143
158.083581,5551.544565,11769.274478,-1915.238745
158.083890,814.226536,9030.512492,3677.258390
158.084200,-2220.617826,11029.068536,4290.134789
158.084509,-4885.359217,11325.150913,1762.019645
158.084819,-370.102971,11843.295072,-5515.887586
158.085128,1110.308913,19467.416275,-11414.822920
158.085438,518.144159,11695.253884,-8580.269578
158.085747,-6143.709319,10066.800811,1225.752797
158.086057,-1036.288319,11325.150913,4903.011187
158.086367,3552.988522,11695.253884,-1378.971896
158.086676,-3849.070898,6883.915261,-1685.410096
158.086986,-2590.720797,2294.638420,0.000000
158.087295,2812.782580,5625.565159,-7048.078582
158.087605,6957.935855,4737.318029,-10035.851024
158.087914,740.205942,4071.132681,3370.820191
158.088224,-1110.308913,8364.327145,12870.404366
158.088533,-0.000000,5033.400406,8580.269578
158.088843,444.123565,9844.739029,7048.078582
158.089153,-370.102971,11991.336260,-5669.106685
158.089462,1258.350101,10066.800811,-15858.176809
158.089772,-3552.988522,14804.118840,-9806.022374
158.090081,-4145.153275,16432.571912,-2987.772442
158.090391,7846.182985,16580.613101,-11951.089769
158.090700,-2072.576638,11695.253884,-2987.772442
158.091010,-4219.173869,10658.965565,12870.404366
158.091319,-1702.473667,9252.574275,6894.859482
158.091629,5847.626942,2294.638420,-7507.735880
158.091939,1332.370696,-222.061783,-4519.963438
158.092248,1332.370696,5551.544565,306.438199
158.092558,2294.638420,6365.771101,919.314598
158.092867,-0.000000,10584.944971,2911.162892
158.093177,-222.061783,16506.592507,6588.421283
158.093486,1480.411884,10288.862594,-1149.143247
158.093796,-3701.029710,10881.027347,-6128.763984
158.094106,1628.453072,11917.315666,-4979.620737
158.094415,-1258.350101,7476.080014,-8044.002729
158.094725,-3775.050304,10066.800811,-3294.210641
158.095034,-3552.988522,11991.336260,3064.381992
158.095344,1628.453072,16580.613101,-1378.971896
158.095653,6439.791695,12287.418637,-4979.620737
158.095963,-0.000000,6365.771101,2911.162892
158.096272,2220.617826,6365.771101,3677.258390
158.096582,-148.041188,1036.288319,536.266849
158.096892,666.185348,814.226536,2911.162892
158.097201,-4293.194464,8882.471304,4749.792088
158.097511,-0.000000,10436.903782,-3753.867940
158.097820,1628.453072,10066.800811,-8503.660028
158.098130,1776.494261,12287.418637,-4596.572988
158.098439,-4071.132681,10288.862594,-2451.505594
158.098749,-3775.050304,12583.501014,1991.848295
158.099058,592.164754,12213.398043,0.000000
158.099368,3627.009116,8586.388927,-5056.230287
158.099678,-3552.988522,14508.036463,-5669.106685
158.099987,-962.267725,6809.894666,1838.629195
158.100297,4737.318029,11251.130318,-3064.381992
158.100606,-592.164754,9030.512492,-1991.848295
158.100916,-2220.617826,10881.027347,3140.991542
158.101225,-1776.494261,15692.365970,-1608.800546
158.101535,3330.926739,9844.739029,-9882.631924
158.101844,3923.091493,3182.885551,-6665.030833
158.102154,-2220.617826,9474.636058,1915.238745
158.102464,-1036.288319,6809.894666,2374.896044
158.102773,296.082377,7772.162391,1608.800546
158.103083,5625.565159,9918.759623,689.485948
158.103392,4367.215058,7254.018232,-3677.258390
158.103702,-6809.894666,13323.706956,459.657299
158.104011,-3997.112087,8882.471304,5132.839837
158.104321,6143.709319,9770.718434,-9116.536426
158.104631,-74.020594,10658.965565,-12640.575717
158.104940,-7698.141797,11325.150913,306.438199
158.105250,-370.102971,12361.439231,-2604.724693
158.105559,4145.153275,8808.450710,-8503.660028
158.105869,3627.009116,13471.748144,-612.876398
158.106178,-1702.473667,9326.594869,6435.202183
158.106488,-3330.926739,4811.338623,5056.230287
158.106797,-0.000000,6661.853478,8580.269578
158.107107,1924.535449,4589.276840,-4136.915689
158.107417,2442.679609,8364.327145,-6665.030833
158.107726,-2590.720797,8586.388927,-1149.143247
158.108036,-3923.091493,7994.224174,-612.876398
158.108345,3330.926739,7031.956449,-4060.306139
158.108655,1702.473667,11399.171507,-5592.497135
158.108964,-4737.318029,9474.636058,3677.258390
158.109274,-0.000000,11621.233289,2681.334243
158.109583,-0.000000,10288.862594,-7737.564530
158.109893,6365.771101,13175.665768,-9806.022374
158.110203,5181.441594,11325.150913,-3983.696590
158.110512,-5255.462188,7179.997637,6741.640382
158.110822,-2220.617826,10658.965565,9652.803275
158.111131,-2368.659014,9844.739029,1532.190996
158.111441,3404.947333,10436.903782,-9882.631924
158.111750,1110.308913,11325.150913,-10035.851024
158.112060,666.185348,7920.203579,-8350.440928
158.112369,1702.473667,6069.688724,-5132.839837
158.112679,296.082377,4737.318029,5975.544884
158.112989,-3256.906145,9548.656652,11721.261119
158.113298,-1850.514855,6069.688724,3370.820191
158.113608,3108.864956,6291.750507,-7277.907231
158.113917,5551.544565,8808.450710,-6741.640382
158.114227,3330.926739,9844.739029,-4443.353888
158.114536,-296.082377,10066.800811,229.828649
158.114846,-1850.514855,14508.036463,4749.792088
158.115155,-222.061783,17024.736666,5745.716235
158.115465,-814.226536,11177.109724,3907.087040
158.115775,-2072.576638,12953.603985,-2221.676944
158.116084,1702.473667,10214.842000,-8350.440928
158.116394,-3330.926739,9622.677246,-10265.679673
158.116703,-6365.771101,7550.100608,-1225.752797
158.117013,-1332.370696,10732.986159,0.000000
158.117322,5033.400406,10807.006753,-3294.210641
158.117632,1406.391290,7846.182985,536.266849
158.117942,3923.091493,1702.473667,6358.592633
158.118251,2886.803174,2960.823768,8120.612279
158.118561,-2368.659014,-3404.947333,6665.030833
158.118870,-1332.370696,1554.432478,6358.592633
158.119180,5699.585753,13619.789333,-4443.353888
158.119489,-666.185348,15174.221811,-4826.401637
158.119799,-7031.956449,20207.622217,1991.848295
158.120108,-1332.370696,21095.869347,-7967.393179
158.120418,5847.626942,16062.468941,-19075.777900
158.120728,-1406.391290,10732.986159,-6128.763984
158.121037,-8290.306550,4663.297435,8810.098227
158.121347,-3108.864956,7550.100608,1685.410096
158.121656,2220.617826,6291.750507,-1378.971896
158.121966,7254.018232,6883.915261,1149.143247
158.122275,2368.659014,3701.029710,-536.266849
158.122585,2886.803174,3849.070898,766.095498
158.122894,1998.556043,2738.761985,6741.640382
158.123204,-888.247130,9400.615463,4290.134789
158.123514,-1332.370696,8438.347739,689.485948
158.123823,-2590.720797,11029.068536,-4366.744339
158.124133,-74.020594,13175.665768,-7737.564530
158.124442,-592.164754,13323.706956,-12104.308868
158.124752,-518.144159,14211.954086,-7354.516781
158.125061,-2442.679609,15618.345376,-766.095498
158.125371,-0.000000,11029.068536,-153.219100
158.125680,-888.247130,11103.089130,1915.238745
158.125990,1998.556043,5033.400406,3294.210641
158.126300,-148.041188,1702.473667,612.876398
158.126609,-962.267725,5255.462188,459.657299
158.126919,-1554.432478,5477.523971,0.000000
158.127228,3404.947333,5477.523971,-229.828649
158.127538,2516.700203,8956.491898,-2068.457845
158.127847,-1776.494261,11399.171507,-1838.629195
158.128157,-0.000000,16950.716072,-153.219100
158.128467,-1480.411884,9770.718434,-1072.533697
158.128776,-2368.659014,10510.924376,-4979.620737
158.129086,2960.823768,8660.409521,-5515.887586
158.129395,-740.205942,4811.338623,-3294.210641
158.129705,-8364.327145,12287.418637,4826.401637
158.130014,1406.391290,14137.933492,4749.792088
158.130324,6587.832884,14434.015869,-6818.249932
158.130633,1480.411884,9252.574275,-3217.601092
158.130943,-3034.844362,7550.100608,7660.954980
158.131253,296.082377,7105.977043,919.314598
158.131562,2368.659014,8290.306550,-3753.867940
158.131872,-1702.473667,8068.244768,1455.581446
158.132181,518.144159,10288.862594,-689.485948
158.132491,-370.102971,6439.791695,-7354.516781
158.132800,592.164754,9252.574275,-2374.896044
158.133110,4737.318029,11177.109724,-3907.087040
158.133419,740.205942,5625.565159,-1149.143247
158.133729,-6365.771101,7624.121203,12487.356617
158.134039,-5625.565159,9844.739029,10035.851024
158.134348,9622.677246,11695.253884,-12410.747068
158.134658,3849.070898,13545.768739,-11414.822920
158.134967,-5477.523971,11695.253884,3677.258390
158.135277,2072.576638,13027.624579,-4596.572988
158.135586,3182.885551,14137.933492,-8197.221829
158.135896,592.164754,8586.388927,3753.867940
158.136205,-2812.782580,10807.006753,9959.241474
158.136515,-3404.947333,7179.997637,1149.143247
158.136825,-2072.576638,5477.523971,-4519.963438
158.137134,2072.576638,9474.636058,-5975.544884
158.137444,1702.473667,7476.080014,-6358.592633
158.137753,-2220.617826,6365.771101,-1072.533697
158.138063,-1110.308913,10658.965565,3753.867940
158.138372,4663.297435,8216.285956,1225.752797
158.138682,222.061783,8956.491898,3753.867940
158.138992,-4441.235652,2812.782580,8350.440928
158.139301,2146.597232,4959.379811,-2604.724693
158.139611,-444.123565,13027.624579,-12410.747068
158.139920,-74.020594,11917.315666,-4443.353888
158.140230,4515.256246,16728.654289,-4366.744339
158.140539,-2294.638420,16062.468941,-2221.676944
158.140849,-1406.391290,16876.695478,3753.867940
158.141158,-1776.494261,11029.068536,2068.457845
158.141468,2664.741391,4737.318029,-5669.106685
158.141778,1332.370696,518.144159,-2451.505594
158.142087,-3330.926739,2368.659014,3370.820191
158.142397,-814.226536,2294.638420,-1225.752797
158.142706,2072.576638,8882.471304,-1838.629195
158.143016,-962.267725,11843.295072,1608.800546
158.143325,1258.350101,8364.327145,995.924147
158.143635,-444.123565,13101.645173,-3907.087040
158.143944,444.123565,8216.285956,1532.190996
158.144254,2738.761985,12213.398043,-459.657299
158.144564,-2738.761985,9474.636058,-1455.581446
158.144873,-4515.256246,16210.510130,-1915.238745
158.145183,3330.926739,16136.489536,-5669.106685
158.145492,-1184.329507,10362.883188,-8044.002729
158.145802,-1406.391290,11103.089130,-536.266849
158.146111,-0.000000,8512.368333,1991.848295
158.146421,-74.020594,1628.453072,-1838.629195
158.146730,-1184.329507,5773.606348,-2451.505594
158.147040,-2368.659014,3552.988522,5439.278036
158.147350,3701.029710,4811.338623,-3447.429741
158.147659,2516.700203,7550.100608,-6205.373534
158.147969,1258.350101,8142.265362,1608.800546
158.148278,-1036.288319,9474.636058,4826.401637
158.148588,-592.164754,12213.398043,1915.238745
158.148897,-3923.091493,16580.613101,306.438199
158.149207,5551.544565,16728.654289,-7048.078582
158.149516,3256.906145,11769.274478,-10725.336972
158.149826,-8660.409521,8660.409521,2757.943793
158.150135,-5403.503377,13027.624579,1532.190996
158.150445,1924.535449,12361.439231,-9116.536426
158.150754,6217.729913,10362.883188,-9729.412825
158.151064,-1036.288319,9992.780217,-919.314598
158.151373,-1554.432478,3552.988522,2068.457845
158.151683,888.247130,4663.297435,1302.362347
158.151992,3330.926739,5329.482782,5056.230287
158.152302,3182.885551,1036.288319,5898.935335
158.152611,-3849.070898,4367.215058,5056.230287
158.152921,-740.205942,13841.851115,153.219100
158.153230,5995.668130,12509.480420,-8656.879127
158.153540,-1776.494261,14878.139434,-10342.289223
158.153849,-4959.379811,11473.192101,-995.924147
158.154159,-2368.659014,13915.871710,-766.095498
158.154468,-1036.288319,11547.212695,-4443.353888
158.154778,-666.185348,9992.780217,-536.266849
158.155087,-0.000000,9770.718434,2987.772442
158.155397,1924.535449,7920.203579,0.000000
158.155706,1184.329507,7402.059420,-4519.963438
158.156016,2442.679609,7920.203579,-1072.533697
