#time,accel_x,accel_y,accel_z
112.667109,444.123565,9104.533087,-1455.581446
112.667419,222.061783,9252.574275,-1225.752797
112.667729,-1184.329507,9844.739029,-2068.457845
112.668039,-74.020594,9474.636058,-1532.190996
112.668348,518.144159,10066.800811,-1838.629195
112.668658,666.185348,9474.636058,-1762.019645
112.668968,370.102971,9326.594869,-1072.533697
112.669278,-0.000000,9326.594869,-536.266849
112.669587,370.102971,9474.636058,-1225.752797
112.669897,222.061783,9252.574275,-919.314598
112.670207,-666.185348,9104.533087,-919.314598
112.670517,2368.659014,6735.874072,-4903.011187
112.670826,1110.308913,9770.718434,-2681.334243
112.671136,-888.247130,9770.718434,-766.095498
112.671446,444.123565,9474.636058,-383.047749
112.671756,296.082377,9770.718434,-612.876398
112.672065,-592.164754,9918.759623,-2451.505594
112.672375,148.041188,7846.182985,-1915.238745
112.672685,-222.061783,8808.450710,-1532.190996
112.672995,592.164754,9400.615463,-306.438199
112.673304,222.061783,7772.162391,459.657299
112.673614,1184.329507,8438.347739,919.314598
112.673924,1998.556043,7254.018232,689.485948
112.674234,4737.318029,7772.162391,1991.848295
112.674544,1924.535449,7920.203579,7584.345430
112.674853,370.102971,7328.038826,9652.803275
112.675163,3552.988522,7179.997637,9729.412825
112.675473,5995.668130,7476.080014,5515.887586
112.675783,2664.741391,6217.729913,6052.154434
112.676092,-2072.576638,8290.306550,13253.452115
112.676402,444.123565,11547.212695,11644.651570
112.676712,2220.617826,11251.130318,3753.867940
112.677022,1110.308913,12065.356855,4979.620737
112.677331,-1554.432478,13027.624579,10725.336972
112.677641,-13027.624579,15396.283594,10265.679673
112.677951,21465.972318,20281.642811,-2451.505594
112.678261,-6809.894666,5107.421000,1149.143247
112.678570,-2442.679609,14211.954086,19382.216099
112.678880,-20577.725188,10140.821405,29418.067123
112.679190,5181.441594,17764.942608,-1608.800546
112.679500,8808.450710,9326.594869,-7048.078582
112.679810,-7402.059420,11029.068536,7354.516781
112.680119,-7846.182985,11399.171507,11414.822920
112.680429,-1480.411884,7402.059420,229.828649
112.680739,-296.082377,6883.915261,4903.011187
112.681049,-4663.297435,3775.050304,17543.586904
112.681358,4219.173869,3923.091493,11491.432470
112.681668,-5255.462188,148.041188,11951.089769
112.681978,2590.720797,3108.864956,13789.718964
112.682288,-740.205942,7772.162391,9193.145976
112.682597,-1406.391290,5329.482782,1378.971896
112.682907,-1184.329507,13027.624579,6588.421283
112.683217,370.102971,12287.418637,1532.190996
112.683527,6809.894666,12213.398043,-4749.792088
112.683836,592.164754,12287.418637,15628.348159
112.684146,-0.000000,8660.409521,23902.179538
112.684456,888.247130,4885.359217,17237.148705
112.684766,2886.803174,6439.791695,8886.707777
112.685075,-2220.617826,7846.182985,10418.898773
112.685385,5847.626942,13841.851115,-1608.800546
112.685695,6069.688724,15618.345376,-6358.592633
112.686005,-0.000000,16580.613101,8427.050478
112.686315,-5329.482782,14582.057057,21450.673944
112.686624,-5181.441594,11695.253884,13483.280765
112.686934,3849.070898,10436.903782,689.485948
112.687244,3256.906145,8586.388927,-3600.648841
112.687554,1406.391290,7550.100608,1072.533697
112.687863,962.267725,9918.759623,13330.061665
112.688173,-1036.288319,10881.027347,16011.395908
112.688483,1110.308913,7550.100608,9806.022374
112.688793,3849.070898,5033.400406,2374.896044
112.689102,-1110.308913,1628.453072,1915.238745
112.689412,-7105.977043,6143.709319,6205.373534
112.689722,-222.061783,9400.615463,-153.219100
112.690032,8882.471304,9252.574275,-6665.030833
112.690341,4663.297435,7994.224174,4596.572988
112.690651,-5995.668130,6661.853478,21067.626195
112.690961,-5551.544565,8882.471304,19918.482948
112.691271,2294.638420,9104.533087,3677.258390
112.691581,4219.173869,9326.594869,-5286.058936
112.691890,-592.164754,12509.480420,-1455.581446
112.692200,-8512.368333,11917.315666,2681.334243
112.692510,2960.823768,15692.365970,-3294.210641
112.692820,8068.244768,13027.624579,-919.314598
112.693129,-444.123565,8438.347739,16088.005458
112.693439,-5329.482782,6217.729913,23978.789087
112.693749,3923.091493,4515.256246,12640.575717
112.694059,4663.297435,8660.409521,3907.087040
112.694368,5921.647536,9918.759623,2451.505594
112.694678,13101.645173,8882.471304,4290.134789
112.694988,-148.041188,5329.482782,612.876398
112.695298,-7550.100608,6587.832884,21986.940793
112.695607,5477.523971,11843.295072,16394.443657
112.695917,2368.659014,4145.153275,1685.410096
112.696227,-8734.430116,7402.059420,17160.539155
112.696537,1184.329507,16876.695478,9806.022374
112.696846,5033.400406,10584.944971,-17160.539155
112.697156,2368.659014,17912.983796,-4596.572988
112.697466,-7624.121203,15766.386565,22216.769442
112.697776,-3775.050304,12731.542202,7737.564530
112.698086,2960.823768,12731.542202,2068.457845
112.698395,-7550.100608,13989.892304,9729.412825
112.698705,-1998.556043,9030.512492,3064.381992
112.699015,7328.038826,11769.274478,-9806.022374
112.699325,-1036.288319,11991.336260,-3830.477490
112.699634,-4737.318029,12139.377449,10112.460574
112.699944,2442.679609,13323.706956,9806.022374
112.700254,-1406.391290,10658.965565,-1225.752797
112.700564,1554.432478,7920.203579,3907.087040
112.700873,592.164754,7772.162391,7201.297681
112.701183,444.123565,4071.132681,1455.581446
112.701493,4663.297435,4737.318029,76.609550
112.701803,-148.041188,3552.988522,10265.679673
112.702112,-444.123565,3478.967927,6511.811733
112.702422,5181.441594,3108.864956,-2451.505594
112.702732,3182.885551,11325.150913,4366.744339
112.703042,-4441.235652,8586.388927,11568.042020
112.703351,5255.462188,7105.977043,1838.629195
112.703661,1480.411884,8882.471304,-1532.190996
112.703971,-4885.359217,5107.421000,76.609550
112.704281,1554.432478,8882.471304,-4366.744339
112.704591,-1036.288319,13027.624579,-2757.943793
112.704900,-4663.297435,17172.777854,5132.839837
112.705210,-0.000000,16136.489536,5822.325785
112.705520,3923.091493,15396.283594,-1225.752797
112.705830,2442.679609,9696.697840,-5745.716235
112.706139,-1036.288319,7994.224174,1378.971896
112.706449,-1554.432478,10881.027347,6435.202183
112.706759,-0.000000,10362.883188,153.219100
112.707069,888.247130,12139.377449,-2834.553343
112.707378,-1850.514855,11177.109724,-2757.943793
112.707688,740.205942,4441.235652,-7431.126331
112.707998,-1850.514855,10214.842000,-5592.497135
112.708308,-4145.153275,8882.471304,1762.019645
112.708617,-1776.494261,8956.491898,1838.629195
112.708927,1110.308913,9104.533087,-3600.648841
112.709237,6069.688724,7254.018232,-8886.707777
112.709547,-2368.659014,6365.771101,2145.067394
112.709857,-4515.256246,10658.965565,8427.050478
112.710166,592.164754,11547.212695,0.000000
112.710476,3256.906145,9696.697840,-10878.556072
112.710786,4219.173869,7105.977043,-11414.822920
112.711096,-888.247130,5477.523971,-5515.887586
112.711405,-0.000000,5921.647536,1762.019645
112.711715,-1110.308913,5403.503377,7584.345430
112.712025,1776.494261,9030.512492,8273.831378
112.712335,7550.100608,6513.812290,-1532.190996
112.712644,4959.379811,4885.359217,-5822.325785
112.712954,1850.514855,10436.903782,2298.286494
112.713264,-1628.453072,10214.842000,4903.011187
112.713574,1332.370696,15470.304188,-2528.115143
112.713883,4367.215058,13027.624579,-9039.926876
112.714193,2442.679609,12657.521608,-9882.631924
112.714503,1036.288319,12139.377449,-1991.848295
112.714813,-4071.132681,17764.942608,2451.505594
112.715122,370.102971,10584.944971,2681.334243
112.715432,1554.432478,10436.903782,2987.772442
112.715742,3627.009116,7920.203579,-4366.744339
112.716052,296.082377,5107.421000,-9269.755526
112.716362,-4589.276840,6809.894666,0.000000
112.716671,-6661.853478,10658.965565,4213.525239
112.716981,-444.123565,13693.809927,-5745.716235
112.717291,3182.885551,11325.150913,-11491.432470
112.717601,-444.123565,7772.162391,-9039.926876
112.717910,-4071.132681,10881.027347,-383.047749
112.718220,-4589.276840,7031.956449,7201.297681
112.718530,-444.123565,5625.565159,8580.269578
112.718840,6661.853478,9548.656652,306.438199
112.719149,888.247130,4219.173869,-5515.887586
112.719459,-5551.544565,3627.009116,6435.202183
112.719769,-3404.947333,8512.368333,9116.536426
112.720079,148.041188,11251.130318,-3600.648841
112.720388,-1406.391290,13397.727550,-6205.373534
112.720698,962.267725,8734.430116,-6052.154434
112.721008,-222.061783,7550.100608,-7890.783629
112.721318,-0.000000,13249.686362,1378.971896
112.721628,-4663.297435,9178.553681,10878.556072
112.721937,-4219.173869,9474.636058,8503.660028
112.722247,5551.544565,9844.739029,1072.533697
112.722557,4663.297435,7402.059420,-5286.058936
112.722866,-666.185348,9030.512492,842.705048
112.723176,-4737.318029,10732.986159,5056.230287
112.723486,-2146.597232,9918.759623,-3524.039291
112.723795,1628.453072,12435.459826,-7048.078582
112.724105,1184.329507,10881.027347,-8273.831378
112.724415,-1036.288319,7550.100608,-7737.564530
112.724724,-2886.803174,10066.800811,76.609550
112.725034,-4441.235652,11399.171507,9806.022374
112.725344,4515.256246,9400.615463,1762.019645
112.725653,4885.359217,7698.141797,-6665.030833
112.725963,-2664.741391,5033.400406,-1532.190996
112.726273,-2664.741391,10955.047942,6971.469032
112.726582,-888.247130,9474.636058,-995.924147
112.726892,1850.514855,13841.851115,-5362.668486
112.727202,814.226536,13989.892304,-2681.334243
112.727511,3775.050304,9696.697840,-8580.269578
112.727821,-148.041188,9400.615463,-3370.820191
112.728130,-4663.297435,9844.739029,10495.508323
112.728440,-74.020594,6883.915261,8886.707777
112.728750,6143.709319,7994.224174,-306.438199
112.729059,4811.338623,4293.194464,1532.190996
112.729369,-2220.617826,4515.256246,2068.457845
112.729679,814.226536,9178.553681,1072.533697
112.729988,-1628.453072,7179.997637,-842.705048
112.730298,592.164754,13841.851115,-1455.581446
112.730608,3997.112087,12657.521608,-8273.831378
112.730917,1924.535449,7476.080014,-11261.603821
112.731227,-666.185348,11843.295072,459.657299
112.731537,-3404.947333,10436.903782,8120.612279
112.731846,1184.329507,7105.977043,2374.896044
112.732156,5033.400406,7772.162391,-1225.752797
112.732466,-0.000000,6365.771101,689.485948
112.732775,-1036.288319,5551.544565,-2145.067394
112.733085,-1184.329507,9622.677246,-3140.991542
112.733395,-4145.153275,7624.121203,-1072.533697
112.733704,1110.308913,13545.768739,-4366.744339
112.734014,3256.906145,12583.501014,-12870.404366
112.734324,-1480.411884,9548.656652,-10189.070123
112.734633,-5181.441594,9992.780217,6435.202183
112.734943,-1702.473667,5921.647536,6358.592633
112.735253,3478.967927,6291.750507,0.000000
112.735562,1554.432478,7698.141797,4136.915689
112.735872,-1184.329507,6069.688724,842.705048
112.736182,-2368.659014,5255.462188,153.219100
112.736491,-1480.411884,9548.656652,2298.286494
112.736801,-3034.844362,9770.718434,766.095498
112.737111,1332.370696,13397.727550,-5822.325785
112.737420,1332.370696,11991.336260,-10878.556072
112.737730,-5995.668130,10807.006753,-3217.601092
112.738040,-2960.823768,13323.706956,4213.525239
112.738349,2368.659014,9474.636058,536.266849
112.738659,-0.000000,9474.636058,1915.238745
112.738969,1998.556043,8438.347739,6588.421283
112.739278,1332.370696,3182.885551,689.485948
112.739588,3552.988522,5033.400406,-1608.800546
112.739898,-2590.720797,11325.150913,459.657299
112.740207,-1406.391290,12657.521608,-1455.581446
112.740517,4293.194464,12879.583391,-9269.755526
112.740827,2368.659014,11695.253884,-13559.890315
112.741136,-2146.597232,10436.903782,-4903.011187
112.741446,-1998.556043,10881.027347,2374.896044
112.741756,-1628.453072,6957.935855,306.438199
112.742065,296.082377,7476.080014,2757.943793
112.742375,1258.350101,7772.162391,3907.087040
112.742685,4589.276840,5773.606348,-4519.963438
112.742994,666.185348,8956.491898,842.705048
112.743304,-4441.235652,11621.233289,2451.505594
112.743613,-0.000000,10807.006753,-2374.896044
112.743923,4589.276840,14285.974681,-11568.042020
112.744233,1554.432478,12139.377449,-10112.460574
112.744542,-3552.988522,10955.047942,-995.924147
112.744852,-3182.885551,10362.883188,10801.946522
112.745162,-0.000000,7031.956449,6971.469032
112.745471,3701.029710,7920.203579,4903.011187
112.745781,962.267725,6291.750507,1149.143247
112.746091,-0.000000,4589.276840,3600.648841
112.746400,1184.329507,9400.615463,3524.039291
112.746710,-1110.308913,10732.986159,-3524.039291
112.747020,1036.288319,14434.015869,-1302.362347
112.747329,518.144159,15840.407159,-4366.744339
112.747639,-2220.617826,11325.150913,-10418.898773
112.747949,-1036.288319,11399.171507,-3370.820191
112.748258,-4515.256246,11251.130318,4213.525239
112.748568,74.020594,8808.450710,1838.629195
112.748878,3627.009116,9030.512492,1225.752797
112.749187,444.123565,3552.988522,-4060.306139
112.749497,1184.329507,3330.926739,-1378.971896
112.749807,-1628.453072,7550.100608,1378.971896
112.750116,-4367.215058,9696.697840,-229.828649
112.750426,1776.494261,13989.892304,-6818.249932
112.750736,2738.761985,12879.583391,-13253.452115
112.751045,-1406.391290,9548.656652,-8656.879127
112.751355,-2220.617826,10362.883188,842.705048
112.751665,-2220.617826,9474.636058,0.000000
112.751974,222.061783,8956.491898,7431.126331
112.752284,3256.906145,8512.368333,4366.744339
112.752594,2072.576638,3923.091493,-4519.963438
112.752903,1998.556043,6439.791695,-1915.238745
112.753213,-2812.782580,9770.718434,2451.505594
112.753523,-1110.308913,8882.471304,-153.219100
112.753832,3775.050304,15988.448347,-5822.325785
112.754142,3478.967927,11695.253884,-11951.089769
112.754452,-222.061783,10732.986159,-7507.735880
112.754761,-4071.132681,10362.883188,4749.792088
112.755071,-4145.153275,9474.636058,4826.401637
112.755381,4441.235652,10510.924376,-4903.011187
112.755690,2960.823768,5921.647536,-6128.763984
112.756000,-592.164754,6439.791695,229.828649
112.756310,-1332.370696,4885.359217,1455.581446
112.756619,-1036.288319,7920.203579,-1532.190996
112.756929,592.164754,10807.006753,-2834.553343
112.757239,1924.535449,12139.377449,-7967.393179
112.757548,518.144159,9030.512492,-10725.336972
112.757858,-666.185348,10955.047942,-4749.792088
112.758168,-1850.514855,10436.903782,689.485948
112.758477,-1924.535449,7772.162391,-995.924147
112.758787,666.185348,9474.636058,306.438199
112.759097,-222.061783,5181.441594,3217.601092
112.759406,2886.803174,6513.812290,-6128.763984
112.759716,370.102971,8290.306550,1991.848295
112.760025,-5847.626942,11621.233289,5515.887586
112.760335,4441.235652,12657.521608,-1225.752797
112.760645,7179.997637,12657.521608,-11031.775171
112.760954,888.247130,10362.883188,-11721.261119
112.761264,-3478.967927,9918.759623,2757.943793
112.761574,-1184.329507,10658.965565,3677.258390
112.761883,-740.205942,9844.739029,919.314598
112.762193,4071.132681,11103.089130,1532.190996
112.762503,148.041188,2220.617826,-2145.067394
112.762812,-148.041188,5995.668130,0.000000
112.763122,-518.144159,9474.636058,5745.716235
112.763432,-3478.967927,9696.697840,1838.629195
112.763741,4441.235652,14359.995275,-1838.629195
112.764051,3552.988522,12509.480420,-10189.070123
112.764361,-370.102971,7254.018232,-9806.022374
112.764670,-4737.318029,12065.356855,1532.190996
112.764980,-3627.009116,9400.615463,3753.867940
112.765290,1036.288319,10658.965565,689.485948
112.765599,3552.988522,9400.615463,-2221.676944
112.765909,1258.350101,2294.638420,-4903.011187
112.766219,-2146.597232,5847.626942,4519.963438
112.766528,-2960.823768,5551.544565,6205.373534
112.766838,-3997.112087,9400.615463,1149.143247
112.767148,6735.874072,13249.686362,-5592.497135
112.767457,1998.556043,8512.368333,-13406.671215
112.767767,-1036.288319,11843.295072,-8503.660028
112.768077,-4515.256246,12287.418637,3907.087040
112.768386,-2220.617826,12953.603985,-459.657299
112.768696,2812.782580,11473.192101,-766.095498
112.769006,3775.050304,9030.512492,1685.410096
112.769315,-296.082377,5477.523971,-1378.971896
112.769625,1332.370696,9992.780217,3524.039291
112.769935,-1258.350101,8808.450710,5286.058936
112.770244,2886.803174,8512.368333,-612.876398
112.770554,3701.029710,12361.439231,-1608.800546
112.770864,-1776.494261,8882.471304,-6894.859482
112.771173,-2442.679609,8142.265362,-536.266849
112.771483,-2738.761985,11621.233289,1838.629195
112.771793,-2886.803174,11843.295072,-3524.039291
112.772102,2812.782580,13693.809927,-4903.011187
112.772412,-0.000000,4663.297435,-5669.106685
112.772722,-2812.782580,5477.523971,-459.657299
112.773031,-4589.276840,7550.100608,8733.488677
112.773341,-1480.411884,6809.894666,1225.752797
112.773651,2368.659014,8882.471304,-3600.648841
112.773960,2368.659014,10436.903782,-6281.983084
112.774270,-814.226536,7179.997637,-8120.612279
112.774580,-1924.535449,10214.842000,-4826.401637
112.774889,-6217.729913,9030.512492,-1072.533697
112.775199,-1998.556043,9400.615463,766.095498
112.775509,2516.700203,12435.459826,-459.657299
112.775818,1110.308913,7402.059420,-6435.202183
112.776128,-3701.029710,9326.594869,3677.258390
112.776437,-2220.617826,11843.295072,7737.564530
112.776747,2886.803174,8586.388927,-4213.525239
112.777057,7105.977043,14434.015869,-6128.763984
112.777366,-2146.597232,13397.727550,-3600.648841
112.777676,1258.350101,10066.800811,-3524.039291
112.777986,1110.308913,14508.036463,-1378.971896
112.778295,-2294.638420,10955.047942,1149.143247
112.778605,2960.823768,10732.986159,919.314598
112.778915,1110.308913,7031.956449,1302.362347
112.779224,444.123565,3775.050304,-1532.190996
112.779534,814.226536,8512.368333,459.657299
112.779844,-1702.473667,9474.636058,689.485948
112.780153,-1850.514855,8956.491898,-2834.553343
112.780463,5921.647536,13175.665768,-4903.011187
112.780773,1702.473667,10066.800811,-10495.508323
112.781082,-1406.391290,7698.141797,-6894.859482
112.781392,-3034.844362,9992.780217,4290.134789
112.781702,-2072.576638,5477.523971,3600.648841
112.782011,3034.844362,9400.615463,306.438199
112.782321,962.267725,7846.182985,-1762.019645
112.782631,-2738.761985,4441.235652,-995.924147
112.782940,2590.720797,7772.162391,1072.533697
112.783250,-2072.576638,8290.306550,-5056.230287
112.783560,888.247130,9252.574275,-4290.134789
112.783869,1110.308913,13693.809927,-1532.190996
112.784179,1702.473667,9770.718434,-9806.022374
112.784489,3330.926739,10288.862594,-6052.154434
112.784798,-4145.153275,11177.109724,7660.954980
112.785108,-2664.741391,10288.862594,6281.983084
112.785418,6143.709319,13619.789333,612.876398
112.785727,2664.741391,11251.130318,-4673.182538
112.786037,-0.000000,5625.565159,-3064.381992
112.786347,-0.000000,12361.439231,1608.800546
112.786656,-1406.391290,9918.759623,-766.095498
112.786966,1480.411884,9918.759623,-383.047749
112.787276,4589.276840,13175.665768,-2681.334243
112.787585,-3478.967927,4811.338623,-1532.190996
112.787895,518.144159,7920.203579,1532.190996
112.788205,-2516.700203,8142.265362,1915.238745
112.788514,222.061783,9474.636058,-995.924147
112.788824,2738.761985,13545.768739,-842.705048
112.789134,-3923.091493,4737.318029,-4596.572988
112.789443,-1998.556043,7328.038826,-1378.971896
112.789753,-3997.112087,8956.491898,2145.067394
112.790063,-4367.215058,7031.956449,-1838.629195
112.790372,1110.308913,14211.954086,-1378.971896
112.790682,1184.329507,9548.656652,-8427.050478
112.790992,1998.556043,5921.647536,-12257.527968
112.791301,-3034.844362,10955.047942,1915.238745
112.791611,-3404.947333,7105.977043,4903.011187
112.791921,1406.391290,4589.276840,-383.047749
112.792230,3923.091493,11547.212695,-995.924147
112.792540,-2368.659014,6069.688724,-4366.744339
112.792849,-0.000000,9770.718434,-3217.601092
112.793159,592.164754,13323.706956,-1455.581446
112.793469,-3478.967927,10955.047942,-1608.800546
112.793778,5033.400406,17542.880825,-995.924147
112.794088,1776.494261,11769.274478,-9806.022374
112.794398,1702.473667,9400.615463,-6358.592633
112.794707,518.144159,12879.583391,4903.011187
112.795017,-2738.761985,9474.636058,1608.800546
112.795327,3701.029710,9770.718434,2528.115143
112.795636,1480.411884,9474.636058,689.485948
112.795946,-74.020594,2368.659014,-4596.572988
112.796256,1406.391290,9030.512492,2145.067394
112.796565,-2590.720797,9992.780217,2757.943793
112.796875,296.082377,10955.047942,-2374.896044
112.797185,4811.338623,15470.304188,-4596.572988
112.797494,-74.020594,9178.553681,-12257.527968
112.797804,-592.164754,6513.812290,-6052.154434
112.798114,-2294.638420,10584.944971,2834.553343
112.798423,-3034.844362,5033.400406,3217.601092
112.798733,4441.235652,11769.274478,2987.772442
112.799043,1184.329507,5773.606348,-459.657299
112.799352,-814.226536,1998.556043,-3064.381992
112.799662,2368.659014,7254.018232,689.485948
112.799972,-2664.741391,6661.853478,-2374.896044
112.800281,-1184.329507,12139.377449,-1685.410096
112.800591,4737.318029,15100.201217,-9039.926876
112.800901,2294.638420,8290.306550,-14938.862211
112.801210,-666.185348,10288.862594,-2451.505594
112.801520,-3701.029710,11399.171507,8733.488677
112.801830,-2442.679609,8734.430116,3524.039291
112.802139,6587.832884,13323.706956,-1762.019645
112.802449,1702.473667,5477.523971,-2068.457845
112.802759,1258.350101,7402.059420,689.485948
112.803068,-370.102971,11917.315666,4749.792088
112.803378,-3552.988522,8956.491898,-1608.800546
112.803688,2664.741391,15470.304188,-2757.943793
112.803997,1110.308913,13693.809927,-6358.592633
112.804307,-740.205942,7105.977043,-9806.022374
112.804617,-296.082377,10658.965565,-1685.410096
112.804926,-2664.741391,7476.080014,3907.087040
112.805236,-0.000000,6883.915261,3983.696590
112.805546,3330.926739,9622.677246,2834.553343
112.805855,518.144159,3997.112087,-459.657299
112.806165,-1036.288319,5625.565159,2451.505594
112.806475,-3256.906145,9696.697840,5362.668486
112.806784,-4367.215058,9696.697840,-2528.115143
112.807094,2442.679609,15322.262999,-8273.831378
112.807404,2960.823768,11473.192101,-14555.814462
112.807713,-2368.659014,6661.853478,-10112.460574
112.808023,-5255.462188,10140.821405,3983.696590
112.808332,-2072.576638,5477.523971,7277.907231
112.808642,2664.741391,5699.585753,4903.011187
112.808952,5699.585753,9030.512492,-306.438199
112.809261,-1776.494261,2368.659014,-2604.724693
112.809571,-296.082377,9622.677246,4213.525239
112.809881,-0.000000,12213.398043,383.047749
112.810190,666.185348,13323.706956,-8886.707777
112.810500,3849.070898,19171.333898,-4290.134789
112.810810,-2146.597232,11769.274478,-6128.763984
112.811119,-222.061783,9696.697840,-4136.915689
112.811429,-1258.350101,12435.459826,4060.306139
112.811739,-814.226536,7550.100608,5515.887586
112.812048,5995.668130,10362.883188,3830.477490
112.812358,1776.494261,8586.388927,-536.266849
112.812668,-2516.700203,2590.720797,-612.876398
112.812977,962.267725,9770.718434,3830.477490
112.813287,-2738.761985,10510.924376,-6435.202183
112.813597,-0.000000,12213.398043,-5132.839837
112.813906,1924.535449,17542.880825,-6281.983084
112.814216,-666.185348,7105.977043,-10112.460574
112.814526,-444.123565,9696.697840,-459.657299
112.814835,-3478.967927,9770.718434,10112.460574
112.815145,370.102971,4441.235652,4366.744339
112.815455,3997.112087,8068.244768,2911.162892
112.815764,-1110.308913,3552.988522,-1608.800546
112.816074,-1406.391290,3034.844362,-1838.629195
112.816384,592.164754,7476.080014,459.657299
112.816693,-3404.947333,8512.368333,-4060.306139
112.817003,740.205942,14656.077652,-2604.724693
112.817313,3034.844362,15100.201217,-6741.640382
112.817622,-444.123565,9844.739029,-9499.584175
112.817932,-1554.432478,11769.274478,3983.696590
112.818242,-1110.308913,12139.377449,8273.831378
112.818551,3256.906145,9696.697840,-2298.286494
112.818861,6883.915261,11251.130318,-1225.752797
112.819171,-1554.432478,7624.121203,-766.095498
112.819480,296.082377,7254.018232,2987.772442
112.819790,1924.535449,10881.027347,1532.190996
112.820100,-1480.411884,9770.718434,-1685.410096
112.820409,3552.988522,14804.118840,-1149.143247
112.820719,1776.494261,10807.006753,-7660.954980
112.821029,-4737.318029,5773.606348,-5898.935335
112.821338,-370.102971,14508.036463,4673.182538
112.821648,-74.020594,10584.944971,-2451.505594
112.821958,2294.638420,10140.821405,-3064.381992
112.822267,518.144159,10214.842000,4136.915689
112.822577,-3552.988522,3849.070898,1532.190996
112.822887,2516.700203,6661.853478,3064.381992
112.823196,-0.000000,8586.388927,4213.525239
112.823506,-4811.338623,5773.606348,-1072.533697
112.823816,888.247130,13471.748144,-2834.553343
112.824125,2590.720797,7550.100608,-11644.651570
112.824435,-1480.411884,7031.956449,-9882.631924
112.824745,-740.205942,13619.789333,1762.019645
112.825054,-3849.070898,6365.771101,1378.971896
112.825364,1702.473667,7476.080014,842.705048
112.825674,2960.823768,9030.512492,995.924147
112.825983,-2442.679609,1554.432478,229.828649
112.826293,2220.617826,9992.780217,5439.278036
112.826603,2664.741391,11547.212695,0.000000
112.826912,1998.556043,11251.130318,-7124.688131
112.827222,1480.411884,18505.148550,-2451.505594
112.827532,-3404.947333,13323.706956,-6205.373534
112.827841,888.247130,8438.347739,-7890.783629
112.828151,-814.226536,13323.706956,153.219100
112.828461,-2960.823768,7994.224174,3140.991542
112.828770,2812.782580,8882.471304,4979.620737
112.829080,3923.091493,6661.853478,689.485948
112.829390,-1184.329507,-444.123565,0.000000
112.829699,1702.473667,10066.800811,7890.783629
112.830009,-2072.576638,8068.244768,1838.629195
112.830319,-370.102971,15544.324782,-1149.143247
112.830628,4515.256246,18801.230927,-5669.106685
112.830938,-2368.659014,9326.594869,-16471.053207
112.831248,-3478.967927,10214.842000,-5286.058936
112.831557,-4441.235652,10140.821405,4596.572988
112.831867,518.144159,7550.100608,-2681.334243
112.832177,5551.544565,8660.409521,612.876398
112.832486,-4219.173869,3627.009116,6971.469032
112.832796,222.061783,-0.000000,4903.011187
112.833106,4959.379811,5033.400406,-1225.752797
112.833415,-6291.750507,8734.430116,-1991.848295
112.833725,-1776.494261,13841.851115,1991.848295
112.834035,4293.194464,14878.139434,-13100.233016
112.834344,1628.453072,10214.842000,-16930.710506
112.834654,-3775.050304,17024.736666,3140.991542
112.834964,-2146.597232,12139.377449,4366.744339
112.835273,1776.494261,8586.388927,-1685.410096
112.835583,3627.009116,13915.871710,4290.134789
112.835893,-1776.494261,4441.235652,1991.848295
112.836202,5551.544565,6957.935855,-689.485948
112.836512,370.102971,10955.047942,1608.800546
112.836822,-4959.379811,10732.986159,3753.867940
112.837131,4071.132681,12805.562797,-2221.676944
112.837441,1850.514855,12953.603985,-12487.356617
112.837751,-1776.494261,10066.800811,-6281.983084
112.838060,-1628.453072,10732.986159,5056.230287
112.838370,-296.082377,8882.471304,-3217.601092
112.838680,1258.350101,10881.027347,1149.143247
112.838989,2146.597232,11029.068536,7737.564530
112.839299,-148.041188,2368.659014,-5669.106685
112.839609,-814.226536,7254.018232,2374.896044
112.839918,-3627.009116,10214.842000,8197.221829
112.840228,-1554.432478,7031.956449,-2221.676944
112.840538,3627.009116,13027.624579,-6741.640382
112.840847,-2368.659014,9548.656652,-9882.631924
112.841157,-1850.514855,4959.379811,-6281.983084
112.841467,-666.185348,9104.533087,919.314598
112.841776,-2294.638420,7031.956449,2528.115143
112.842086,2590.720797,10955.047942,4366.744339
112.842396,1776.494261,8956.491898,-306.438199
112.842705,-1184.329507,3034.844362,-1685.410096
112.843015,1332.370696,10955.047942,1991.848295
112.843325,-222.061783,8734.430116,-4290.134789
112.843634,-370.102971,13397.727550,-2068.457845
112.843944,1998.556043,17838.963202,0.000000
112.844254,2368.659014,8956.491898,-11644.651570
112.844563,-1036.288319,11177.109724,-3140.991542
112.844873,-2516.700203,12879.583391,8044.002729
112.845183,-592.164754,7254.018232,1378.971896
112.845492,5699.585753,10288.862594,-2757.943793
112.845802,444.123565,5773.606348,-2451.505594
112.846112,-1406.391290,3923.091493,1608.800546
112.846421,1258.350101,8438.347739,1838.629195
112.846731,-4885.359217,9622.677246,2834.553343
112.847041,-74.020594,15692.365970,2834.553343
112.847350,4071.132681,14434.015869,-9116.536426
112.847660,-2220.617826,7476.080014,-14402.595362
112.847970,-3182.885551,13249.686362,2221.676944
112.848279,-2960.823768,9474.636058,1455.581446
112.848589,2146.597232,5477.523971,-3370.820191
112.848899,3034.844362,9252.574275,3140.991542
112.849208,-2072.576638,4145.153275,229.828649
112.849518,-0.000000,592.164754,689.485948
112.849828,-962.267725,5551.544565,4826.401637
112.850137,-1702.473667,8808.450710,-1532.190996
112.850447,5551.544565,12731.542202,-4290.134789
112.850757,222.061783,10436.903782,-9499.584175
112.851066,-2442.679609,9548.656652,-6894.859482
112.851376,-0.000000,14211.954086,536.266849
112.851686,-3034.844362,11473.192101,-612.876398
112.851995,-444.123565,11325.150913,995.924147
112.852305,6439.791695,11769.274478,-2145.067394
112.852615,2960.823768,2294.638420,-8350.440928
112.852924,-1702.473667,5995.668130,5592.497135
112.853234,-1110.308913,7031.956449,8963.317327
112.853544,1184.329507,8586.388927,0.000000
112.853853,5255.462188,15840.407159,-3294.210641
112.854163,-1628.453072,11177.109724,-6281.983084
112.854473,-1776.494261,12805.562797,-7354.516781
112.854782,-1776.494261,15174.221811,-3830.477490
112.855092,222.061783,10807.006753,-4903.011187
112.855402,1998.556043,13027.624579,-1608.800546
112.855711,-0.000000,9252.574275,229.828649
112.856021,-2886.803174,3256.906145,0.000000
112.856331,1184.329507,4515.256246,10112.460574
112.856640,-1036.288319,4515.256246,3524.039291
112.856950,-0.000000,5699.585753,-1072.533697
112.857260,518.144159,10955.047942,-995.924147
112.857569,-1480.411884,7179.997637,-9346.365076
112.857879,-1998.556043,7994.224174,-8197.221829
112.858189,-3034.844362,12509.480420,-1072.533697
112.858498,-3701.029710,9030.512492,-2068.457845
112.858808,2146.597232,12139.377449,2068.457845
112.859118,3182.885551,8290.306550,-1838.629195
112.859427,-592.164754,2516.700203,-1762.019645
112.859737,-0.000000,9844.739029,7354.516781
112.860047,-2368.659014,7772.162391,1225.752797
112.860356,3330.926739,11029.068536,-4673.182538
112.860666,4811.338623,15766.386565,-3983.696590
112.860976,-2220.617826,9844.739029,-7890.783629
112.861285,-2220.617826,10955.047942,0.000000
112.861595,-2368.659014,8882.471304,3140.991542
112.861905,962.267725,7031.956449,-3524.039291
112.862214,3256.906145,12731.542202,2374.896044
112.862524,740.205942,6883.915261,-459.657299
112.862834,-370.102971,8808.450710,-1149.143247
112.863143,-1702.473667,12657.521608,1991.848295
112.863453,-1628.453072,9770.718434,-5515.887586
112.863763,962.267725,14434.015869,-3830.477490
112.864072,3701.029710,14211.954086,-7584.345430
112.864382,-3552.988522,7846.182985,-9269.755526
112.864692,-666.185348,10436.903782,5669.106685
112.865001,-1924.535449,4367.215058,5209.449386
112.865311,1628.453072,3775.050304,3140.991542
112.865621,666.185348,7254.018232,4136.915689
112.865930,-3108.864956,-814.226536,-2221.676944
112.866240,-222.061783,5625.565159,-2374.896044
112.866550,-1998.556043,11473.192101,-5209.449386
112.866859,-2664.741391,9326.594869,-5286.058936
112.867169,962.267725,19393.395680,-4213.525239
112.867479,1406.391290,11399.171507,-10955.165621
112.867788,-2590.720797,8364.327145,-5669.106685
112.868098,-888.247130,12657.521608,7507.735880
112.868408,222.061783,4811.338623,1762.019645
112.868717,6809.894666,7624.121203,-153.219100
112.869027,-592.164754,10881.027347,2068.457845
112.869337,-1554.432478,4589.276840,-2068.457845
112.869646,1554.432478,7550.100608,76.609550
112.869956,-1554.432478,12953.603985,-459.657299
112.870266,-1776.494261,13693.809927,-4673.182538
112.870575,4367.215058,16284.530724,-2068.457845
112.870885,-148.041188,14434.015869,-9269.755526
112.871195,-3108.864956,10955.047942,-2757.943793
112.871504,2886.803174,11695.253884,1762.019645
112.871814,-2294.638420,7105.977043,153.219100
112.872124,2442.679609,10436.903782,5515.887586
112.872433,222.061783,7920.203579,383.047749
112.872743,-1258.350101,3775.050304,-3294.210641
112.873053,444.123565,7550.100608,3064.381992
112.873362,-4589.276840,4811.338623,-2451.505594
112.873672,-1924.535449,10214.842000,-4749.792088
112.873982,2886.803174,11473.192101,-4443.353888
112.874291,888.247130,5699.585753,-10572.117872
112.874601,-3404.947333,8216.285956,-3370.820191
112.874911,-1776.494261,10584.944971,1762.019645
112.875220,-2442.679609,6291.750507,-919.314598
112.875530,2294.638420,11917.315666,0.000000
112.875840,3108.864956,6439.791695,-3830.477490
112.876149,-2516.700203,5921.647536,-4213.525239
112.876459,-666.185348,9770.718434,3830.477490
112.876769,740.205942,7476.080014,-995.924147
112.877078,962.267725,13915.871710,0.000000
112.877388,2886.803174,14063.912898,-3294.210641
112.877698,-888.247130,11843.295072,-10955.165621
112.878007,1332.370696,11917.315666,-1532.190996
112.878317,-2516.700203,10510.924376,1532.190996
112.878627,-518.144159,10288.862594,1685.410096
112.878936,3404.947333,14359.995275,2374.896044
112.879246,2220.617826,6809.894666,-5822.325785
112.879556,-1406.391290,5773.606348,-842.705048
112.879865,-0.000000,11399.171507,5439.278036
112.880175,-4589.276840,8216.285956,459.657299
112.880485,666.185348,12065.356855,-2221.676944
112.880794,1776.494261,12953.603985,-7737.564530
112.881104,-3182.885551,5773.606348,-7584.345430
112.881414,-2664.741391,10066.800811,4443.353888
112.881723,-2738.761985,8586.388927,1378.971896
112.882033,370.102971,7402.059420,-4136.915689
112.882343,3478.967927,7920.203579,-1915.238745
112.882652,-3478.967927,1480.411884,-2374.896044
112.882962,-2590.720797,5995.668130,2681.334243
112.883272,-0.000000,6883.915261,-2987.772442
112.883581,-2368.659014,6957.935855,-4366.744339
112.883891,-444.123565,15988.448347,-1685.410096
112.884201,888.247130,9474.636058,-9346.365076
112.884510,296.082377,7846.182985,-9652.803275
112.884820,222.061783,10140.821405,2757.943793
112.885130,-1554.432478,9030.512492,3294.210641
112.885439,1036.288319,11029.068536,3140.991542
112.885749,3701.029710,9622.677246,1838.629195
112.886059,1184.329507,6069.688724,-1378.971896
112.886368,2368.659014,12583.501014,229.828649
112.886678,-1998.556043,11621.233289,0.000000
112.886988,-1184.329507,14137.933492,-2298.286494
112.887297,3478.967927,17987.004391,-8886.707777
112.887607,444.123565,10214.842000,-13559.890315
112.887917,-1258.350101,11473.192101,-2298.286494
112.888226,-962.267725,10732.986159,5209.449386
112.888536,518.144159,5477.523971,1838.629195
112.888846,1628.453072,6661.853478,5975.544884
112.889155,-666.185348,4589.276840,3524.039291
112.889465,-222.061783,1776.494261,0.000000
112.889775,-3256.906145,7772.162391,2374.896044
112.890084,-1702.473667,9696.697840,-3907.087040
112.890394,-592.164754,12213.398043,-6511.811733
112.890704,888.247130,15692.365970,-11491.432470
112.891013,-3034.844362,7624.121203,-11031.775171
112.891323,-518.144159,8956.491898,-536.266849
112.891633,-1110.308913,8660.409521,3907.087040
112.891942,-148.041188,4737.318029,7431.126331
112.892252,1776.494261,9548.656652,7201.297681
112.892562,3330.926739,2664.741391,-2987.772442
112.892871,1702.473667,3923.091493,-3447.429741
112.893181,518.144159,11917.315666,3447.429741
112.893491,-2146.597232,13397.727550,-3294.210641
112.893800,1480.411884,17098.757260,-6665.030833
112.894110,4219.173869,17987.004391,-8427.050478
112.894420,-1036.288319,12657.521608,-9346.365076
112.894729,1258.350101,12139.377449,2681.334243
112.895039,1406.391290,10955.047942,4979.620737
112.895349,2368.659014,6217.729913,2068.457845
112.895658,4441.235652,7105.977043,4290.134789
112.895968,-0.000000,3923.091493,3370.820191
112.896278,-444.123565,6957.935855,6128.763984
112.896587,1924.535449,11843.295072,1149.143247
112.896897,-3701.029710,13841.851115,-3140.991542
112.897207,370.102971,17320.819043,-4519.963438
112.897516,2368.659014,12657.521608,-10648.727422
112.897826,-5255.462188,8956.491898,-7660.954980
112.898136,-4959.379811,11029.068536,5362.668486
112.898445,592.164754,4885.359217,1225.752797
112.898755,1628.453072,5921.647536,1455.581446
112.899065,-0.000000,8290.306550,5056.230287
112.899374,-0.000000,-740.205942,-1838.629195
112.899684,-2590.720797,3552.988522,536.266849
112.899994,-2368.659014,7476.080014,536.266849
112.900303,-444.123565,9178.553681,-4136.915689
112.900613,4663.297435,16580.613101,-8886.707777
112.900923,-1036.288319,10658.965565,-9729.412825
112.901232,-2664.741391,11103.089130,-1608.800546
112.901542,-666.185348,11177.109724,995.924147
112.901852,3849.070898,6069.688724,-2757.943793
112.902161,2072.576638,10214.842000,3217.601092
112.902471,2220.617826,10510.924376,3983.696590
112.902781,1998.556043,6661.853478,-842.705048
112.903090,2220.617826,8956.491898,4519.963438
112.903400,-2738.761985,10436.903782,-2298.286494
112.903710,962.267725,12361.439231,-4213.525239
112.904019,2664.741391,16950.716072,-7048.078582
112.904329,-888.247130,12435.459826,-9269.755526
112.904639,-4145.153275,14730.098246,-1915.238745
112.904948,3627.009116,12065.356855,-2068.457845
112.905258,1110.308913,7994.224174,-2987.772442
112.905568,-0.000000,11325.150913,5439.278036
112.905877,-1036.288319,2960.823768,5132.839837
112.906187,-222.061783,1702.473667,3983.696590
112.906497,-814.226536,4811.338623,4979.620737
112.906806,-3997.112087,5033.400406,-1225.752797
112.907116,-0.000000,9696.697840,-4673.182538
112.907426,3330.926739,11843.295072,-10342.289223
112.907735,-1998.556043,7476.080014,-11184.994271
112.908045,-3404.947333,9474.636058,2068.457845
112.908355,-1406.391290,10584.944971,536.266849
112.908664,2368.659014,6439.791695,-1149.143247
112.908974,-592.164754,10436.903782,919.314598
112.909284,222.061783,5329.482782,-1072.533697
112.909593,1332.370696,2368.659014,-1225.752797
112.909903,3034.844362,11917.315666,1608.800546
112.910213,-1924.535449,12213.398043,-2987.772442
112.910522,-740.205942,12879.583391,-1685.410096
112.910832,3330.926739,15100.201217,-6511.811733
112.911142,-518.144159,11547.212695,-7584.345430
112.911451,1036.288319,14063.912898,919.314598
112.911761,962.267725,10584.944971,-1072.533697
112.912071,1258.350101,9992.780217,1302.362347
112.912380,3404.947333,12731.542202,3064.381992
112.912690,296.082377,4737.318029,-2145.067394
112.913000,592.164754,7920.203579,2987.772442
112.913309,-0.000000,12953.603985,-1072.533697
112.913619,-2812.782580,11177.109724,-919.314598
112.913929,740.205942,15914.427753,-4443.353888
112.914238,740.205942,9696.697840,-11414.822920
112.914548,-2368.659014,8734.430116,-8810.098227
112.914858,-2072.576638,8808.450710,689.485948
112.915167,-0.000000,5847.626942,-2145.067394
112.915477,-1702.473667,5033.400406,5592.497135
112.915787,-444.123565,8068.244768,7890.783629
112.916096,-518.144159,-1480.411884,383.047749
112.916406,-1776.494261,2368.659014,3677.258390
112.916716,-0.000000,8216.285956,1302.362347
112.917025,-1998.556043,9992.780217,-4903.011187
112.917335,5033.400406,14359.995275,-9116.536426
112.917645,-2220.617826,11769.274478,-11338.213370
112.917954,-2664.741391,12583.501014,-3983.696590
112.918264,2368.659014,12361.439231,1608.800546
112.918574,-888.247130,8364.327145,1915.238745
112.918883,962.267725,11029.068536,8120.612279
112.919193,4071.132681,8808.450710,2221.676944
112.919503,3034.844362,6365.771101,-2834.553343
112.919812,148.041188,12213.398043,4213.525239
112.920122,962.267725,13027.624579,536.266849
112.920432,1776.494261,15322.262999,-4213.525239
112.920741,2590.720797,18727.210333,-6741.640382
112.921051,-2146.597232,11621.233289,-9729.412825
112.921361,-3330.926739,12953.603985,-2068.457845
112.921670,2368.659014,9252.574275,536.266849
112.921980,1184.329507,7031.956449,919.314598
112.922290,-370.102971,7772.162391,5592.497135
112.922599,962.267725,3256.906145,1685.410096
112.922909,-518.144159,3330.926739,689.485948
112.923219,-888.247130,8068.244768,1838.629195
112.923528,-2812.782580,7402.059420,-1072.533697
112.923838,-3330.926739,11917.315666,-2374.896044
112.924147,2664.741391,13693.809927,-10801.946522
112.924457,-444.123565,4811.338623,-11491.432470
112.924766,-3701.029710,7994.224174,-689.485948
112.925076,-592.164754,7402.059420,1302.362347
112.925385,1998.556043,6291.750507,0.000000
112.925695,1554.432478,10066.800811,3447.429741
112.926004,1924.535449,4811.338623,0.000000
112.926314,1184.329507,6291.750507,689.485948
112.926623,2294.638420,11917.315666,2145.067394
112.926933,-222.061783,12879.583391,-1915.238745
112.927242,3182.885551,16580.613101,-3064.381992
112.927552,2516.700203,14656.077652,-6205.373534
112.927861,-0.000000,11843.295072,-6665.030833
112.928171,1702.473667,12287.418637,1225.752797
112.928480,-0.000000,9918.759623,0.000000
112.928790,1184.329507,11769.274478,3907.087040
112.929099,4737.318029,9918.759623,2221.676944
112.929409,2960.823768,4737.318029,-5056.230287
112.929718,-1776.494261,8882.471304,3677.258390
112.930028,-888.247130,7105.977043,5898.935335
112.930337,-1406.391290,9252.574275,-229.828649
112.930647,-0.000000,14730.098246,-3064.381992
112.930956,1628.453072,11029.068536,-9422.974625
112.931266,-2738.761985,8364.327145,-5439.278036
112.931576,-2220.617826,10362.883188,1608.800546
112.931885,-518.144159,7476.080014,-1225.752797
112.932195,888.247130,8512.368333,-689.485948
112.932504,-370.102971,5995.668130,-2451.505594
112.932814,-2294.638420,-444.123565,1302.362347
112.933123,-740.205942,4959.379811,6435.202183
112.933433,444.123565,5699.585753,536.266849
112.933742,296.082377,9696.697840,-1378.971896
112.934052,1110.308913,12879.583391,-2834.553343
112.934361,-222.061783,11399.171507,-9039.926876
112.934671,-518.144159,12657.521608,-1225.752797
112.934980,-0.000000,12731.542202,-1608.800546
112.935290,1184.329507,12213.398043,-4060.306139
112.935599,2738.761985,13693.809927,306.438199
112.935909,1776.494261,7105.977043,383.047749
112.936218,1036.288319,5255.462188,2145.067394
112.936528,370.102971,8882.471304,7277.907231
112.936837,518.144159,9252.574275,1378.971896
112.937147,2146.597232,14730.098246,-1762.019645
112.937456,3478.967927,16654.633695,-7277.907231
112.937766,-370.102971,9918.759623,-10725.336972
112.938075,-296.082377,14434.015869,-612.876398
112.938385,592.164754,12287.418637,-1991.848295
112.938694,-296.082377,8438.347739,-1685.410096
112.939004,740.205942,11917.315666,306.438199
112.939313,-222.061783,3182.885551,-1149.143247
112.939623,-814.226536,296.082377,3370.820191
112.939932,-1702.473667,5551.544565,7584.345430
112.940242,-1776.494261,6217.729913,-536.266849
112.940552,-4219.173869,12731.542202,-5669.106685
112.940861,-518.144159,11029.068536,-7354.516781
112.941171,-0.000000,8512.368333,-8656.879127
112.941480,-1184.329507,11991.336260,-4060.306139
112.941790,-2294.638420,11325.150913,-1991.848295
112.942099,-814.226536,7476.080014,689.485948
112.942409,370.102971,7698.141797,3064.381992
112.942718,370.102971,3701.029710,0.000000
112.943028,444.123565,3627.009116,4979.620737
112.943337,2738.761985,6513.812290,4673.182538
112.943647,-740.205942,9844.739029,-2757.943793
112.943956,2368.659014,15248.242405,-3447.429741
112.944266,3775.050304,14656.077652,-9269.755526
112.944575,222.061783,13027.624579,-6971.469032
112.944885,-0.000000,14137.933492,2145.067394
112.945194,2442.679609,11325.150913,306.438199
112.945504,1628.453072,12731.542202,2068.457845
112.945813,1702.473667,8216.285956,1608.800546
112.946123,-1406.391290,3775.050304,1225.752797
112.946432,-0.000000,8586.388927,4673.182538
112.946742,2960.823768,11695.253884,-3753.867940
112.947051,-2220.617826,13841.851115,-6435.202183
112.947361,296.082377,14359.995275,-3907.087040
112.947670,1332.370696,7624.121203,-10572.117872
112.947980,-1110.308913,7772.162391,-3217.601092
112.948289,814.226536,7550.100608,3983.696590
112.948599,-2516.700203,3034.844362,2987.772442
112.948908,-0.000000,6883.915261,6358.592633
112.949218,-592.164754,3849.070898,766.095498
112.949528,-2072.576638,1480.411884,-1685.410096
112.949837,-962.267725,8808.450710,-306.438199
112.950147,-1702.473667,9548.656652,-6205.373534
112.950456,-1850.514855,13619.789333,-7967.393179
112.950766,1554.432478,15248.242405,-4519.963438
112.951075,666.185348,5329.482782,-6435.202183
112.951385,222.061783,10066.800811,-766.095498
112.951694,-592.164754,8586.388927,3907.087040
112.952004,666.185348,10584.944971,2451.505594
112.952313,3849.070898,12065.356855,1225.752797
112.952623,3256.906145,8216.285956,-4443.353888
112.952932,-296.082377,8216.285956,842.705048
112.953242,592.164754,11991.336260,3677.258390
112.953551,1776.494261,9844.739029,-5286.058936
112.953861,-814.226536,13471.748144,-842.705048
112.954170,222.061783,15026.180623,-2757.943793
112.954480,888.247130,7698.141797,-7124.688131
112.954789,3404.947333,11325.150913,-2528.115143
112.955099,-444.123565,10362.883188,2221.676944
112.955408,-2664.741391,10807.006753,2221.676944
112.955718,2886.803174,9992.780217,1532.190996
112.956027,-444.123565,6809.894666,-4213.525239
112.956337,-3627.009116,6809.894666,-536.266849
112.956646,-2442.679609,6439.791695,1378.971896
112.956956,-2072.576638,8216.285956,-2604.724693
112.957265,-814.226536,12583.501014,-1378.971896
112.957575,1480.411884,8808.450710,-2911.162892
112.957884,-2664.741391,4589.276840,-4136.915689
112.958194,-666.185348,7402.059420,842.705048
112.958503,-296.082377,5181.441594,-842.705048
112.958813,-2738.761985,8290.306550,1149.143247
112.959123,740.205942,11547.212695,1608.800546
112.959432,444.123565,5255.462188,-4213.525239
112.959742,-814.226536,11251.130318,-306.438199
112.960051,2516.700203,11251.130318,-995.924147
112.960361,592.164754,11177.109724,-2451.505594
112.960670,1258.350101,14211.954086,76.609550
112.960980,3108.864956,10214.842000,-5822.325785
112.961289,1258.350101,8216.285956,-3753.867940
112.961599,148.041188,11399.171507,2374.896044
112.961908,-962.267725,8660.409521,2987.772442
112.962218,888.247130,12435.459826,76.609550
112.962527,4071.132681,10658.965565,-4596.572988
112.962837,-1332.370696,7994.224174,-3753.867940
112.963146,-666.185348,8808.450710,3983.696590
112.963456,-222.061783,11325.150913,0.000000
112.963765,-1554.432478,12657.521608,-2604.724693
112.964075,-0.000000,13397.727550,-2221.676944
112.964384,-592.164754,8290.306550,-8044.002729
112.964694,-2516.700203,5773.606348,-1608.800546
112.965003,148.041188,8068.244768,1302.362347
112.965313,-1406.391290,5181.441594,-229.828649
112.965622,-1776.494261,6291.750507,4519.963438
112.965932,-1924.535449,6587.832884,536.266849
112.966241,592.164754,1184.329507,-4060.306139
112.966551,2294.638420,6957.935855,-1225.752797
112.966860,-2590.720797,9474.636058,-842.705048
112.967170,-2960.823768,14508.036463,-1302.362347
112.967479,3775.050304,13915.871710,-7507.735880
112.967789,592.164754,9178.553681,-9652.803275
112.968099,-74.020594,8734.430116,383.047749
112.968408,-0.000000,8364.327145,3140.991542
112.968718,1924.535449,10362.883188,2834.553343
112.969027,2738.761985,13323.706956,4749.792088
112.969337,1850.514855,7624.121203,-1838.629195
112.969646,666.185348,6365.771101,383.047749
112.969956,2368.659014,11621.233289,306.438199
112.970265,-1110.308913,14063.912898,-4366.744339
112.970575,-1184.329507,16358.551318,-3830.477490
112.970884,1850.514855,14508.036463,-7354.516781
112.971194,-1554.432478,9474.636058,-6281.983084
112.971503,-888.247130,8586.388927,1149.143247
112.971813,2368.659014,5551.544565,1455.581446
112.972122,-1258.350101,5847.626942,3217.601092
112.972432,1998.556043,9844.739029,5822.325785
112.972741,-1184.329507,6439.791695,-612.876398
112.973051,-2442.679609,5699.585753,-1685.410096
112.973360,-0.000000,9622.677246,-2221.676944
112.973670,-5329.482782,10510.924376,-2757.943793
112.973979,-370.102971,15248.242405,-6741.640382
112.974289,-814.226536,8142.265362,-12257.527968
112.974598,-2812.782580,6513.812290,-6052.154434
112.974908,-0.000000,6439.791695,1762.019645
112.975217,-1406.391290,5699.585753,2451.505594
112.975527,592.164754,7772.162391,5669.106685
112.975836,2812.782580,7772.162391,5132.839837
112.976146,-0.000000,5477.523971,3370.820191
112.976455,-814.226536,8068.244768,612.876398
112.976765,740.205942,12583.501014,-5669.106685
112.977075,-1480.411884,14804.118840,-8810.098227
112.977384,1258.350101,17246.798449,-7277.907231
112.977694,1554.432478,14582.057057,-10035.851024
112.978003,-2072.576638,9696.697840,-1991.848295
112.978313,1184.329507,9178.553681,4213.525239
112.978622,1110.308913,6365.771101,4213.525239
112.978932,74.020594,8660.409521,3983.696590
112.979241,3627.009116,8734.430116,919.314598
112.979551,-2072.576638,6439.791695,-153.219100
112.979860,740.205942,10362.883188,-1915.238745
112.980170,-148.041188,12361.439231,-6665.030833
112.980479,-2886.803174,17394.839637,-5439.278036
112.980789,666.185348,15100.201217,-6358.592633
112.981098,-888.247130,9918.759623,-8044.002729
112.981408,-3923.091493,6661.853478,1302.362347
112.981717,1776.494261,3627.009116,3064.381992
112.982027,-1628.453072,1480.411884,2068.457845
112.982336,-666.185348,7698.141797,4903.011187
112.982646,962.267725,5181.441594,766.095498
112.982955,-2664.741391,2072.576638,-1302.362347
112.983265,-0.000000,9548.656652,-842.705048
112.983574,-2590.720797,10362.883188,-5515.887586
112.983884,-2960.823768,15618.345376,-7967.393179
112.984193,3775.050304,13175.665768,-10572.117872
112.984503,-444.123565,7846.182985,-7737.564530
112.984812,-1406.391290,9400.615463,3907.087040
112.985122,4145.153275,7254.018232,3677.258390
112.985431,2146.597232,7031.956449,3370.820191
112.985741,1480.411884,8882.471304,5132.839837
112.986050,1036.288319,7550.100608,612.876398
112.986360,888.247130,6735.874072,-612.876398
112.986670,2738.761985,11473.192101,-383.047749
112.986979,-1628.453072,14359.995275,-4443.353888
112.987289,-0.000000,16358.551318,-5209.449386
112.987598,4219.173869,11547.212695,-5898.935335
112.987908,-2960.823768,11769.274478,-3370.820191
112.988217,-962.267725,11843.295072,995.924147
112.988527,2812.782580,7772.162391,-3677.258390
112.988836,-3478.967927,6735.874072,3140.991542
112.989146,2886.803174,9474.636058,7737.564530
112.989455,-0.000000,4515.256246,-995.924147
112.989765,-0.000000,4219.173869,-766.095498
112.990074,666.185348,8290.306550,2528.115143
112.990384,-7846.182985,7920.203579,-4443.353888
112.990693,1702.473667,11695.253884,-5515.887586
112.991003,1998.556043,9400.615463,-11031.775171
112.991312,-6513.812290,8142.265362,-4749.792088
112.991622,1480.411884,10658.965565,306.438199
112.991931,1258.350101,4441.235652,-5132.839837
112.992241,-1776.494261,8216.285956,0.000000
112.992550,3256.906145,7476.080014,3907.087040
112.992860,-444.123565,4959.379811,842.705048
112.993169,-1110.308913,5477.523971,4290.134789
112.993479,3108.864956,10510.924376,1455.581446
112.993788,-1850.514855,13693.809927,-2757.943793
112.994098,3849.070898,17912.983796,-7354.516781
112.994407,962.267725,11547.212695,-10035.851024
112.994717,-2220.617826,11473.192101,-1378.971896
112.995026,5255.462188,13767.830521,-3907.087040
112.995336,-1110.308913,9400.615463,-2374.896044
112.995646,-2960.823768,9696.697840,7048.078582
112.995955,2442.679609,6735.874072,5745.716235
112.996265,1702.473667,5181.441594,1685.410096
112.996574,-222.061783,9104.533087,1991.848295
112.996884,-1036.288319,10362.883188,383.047749
112.997193,-3182.885551,11843.295072,-4673.182538
112.997503,5773.606348,16876.695478,-12104.308868
112.997812,-3034.844362,11547.212695,-9959.241474
112.998122,-3552.988522,9400.615463,-2451.505594
112.998431,3256.906145,6883.915261,-3217.601092
112.998741,-2590.720797,4071.132681,2757.943793
112.999050,-4959.379811,4145.153275,11108.384721
112.999360,2368.659014,1480.411884,2911.162892
112.999669,-1184.329507,962.267725,-3370.820191
112.999979,444.123565,8734.430116,995.924147
113.000288,-962.267725,11547.212695,-2757.943793
113.000598,-2146.597232,14211.954086,-8886.707777
113.000907,2886.803174,18209.066173,-10342.289223
113.001217,-962.267725,13101.645173,-7737.564530
113.001526,-1258.350101,8808.450710,-1915.238745
113.001836,2664.741391,9474.636058,689.485948
113.002145,-1110.308913,4071.132681,4826.401637
113.002455,2886.803174,8734.430116,7048.078582
113.002764,3849.070898,3034.844362,3140.991542
113.003074,-666.185348,7328.038826,2221.676944
113.003383,3330.926739,11621.233289,1302.362347
113.003693,-0.000000,13545.768739,-4366.744339
113.004002,-1110.308913,17838.963202,-4979.620737
113.004312,1480.411884,15692.365970,-9422.974625
113.004622,-1184.329507,10288.862594,-6741.640382
113.004931,3404.947333,13101.645173,-1149.143247
113.005241,-0.000000,8660.409521,1532.190996
113.005550,-4589.276840,6513.812290,7354.516781
113.005860,1628.453072,7105.977043,5286.058936
113.006169,1850.514855,6809.894666,-3983.696590
113.006479,-3108.864956,6143.709319,2681.334243
113.006788,1998.556043,7031.956449,0.000000
113.007098,-6365.771101,9252.574275,-4366.744339
113.007407,1184.329507,14211.954086,-6665.030833
113.007717,1184.329507,8216.285956,-9729.412825
113.008026,-5181.441594,4219.173869,-1991.848295
113.008336,1924.535449,8068.244768,3140.991542
113.008645,-2072.576638,4885.359217,766.095498
113.008955,-962.267725,6365.771101,4366.744339
113.009264,3478.967927,9844.739029,842.705048
113.009574,-518.144159,5847.626942,-2451.505594
113.009883,2072.576638,9400.615463,0.000000
113.010193,2368.659014,10807.006753,-1838.629195
113.010502,-3627.009116,14656.077652,-995.924147
113.010812,2146.597232,16950.716072,-3677.258390
113.011121,3182.885551,8956.491898,-6435.202183
113.011431,148.041188,11177.109724,-2987.772442
113.011740,-296.082377,11843.295072,-1991.848295
113.012050,-74.020594,8734.430116,4826.401637
113.012359,888.247130,11917.315666,2451.505594
113.012669,1480.411884,9400.615463,-4060.306139
113.012978,-1998.556043,4959.379811,-1149.143247
113.013288,1184.329507,9252.574275,3294.210641
113.013597,962.267725,9918.759623,-3370.820191
113.013907,-4071.132681,12213.398043,459.657299
113.014217,444.123565,15396.283594,-306.438199
113.014526,2294.638420,9178.553681,-7967.393179
113.014836,-2590.720797,5033.400406,-3064.381992
113.015145,-0.000000,6735.874072,2298.286494
113.015455,-5477.523971,5551.544565,1149.143247
113.015764,2146.597232,7994.224174,-1225.752797
113.016074,-2294.638420,4737.318029,-2451.505594
113.016383,-4441.235652,4219.173869,1378.971896
113.016693,3997.112087,8734.430116,-1608.800546
113.017002,-2220.617826,7846.182985,-4213.525239
113.017312,-2960.823768,12361.439231,459.657299
113.017621,5033.400406,11843.295072,-5592.497135
113.017931,1184.329507,9548.656652,-9882.631924
113.018240,3034.844362,11251.130318,459.657299
113.018550,-0.000000,10140.821405,459.657299
113.018859,-1850.514855,9030.512492,689.485948
113.019169,3849.070898,10066.800811,1149.143247
113.019478,2886.803174,7476.080014,-1762.019645
113.019788,-1110.308913,7920.203579,1991.848295
113.020097,5181.441594,9548.656652,76.609550
113.020407,-2590.720797,9474.636058,-1838.629195
113.020716,2220.617826,16284.530724,-1225.752797
113.021026,1998.556043,13693.809927,-7201.297681
113.021335,-1110.308913,11029.068536,-6741.640382
113.021645,5107.421000,12805.562797,-2604.724693
113.021954,-740.205942,9474.636058,919.314598
113.022264,-4515.256246,11695.253884,4749.792088
113.022573,1184.329507,8586.388927,2757.943793
113.022883,-148.041188,3701.029710,-2757.943793
113.023193,740.205942,2738.761985,2528.115143
113.023502,2294.638420,7772.162391,1915.238745
113.023812,-4885.359217,7105.977043,-1991.848295
113.024121,518.144159,12213.398043,-2451.505594
113.024431,-0.000000,9400.615463,-6435.202183
113.024740,-1702.473667,5107.421000,-6358.592633
113.025050,1110.308913,8734.430116,-2681.334243
113.025359,-5625.565159,4737.318029,1149.143247
113.025669,592.164754,9918.759623,3140.991542
113.025978,2960.823768,10584.944971,-766.095498
113.026287,-518.144159,7698.141797,-459.657299
113.026597,2738.761985,7698.141797,3830.477490
113.026906,1184.329507,10288.862594,-1149.143247
113.027216,-1850.514855,12805.562797,-1685.410096
113.027525,5551.544565,14804.118840,-3600.648841
113.027834,1184.329507,13989.892304,-6128.763984
113.028144,1702.473667,11695.253884,-5362.668486
113.028453,4959.379811,11177.109724,-4366.744339
113.028763,-2146.597232,9030.512492,1149.143247
113.029072,148.041188,11843.295072,5592.497135
113.029382,2812.782580,6957.935855,2298.286494
113.029691,-3552.988522,3849.070898,2374.896044
113.030000,2146.597232,8882.471304,2221.676944
113.030310,962.267725,10807.006753,-3524.039291
113.030619,-3182.885551,11325.150913,-4826.401637
113.030929,-0.000000,13471.748144,-3524.039291
113.031238,-2664.741391,9474.636058,-8120.612279
113.031547,2516.700203,6957.935855,-3447.429741
113.031857,-0.000000,4959.379811,2221.676944
113.032166,-5403.503377,5403.503377,7048.078582
113.032476,1702.473667,7254.018232,3524.039291
113.032785,-0.000000,2960.823768,-3064.381992
113.033094,-3701.029710,3256.906145,842.705048
113.033404,3256.906145,8512.368333,-842.705048
113.033713,-3256.906145,10214.842000,-7814.174080
113.034023,666.185348,16802.674883,-5822.325785
113.034332,2220.617826,14285.974681,-5209.449386
113.034642,296.082377,8586.388927,-689.485948
113.034951,4737.318029,11325.150913,2451.505594
113.035260,1554.432478,8142.265362,459.657299
113.035570,-2886.803174,8512.368333,2374.896044
113.035879,4737.318029,8734.430116,3753.867940
113.036189,-1480.411884,9326.594869,0.000000
113.036498,4367.215058,9178.553681,-2221.676944
113.036807,2664.741391,11473.192101,-2911.162892
113.037117,-5181.441594,13249.686362,-2681.334243
113.037426,1850.514855,13471.748144,-842.705048
113.037736,888.247130,12731.542202,-5362.668486
113.038045,-1036.288319,9992.780217,-3830.477490
113.038354,4589.276840,9252.574275,-1608.800546
113.038664,-3775.050304,5551.544565,766.095498
113.038973,-3552.988522,8882.471304,4213.525239
113.039283,3775.050304,7698.141797,766.095498
113.039592,-2812.782580,4071.132681,-3370.820191
113.039902,148.041188,7994.224174,1072.533697
113.040211,-666.185348,6513.812290,-2068.457845
113.040520,-7328.038826,8142.265362,-3064.381992
113.040830,1332.370696,12731.542202,-2145.067394
113.041139,296.082377,7624.121203,-8044.002729
113.041449,-296.082377,7254.018232,-3447.429741
113.041758,3034.844362,6069.688724,-1072.533697
113.042067,-4663.297435,5625.565159,4136.915689
113.042377,-296.082377,11621.233289,3983.696590
113.042686,4219.173869,9474.636058,-2987.772442
113.042996,-1332.370696,5403.503377,-4136.915689
113.043305,3552.988522,10658.965565,-3753.867940
113.043615,-1258.350101,12657.521608,-3370.820191
113.043924,-1036.288319,15026.180623,-1072.533697
113.044233,4145.153275,18209.066173,-2451.505594
113.044543,666.185348,10955.047942,-6358.592633
113.044852,3034.844362,8660.409521,-1685.410096
113.045162,1776.494261,7994.224174,2757.943793
113.045471,-5329.482782,8290.306550,4290.134789
113.045780,2294.638420,9400.615463,3524.039291
113.046090,1850.514855,7179.997637,-3983.696590
113.046399,-3404.947333,6143.709319,-995.924147
113.046709,4737.318029,10807.006753,842.705048
113.047018,-6291.750507,11769.274478,-4826.401637
113.047327,-3404.947333,14434.015869,-1608.800546
113.047637,962.267725,14211.954086,-2374.896044
113.047946,-1702.473667,7920.203579,-7890.783629
113.048256,3404.947333,6587.832884,-1149.143247
113.048565,-74.020594,4367.215058,2221.676944
113.048875,-9770.718434,4145.153275,7737.564530
113.049184,1332.370696,6661.853478,7048.078582
113.049493,592.164754,4515.256246,-2911.162892
113.049803,1628.453072,6365.771101,-4366.744339
113.050112,2220.617826,10140.821405,-2834.553343
113.050422,-9252.574275,12287.418637,-3677.258390
113.050731,444.123565,17542.880825,-4596.572988
113.051040,5255.462188,12435.459826,-10878.556072
113.051350,-814.226536,11103.089130,-7967.393179
113.051659,6069.688724,9252.574275,2221.676944
113.051969,-296.082377,4071.132681,4596.572988
113.052278,-592.164754,8660.409521,8963.317327
113.052587,5921.647536,10510.924376,5362.668486
113.052897,2294.638420,8734.430116,-2451.505594
113.053206,3997.112087,9474.636058,-1838.629195
113.053516,-296.082377,12065.356855,-2451.505594
113.053825,-5403.503377,14285.974681,-2987.772442
113.054135,1702.473667,16802.674883,-4903.011187
113.054444,814.226536,16876.695478,-11031.775171
113.054753,-3404.947333,9326.594869,-5975.544884
113.055063,1554.432478,9622.677246,842.705048
113.055372,-5847.626942,4885.359217,4596.572988
113.055682,-3404.947333,9030.512492,7584.345430
113.055991,2516.700203,5477.523971,5975.544884
113.056300,222.061783,3775.050304,-1685.410096
113.056610,3108.864956,6291.750507,-995.924147
113.056919,-6291.750507,7254.018232,-1455.581446
113.057229,-7476.080014,10658.965565,-1915.238745
113.057538,3256.906145,12287.418637,-6052.154434
113.057848,-1702.473667,8808.450710,-10648.727422
113.058157,888.247130,7031.956449,-3294.210641
113.058466,814.226536,6143.709319,-459.657299
113.058776,-2664.741391,6143.709319,4213.525239
113.059085,1776.494261,8808.450710,9039.926876
113.059395,2812.782580,8142.265362,76.609550
113.059704,3182.885551,6439.791695,-3447.429741
113.060013,3849.070898,11399.171507,-1532.190996
113.060323,-3849.070898,12435.459826,-2221.676944
113.060632,-0.000000,16802.674883,-4749.792088
113.060942,3552.988522,17172.777854,-7354.516781
113.061251,1110.308913,12435.459826,-6665.030833
113.061560,4737.318029,9548.656652,-1685.410096
113.061870,2220.617826,6217.729913,2374.896044
113.062179,-4589.276840,7476.080014,8580.269578
113.062489,2368.659014,9104.533087,7737.564530
113.062798,2368.659014,6143.709319,-1149.143247
113.063108,-74.020594,4441.235652,-3140.991542
113.063417,-1554.432478,11399.171507,-2068.457845
113.063726,-6217.729913,12287.418637,-6971.469032
113.064036,-1258.350101,16136.489536,-7124.688131
113.064345,-0.000000,14952.160028,-9193.145976
113.064655,-4219.173869,7031.956449,229.828649
113.064964,3552.988522,5477.523971,3140.991542
113.065273,-3923.091493,4737.318029,4749.792088
113.065583,-3627.009116,3997.112087,9346.365076
113.065892,1406.391290,4145.153275,5898.935335
113.066202,2664.741391,2960.823768,-3217.601092
113.066511,296.082377,7920.203579,-4673.182538
113.066820,296.082377,10288.862594,-4903.011187
113.067130,-5921.647536,12805.562797,-5822.325785
113.067439,1776.494261,18949.272115,-11414.822920
113.067749,2072.576638,13619.789333,-9959.241474
113.068058,592.164754,9474.636058,-3524.039291
113.068368,7328.038826,9918.759623,1072.533697
113.068677,-1924.535449,8068.244768,4290.134789
113.068986,-814.226536,8216.285956,8197.221829
113.069296,3849.070898,9400.615463,4596.572988
113.069605,3997.112087,5773.606348,-4749.792088
113.069915,6883.915261,8438.347739,-3140.991542
113.070224,-5773.606348,12879.583391,-76.609550
113.070533,-6957.935855,16210.510130,-2145.067394
113.070843,5107.421000,16062.468941,-9193.145976
113.071152,-962.267725,11621.233289,-10955.165621
113.071462,-1554.432478,7846.182985,-2681.334243
113.071771,3923.091493,7772.162391,-1455.581446
113.072081,-6735.874072,4737.318029,3677.258390
113.072390,-1776.494261,7179.997637,10189.070123
113.072699,1110.308913,6957.935855,2681.334243
113.073009,1554.432478,1480.411884,-2145.067394
113.073318,3034.844362,7254.018232,-383.047749
113.073628,-9178.553681,7994.224174,766.095498
113.073937,-2812.782580,11399.171507,-2374.896044
113.074246,1258.350101,12879.583391,-7967.393179
113.074556,1480.411884,11547.212695,-12257.527968
113.074865,740.205942,8734.430116,-5515.887586
113.075175,-1406.391290,10066.800811,-2451.505594
113.075484,-6365.771101,8216.285956,2834.553343
113.075793,5699.585753,11917.315666,3983.696590
113.076103,4441.235652,6365.771101,2451.505594
113.076412,3627.009116,5699.585753,1608.800546
113.076722,4071.132681,8808.450710,3677.258390
113.077031,-4293.194464,9474.636058,919.314598
113.077341,2146.597232,16950.716072,-2757.943793
113.077650,4367.215058,15322.262999,-8197.221829
113.077959,-1480.411884,15248.242405,-8503.660028
113.078269,3404.947333,11325.150913,-4519.963438
113.078578,-2442.679609,8216.285956,-3907.087040
113.078888,-6291.750507,8882.471304,8197.221829
113.079197,2368.659014,9474.636058,5822.325785
113.079506,2294.638420,3923.091493,0.000000
113.079816,2368.659014,4959.379811,3294.210641
113.080125,-1480.411884,9474.636058,3294.210641
113.080435,-10584.944971,12805.562797,3140.991542
113.080744,2146.597232,15174.221811,-5362.668486
113.081053,222.061783,13989.892304,-15551.738609
113.081363,-962.267725,10732.986159,-10495.508323
113.081672,-666.185348,9030.512492,2528.115143
113.081982,-4663.297435,2812.782580,2757.943793
113.082291,-4219.173869,4145.153275,8273.831378
113.082601,2664.741391,3923.091493,6435.202183
113.082910,-888.247130,-296.082377,-766.095498
113.083219,4441.235652,3330.926739,1378.971896
113.083529,-2368.659014,10362.883188,76.609550
113.083838,-4293.194464,15248.242405,-5515.887586
113.084148,6143.709319,20429.683999,-12257.527968
113.084457,1406.391290,16284.530724,-12870.404366
113.084766,962.267725,11769.274478,-5132.839837
113.085076,4145.153275,11325.150913,0.000000
113.085385,-4663.297435,9474.636058,5669.106685
113.085695,1702.473667,8956.491898,9499.584175
113.086004,4071.132681,7624.121203,3064.381992
113.086314,1554.432478,3849.070898,-3294.210641
113.086623,2146.597232,8216.285956,689.485948
113.086932,-5255.462188,11547.212695,153.219100
113.087242,-4589.276840,12657.521608,-3064.381992
113.087551,-592.164754,15692.365970,-9346.365076
113.087861,1850.514855,10362.883188,-10648.727422
113.088170,-0.000000,9030.512492,-2834.553343
113.088479,-4293.194464,8734.430116,1072.533697
113.088789,-6809.894666,6439.791695,7814.174080
113.089098,2294.638420,7254.018232,4673.182538
113.089408,2368.659014,2812.782580,-459.657299
113.089717,1406.391290,2664.741391,1532.190996
113.090026,-1332.370696,8512.368333,2451.505594
113.090336,-8586.388927,9400.615463,536.266849
113.090645,-1702.473667,12361.439231,-4136.915689
113.090955,2886.803174,12953.603985,-11951.089769
113.091264,888.247130,9844.739029,-12180.918418
113.091574,2812.782580,7772.162391,-4979.620737
113.091883,-4663.297435,9030.512492,3140.991542
113.092192,-4959.379811,10288.862594,6588.421283
113.092502,5847.626942,10584.944971,919.314598
113.092811,5329.482782,7476.080014,-3600.648841
113.093121,4367.215058,7179.997637,1225.752797
113.093430,1110.308913,9844.739029,2451.505594
113.093739,-5255.462188,11991.336260,2757.943793
113.094049,4441.235652,17172.777854,-4060.306139
113.094358,2590.720797,14063.912898,-11874.480219
113.094668,2146.597232,11769.274478,-6588.421283
113.094977,-0.000000,10584.944971,-1685.410096
113.095286,-7328.038826,10732.986159,919.314598
113.095596,-1776.494261,9030.512492,3524.039291
113.095905,2368.659014,7476.080014,-689.485948
113.096215,3182.885551,3330.926739,-2834.553343
113.096524,296.082377,3182.885551,4213.525239
113.096834,-2442.679609,5847.626942,6665.030833
113.097143,-7772.162391,9474.636058,4749.792088
113.097452,3330.926739,11917.315666,-5362.668486
113.097762,2738.761985,8068.244768,-12257.527968
113.098071,666.185348,9178.553681,-8120.612279
113.098381,-2368.659014,10584.944971,0.000000
113.098690,-9992.780217,10288.862594,3677.258390
113.098999,2590.720797,9178.553681,919.314598
113.099309,4441.235652,6587.832884,-5515.887586
113.099618,222.061783,2294.638420,229.828649
113.099928,1554.432478,3330.926739,6511.811733
113.100237,-5181.441594,9252.574275,6588.421283
113.100547,-1480.411884,13545.768739,766.095498
113.100856,6735.874072,13989.892304,-7277.907231
113.101165,4071.132681,13693.809927,-13866.328514
113.101475,3034.844362,13101.645173,-7354.516781
113.101784,-4959.379811,14656.077652,-1532.190996
113.102094,-3552.988522,11843.295072,2987.772442
113.102403,4515.256246,13101.645173,-1302.362347
113.102712,7179.997637,7698.141797,-3830.477490
113.103022,-518.144159,3552.988522,2604.724693
113.103331,592.164754,6883.915261,5822.325785
113.103641,-5181.441594,7550.100608,4979.620737
113.103950,-1110.308913,14211.954086,766.095498
113.104259,3627.009116,14211.954086,-10801.946522
113.104569,370.102971,7772.162391,-13253.452115
113.104878,1332.370696,8364.327145,-2911.162892
113.105188,-7476.080014,10066.800811,919.314598
113.105497,-6143.709319,10732.986159,4290.134789
113.105807,4811.338623,7254.018232,0.000000
113.106116,-222.061783,4441.235652,-1302.362347
113.106425,370.102971,4367.215058,4443.353888
113.106735,-2960.823768,7328.038826,3064.381992
113.107044,-6217.729913,6957.935855,0.000000
113.107354,2442.679609,15544.324782,-4290.134789
113.107663,4589.276840,12657.521608,-10648.727422
113.107972,814.226536,9622.677246,-10572.117872
113.108282,3108.864956,11251.130318,229.828649
113.108591,-5847.626942,9548.656652,5132.839837
113.108901,-740.205942,8438.347739,3447.429741
113.109210,7031.956449,8068.244768,-1685.410096
113.109519,888.247130,7328.038826,-919.314598
113.109829,2590.720797,11547.212695,612.876398
113.110138,-296.082377,11695.253884,-1838.629195
113.110448,-4367.215058,13841.851115,-2068.457845
113.110757,5033.400406,15988.448347,-4366.744339
113.111067,5921.647536,12953.603985,-11797.870669
113.111376,740.205942,9770.718434,-5132.839837
113.111685,888.247130,7920.203579,10955.165621
113.111995,-5625.565159,6439.791695,5669.106685
113.112304,2146.597232,7179.997637,2757.943793
113.112614,3256.906145,8364.327145,-919.314598
113.112923,-3775.050304,3849.070898,-842.705048
113.113232,-3775.050304,6883.915261,-306.438199
113.113542,-4441.235652,7402.059420,-842.705048
113.113851,-4737.318029,12953.603985,-3600.648841
113.114161,1110.308913,13545.768739,-7890.783629
113.114470,1258.350101,8808.450710,-8503.660028
113.114780,1184.329507,8586.388927,-2145.067394
113.115089,-962.267725,8734.430116,3370.820191
113.115398,-2368.659014,8290.306550,5515.887586
113.115708,1998.556043,6809.894666,5132.839837
113.116017,3034.844362,7105.977043,-229.828649
113.116327,-2072.576638,5033.400406,-1685.410096
113.116636,3923.091493,9252.574275,-2374.896044
113.116945,-5255.462188,13545.768739,-2374.896044
113.117255,-592.164754,15174.221811,-2987.772442
113.117564,4811.338623,16802.674883,-10572.117872
113.117874,962.267725,12287.418637,-10112.460574
113.118183,2516.700203,10732.986159,842.705048
113.118492,-1332.370696,7254.018232,5975.544884
113.118802,-2146.597232,6735.874072,7737.564530
113.119111,5699.585753,8660.409521,3140.991542
113.119421,1924.535449,7179.997637,-153.219100
113.119730,296.082377,6735.874072,0.000000
113.120040,444.123565,11029.068536,-1302.362347
113.120349,-6883.915261,11991.336260,-612.876398
113.120658,-666.185348,14804.118840,-3064.381992
113.120968,3849.070898,13249.686362,-8810.098227
113.121277,-1628.453072,9030.512492,-6665.030833
113.121587,444.123565,8364.327145,2068.457845
113.121896,-4145.153275,4441.235652,3600.648841
113.122205,-4811.338623,5773.606348,4366.744339
113.122515,5329.482782,7254.018232,1838.629195
113.122824,-740.205942,6439.791695,-2834.553343
113.123134,1924.535449,8438.347739,1991.848295
113.123443,-962.267725,10955.047942,-1302.362347
113.123752,-6735.874072,9030.512492,-1455.581446
113.124062,1628.453072,13101.645173,-2451.505594
113.124371,3849.070898,10066.800811,-8273.831378
113.124681,1480.411884,8808.450710,-6741.640382
113.124990,1998.556043,9696.697840,3140.991542
113.125300,-6513.812290,8882.471304,5132.839837
113.125609,-592.164754,8142.265362,2298.286494
113.125918,7402.059420,9252.574275,-153.219100
113.126228,666.185348,9104.533087,-5822.325785
113.126537,3330.926739,9622.677246,-2451.505594
113.126847,-4219.173869,9474.636058,0.000000
113.127156,-5181.441594,14952.160028,-229.828649
113.127466,7920.203579,14508.036463,-5132.839837
113.127775,2664.741391,9474.636058,-7048.078582
113.128084,-74.020594,8068.244768,153.219100
113.128394,-2146.597232,8290.306550,5362.668486
113.128703,-4293.194464,5699.585753,3830.477490
113.129013,1258.350101,7772.162391,-995.924147
113.129322,2146.597232,6291.750507,-3677.258390
113.129632,-1850.514855,5329.482782,-2911.162892
113.129941,888.247130,9992.780217,-306.438199
113.130250,-6883.915261,11399.171507,3217.601092
113.130560,-2738.761985,13693.809927,-689.485948
113.130869,5773.606348,15174.221811,-9499.584175
113.131179,370.102971,9622.677246,-8963.317327
113.131488,-592.164754,7772.162391,2451.505594
113.131798,1184.329507,4811.338623,7737.564530
113.132107,-2368.659014,8290.306550,4443.353888
113.132416,3182.885551,9770.718434,2757.943793
113.132726,2072.576638,5181.441594,-2681.334243
113.133035,222.061783,5403.503377,-3064.381992
113.133345,1480.411884,12139.377449,-1532.190996
113.133654,-7105.977043,12287.418637,-689.485948
113.133964,2220.617826,16506.592507,-6052.154434
113.134273,6735.874072,14804.118840,-12793.794817
113.134582,-1776.494261,10288.862594,-3830.477490
113.134892,2812.782580,11177.109724,3753.867940
113.135201,-2812.782580,6365.771101,3830.477490
113.135511,1998.556043,6365.771101,5286.058936
113.135820,3923.091493,7031.956449,5439.278036
113.136130,1406.391290,5551.544565,995.924147
113.136439,1924.535449,7698.141797,383.047749
113.136748,-4441.235652,10955.047942,689.485948
113.137058,-6661.853478,10881.027347,-2757.943793
113.137367,1702.473667,16506.592507,-13713.109414
113.137677,296.082377,12805.562797,-14479.204912
113.137986,-3256.906145,8808.450710,-4366.744339
113.138296,-888.247130,9474.636058,2298.286494
113.138605,-3182.885551,6365.771101,3524.039291
113.138914,1924.535449,6661.853478,6435.202183
113.139224,5921.647536,3552.988522,6665.030833
113.139533,814.226536,1998.556043,2451.505594
113.139843,-0.000000,7402.059420,3294.210641
113.140152,-4367.215058,8734.430116,4366.744339
113.140461,-1702.473667,13989.892304,-6435.202183
113.140771,3330.926739,18727.210333,-14785.643111
113.141080,1184.329507,13397.727550,-13559.890315
113.141390,-370.102971,8142.265362,-2987.772442
113.141699,-0.000000,8882.471304,7354.516781
113.142009,-2220.617826,8512.368333,3753.867940
113.142318,1998.556043,4663.297435,4213.525239
113.142627,4737.318029,5329.482782,2451.505594
113.142937,1184.329507,4589.276840,2757.943793
113.143246,3034.844362,4737.318029,1685.410096
113.143556,-1554.432478,14878.139434,-1455.581446
113.143865,-1258.350101,19467.416275,-4596.572988
113.144175,5699.585753,16358.551318,-12257.527968
113.144484,1924.535449,8364.327145,-12257.527968
113.144793,-3256.906145,7476.080014,0.000000
113.145103,222.061783,6217.729913,4136.915689
113.145412,-4589.276840,5403.503377,5592.497135
113.145722,1850.514855,5551.544565,5056.230287
113.146031,740.205942,4811.338623,-536.266849
113.146341,1628.453072,8956.491898,-2221.676944
113.146650,592.164754,10658.965565,-2604.724693
113.146959,-6069.688724,14730.098246,-2451.505594
113.147269,740.205942,17468.860231,-6894.859482
113.147578,3182.885551,11843.295072,-11184.994271
113.147888,-296.082377,8660.409521,-3217.601092
113.148197,-1776.494261,7105.977043,6128.763984
113.148507,370.102971,5403.503377,4979.620737
113.148816,-4145.153275,5033.400406,4826.401637
113.149125,1924.535449,8956.491898,2451.505594
113.149435,666.185348,3627.009116,-2604.724693
113.149744,1110.308913,7698.141797,-5362.668486
113.150054,-222.061783,11991.336260,-2374.896044
113.150363,-3627.009116,13471.748144,-4443.353888
113.150673,2664.741391,14804.118840,-8810.098227
113.150982,2960.823768,11843.295072,-8656.879127
113.151291,-888.247130,10066.800811,-1838.629195
113.151601,1258.350101,9252.574275,0.000000
113.151910,148.041188,9770.718434,3064.381992
113.152220,-1036.288319,7105.977043,3524.039291
113.152529,3478.967927,6217.729913,1685.410096
113.152839,444.123565,4441.235652,-1302.362347
113.153148,-1776.494261,6957.935855,153.219100
113.153457,-1924.535449,12805.562797,-995.924147
113.153767,-3997.112087,11547.212695,-4903.011187
113.154076,2738.761985,13027.624579,-7201.297681
113.154386,1850.514855,11991.336260,-7277.907231
113.154695,-2812.782580,9252.574275,-3677.258390
113.155005,222.061783,9400.615463,0.000000
113.155314,-3182.885551,8068.244768,4749.792088
113.155623,1110.308913,7105.977043,4903.011187
113.155933,5181.441594,7179.997637,-3524.039291
113.156242,370.102971,4737.318029,0.000000
113.156552,666.185348,7476.080014,5132.839837
113.156861,-2738.761985,11843.295072,2528.115143
113.157171,-2294.638420,11843.295072,-5286.058936
113.157480,2960.823768,10732.986159,-9652.803275
113.157789,-1998.556043,11991.336260,-8733.488677
113.158099,-592.164754,9030.512492,-6281.983084
113.158408,1332.370696,10584.944971,-4903.011187
113.158718,-4293.194464,9474.636058,1302.362347
113.159027,2516.700203,6587.832884,4290.134789
113.159337,3627.009116,7105.977043,2221.676944
113.159646,3256.906145,4219.173869,2451.505594
113.159955,2368.659014,5921.647536,5898.935335
113.160265,-4589.276840,8364.327145,3217.601092
113.160574,-1258.350101,9992.780217,-3677.258390
113.160884,3701.029710,14878.139434,-10342.289223
113.161193,-666.185348,14730.098246,-11644.651570
113.161502,-2516.700203,11325.150913,-7201.297681
113.161812,-370.102971,14285.974681,-2221.676944
113.162121,-2294.638420,8290.306550,1685.410096
113.162431,1480.411884,3701.029710,4749.792088
113.162740,1480.411884,2220.617826,4290.134789
113.163050,-296.082377,1776.494261,3370.820191
113.163359,1776.494261,7402.059420,5286.058936
113.163668,-1998.556043,11695.253884,383.047749
113.163978,2146.597232,14137.933492,-7354.516781
113.164287,3108.864956,14804.118840,-11491.432470
113.164597,-6069.688724,14730.098246,-4826.401637
113.164906,888.247130,12583.501014,-4596.572988
113.165216,-2146.597232,9844.739029,-3064.381992
113.165525,-2960.823768,5773.606348,4903.011187
113.165834,2738.761985,6439.791695,1455.581446
113.166144,1036.288319,3478.967927,-383.047749
113.166453,2664.741391,4589.276840,2298.286494
113.166763,-3256.906145,9326.594869,3753.867940
113.167072,-4737.318029,11695.253884,-2987.772442
113.167382,5551.544565,15100.201217,-13713.109414
113.167691,666.185348,12065.356855,-13023.623466
113.168000,518.144159,11695.253884,-6435.202183
113.168310,1184.329507,12065.356855,-1455.581446
113.168619,-2442.679609,7254.018232,2681.334243
113.168929,-2738.761985,10214.842000,10955.165621
113.169238,2590.720797,6587.832884,3370.820191
113.169548,592.164754,1998.556043,-229.828649
113.169857,1332.370696,7254.018232,2911.162892
113.170166,-4589.276840,11325.150913,306.438199
113.170476,-3404.947333,12213.398043,-7201.297681
113.170785,3330.926739,17838.963202,-9422.974625
113.171095,-666.185348,12509.480420,-9959.241474
113.171404,-74.020594,10807.006753,-3907.087040
113.171714,-1924.535449,9400.615463,689.485948
113.172023,-5033.400406,6587.832884,6588.421283
113.172332,2146.597232,5625.565159,5592.497135
113.172642,3849.070898,4811.338623,153.219100
113.172951,-1110.308913,2812.782580,689.485948
113.173261,1258.350101,7476.080014,2451.505594
113.173570,-3404.947333,13027.624579,-1608.800546
113.173880,-2294.638420,14656.077652,-5362.668486
113.174189,3775.050304,14137.933492,-11031.775171
113.174498,-518.144159,10881.027347,-7354.516781
113.174808,-0.000000,9992.780217,-2145.067394
113.175117,-2220.617826,7550.100608,3294.210641
113.175427,-3552.988522,8734.430116,4060.306139
113.175736,4145.153275,7772.162391,1532.190996
113.176046,3330.926739,3849.070898,-1072.533697
113.176355,-1702.473667,4441.235652,1762.019645
113.176664,740.205942,8956.491898,3064.381992
113.176974,-4071.132681,12065.356855,-1838.629195
113.177283,-296.082377,13397.727550,-6358.592633
113.177593,6291.750507,12213.398043,-9039.926876
113.177902,-1110.308913,8364.327145,-7124.688131
113.178212,-1036.288319,10436.903782,1685.410096
113.178521,-3404.947333,11177.109724,4290.134789
113.178830,-2220.617826,10436.903782,1455.581446
113.179140,5699.585753,9918.759623,-689.485948
113.179449,-222.061783,1406.391290,-1378.971896
113.179759,-740.205942,7846.182985,3140.991542
113.180068,-740.205942,11621.233289,2145.067394
113.180378,-3997.112087,9992.780217,-2451.505594
113.180687,1258.350101,12361.439231,-4060.306139
113.180996,3627.009116,11917.315666,-8044.002729
113.181306,-0.000000,9474.636058,-6281.983084
113.181615,-3552.988522,11917.315666,1225.752797
113.181925,-2590.720797,10732.986159,4366.744339
113.182234,-888.247130,6513.812290,-229.828649
113.182543,7550.100608,8660.409521,-3447.429741
113.182853,-2590.720797,2220.617826,536.266849
113.183162,-1036.288319,9252.574275,2911.162892
113.183472,-1998.556043,10436.903782,1302.362347
113.183781,-3404.947333,12287.418637,-2374.896044
113.184091,6735.874072,14804.118840,-9499.584175
113.184400,-518.144159,10807.006753,-8350.440928
113.184709,-1406.391290,12361.439231,-2298.286494
113.185019,370.102971,9252.574275,459.657299
113.185328,-2886.803174,8660.409521,-1915.238745
113.185638,2442.679609,9252.574275,1378.971896
113.185947,5403.503377,4959.379811,2374.896044
113.186257,-370.102971,3775.050304,2451.505594
113.186566,-74.020594,9178.553681,5286.058936
113.186875,-1998.556043,10214.842000,1532.190996
113.187185,-1776.494261,12213.398043,-4136.915689
113.187494,4959.379811,15692.365970,-9193.145976
113.187804,-2960.823768,11917.315666,-10648.727422
113.188113,-740.205942,11325.150913,-2451.505594
113.188423,-0.000000,12139.377449,0.000000
113.188732,-4737.318029,9918.759623,-612.876398
113.189041,4737.318029,8438.347739,1302.362347
113.189351,1628.453072,4145.153275,919.314598
113.189660,-2368.659014,5329.482782,3600.648841
113.189970,2960.823768,7550.100608,4826.401637
113.190279,-6809.894666,11103.089130,76.609550
113.190589,1924.535449,11547.212695,-3677.258390
113.190898,4293.194464,10214.842000,-9806.022374
113.191207,-3997.112087,11029.068536,-8810.098227
113.191517,-888.247130,10732.986159,-919.314598
113.191826,-2368.659014,8586.388927,306.438199
113.192136,-1998.556043,9030.512492,-995.924147
113.192445,4515.256246,7105.977043,-1225.752797
113.192755,-222.061783,5403.503377,-1378.971896
113.193064,-2220.617826,6513.812290,4673.182538
113.193373,1776.494261,9918.759623,2757.943793
113.193683,-1406.391290,11399.171507,-1225.752797
113.193992,1554.432478,13397.727550,-4213.525239
113.194302,4811.338623,12657.521608,-7354.516781
113.194611,-3034.844362,9474.636058,-4213.525239
113.194921,1998.556043,9400.615463,1532.190996
113.195230,-2072.576638,9474.636058,459.657299
113.195539,-148.041188,7402.059420,153.219100
113.195849,3108.864956,8512.368333,-919.314598
113.196158,-4367.215058,6217.729913,1225.752797
113.196468,444.123565,6957.935855,1378.971896
113.196777,-814.226536,10066.800811,0.000000
113.197087,-4515.256246,12361.439231,-2757.943793
113.197396,3034.844362,13619.789333,-5669.106685
113.197705,2072.576638,11843.295072,-8273.831378
113.198015,-1628.453072,8438.347739,-2298.286494
113.198324,1850.514855,9770.718434,4060.306139
113.198634,-4071.132681,10584.944971,2604.724693
113.198943,962.267725,3701.029710,3217.601092
113.199253,2146.597232,5033.400406,1608.800546
113.199562,-2664.741391,2146.597232,-995.924147
113.199871,370.102971,7920.203579,-2374.896044
113.200181,-4145.153275,12879.583391,-6052.154434
113.200490,-3034.844362,14804.118840,-4979.620737
113.200800,6365.771101,15692.365970,-9959.241474
113.201109,888.247130,9696.697840,-7967.393179
113.201418,-1480.411884,9622.677246,-306.438199
113.201728,666.185348,6809.894666,1455.581446
113.202037,962.267725,8438.347739,4290.134789
113.202347,2146.597232,8734.430116,3677.258390
113.202656,3552.988522,5921.647536,76.609550
113.202966,-3849.070898,5107.421000,153.219100
113.203275,814.226536,10732.986159,-383.047749
113.203584,-1628.453072,13101.645173,-4903.011187
113.203894,-2516.700203,14656.077652,-5439.278036
113.204203,2442.679609,16432.571912,-8963.317327
113.204513,-1628.453072,12139.377449,-4903.011187
113.204822,-148.041188,11769.274478,-306.438199
113.205132,-1924.535449,9474.636058,3294.210641
113.205441,-1702.473667,7920.203579,3830.477490
113.205750,3849.070898,6587.832884,2451.505594
113.206060,1258.350101,5033.400406,-1838.629195
113.206369,-1406.391290,5107.421000,1608.800546
113.206679,-222.061783,10066.800811,2911.162892
113.206988,-5033.400406,11325.150913,-766.095498
113.207298,1850.514855,11843.295072,-6741.640382
113.207607,3108.864956,11399.171507,-10495.508323
113.207916,-3182.885551,7328.038826,-5975.544884
113.208226,-1406.391290,9918.759623,612.876398
113.208535,-1184.329507,7476.080014,-153.219100
113.208845,-222.061783,7402.059420,0.000000
113.209154,3256.906145,11843.295072,1762.019645
113.209464,2442.679609,7105.977043,-842.705048
113.209773,592.164754,6069.688724,-1072.533697
113.210082,296.082377,10658.965565,-2298.286494
113.210392,-2960.823768,11325.150913,-153.219100
113.210701,2220.617826,15692.365970,-6665.030833
113.211011,4959.379811,11843.295072,-8273.831378
113.211320,-1480.411884,8882.471304,-2604.724693
113.211630,-0.000000,9770.718434,0.000000
113.211939,-2294.638420,9178.553681,2604.724693
113.212248,-2220.617826,7624.121203,4213.525239
113.212558,4441.235652,8808.450710,-1149.143247
113.212867,-296.082377,7179.997637,-3524.039291
113.213177,-370.102971,7772.162391,1149.143247
113.213486,-3775.050304,10584.944971,2145.067394
113.213796,-3182.885551,13027.624579,-4596.572988
113.214105,4737.318029,16358.551318,-7967.393179
113.214414,222.061783,9178.553681,-5898.935335
113.214724,-2738.761985,6661.853478,995.924147
113.215033,222.061783,7402.059420,5056.230287
113.215343,-3997.112087,5699.585753,3447.429741
113.215652,444.123565,5255.462188,2528.115143
113.215962,2590.720797,3849.070898,-919.314598
113.216271,-1924.535449,6513.812290,-2604.724693
113.216580,814.226536,11843.295072,-1149.143247
113.216890,-3552.988522,12657.521608,-1455.581446
113.217199,-2664.741391,14434.015869,-5975.544884
113.217509,7994.224174,16580.613101,-9116.536426
113.217818,888.247130,9622.677246,-7737.564530
113.218128,296.082377,8142.265362,1225.752797
113.218437,-222.061783,8438.347739,6358.592633
113.218746,-0.000000,6439.791695,2528.115143
113.219056,4145.153275,8660.409521,2451.505594
113.219365,2220.617826,6513.812290,-459.657299
113.219675,-1554.432478,5625.565159,229.828649
113.219984,-1036.288319,11695.253884,1455.581446
113.220294,-4219.173869,13989.892304,-2451.505594
113.220603,-0.000000,14211.954086,-8810.098227
113.220912,2516.700203,13249.686362,-10342.289223
113.221222,-3552.988522,9918.759623,-5286.058936
113.221531,-666.185348,8808.450710,-2145.067394
113.221841,-2368.659014,8734.430116,3907.087040
113.222150,-0.000000,6069.688724,6128.763984
113.222459,3478.967927,5699.585753,5362.668486
113.222769,3923.091493,2072.576638,1149.143247
113.223078,-4145.153275,7994.224174,3217.601092
113.223388,-1998.556043,12287.418637,3677.258390
113.223697,-2960.823768,12435.459826,-4826.401637
113.224007,3108.864956,14137.933492,-14402.595362
113.224316,1924.535449,14137.933492,-14402.595362
113.224625,-4663.297435,9030.512492,-4596.572988
113.224935,-0.000000,9030.512492,842.705048
113.225244,-1110.308913,9992.780217,4136.915689
113.225554,2368.659014,6587.832884,6052.154434
113.225863,6809.894666,5181.441594,306.438199
113.226173,3627.009116,2886.803174,766.095498
113.226482,-814.226536,6513.812290,2757.943793
113.226791,-740.205942,12583.501014,1378.971896
113.227101,-888.247130,16062.468941,-7507.735880
113.227410,4367.215058,17912.983796,-12410.747068
113.227720,1554.432478,13989.892304,-9346.365076
113.228029,-4811.338623,10214.842000,-2834.553343
113.228338,1036.288319,9178.553681,459.657299
113.228648,-1924.535449,7031.956449,4903.011187
113.228957,-148.041188,5033.400406,4749.792088
113.229267,2442.679609,3404.947333,3677.258390
113.229576,1554.432478,3701.029710,3294.210641
113.229885,-2516.700203,7550.100608,3600.648841
113.230195,-3404.947333,13249.686362,2374.896044
113.230504,-2146.597232,17616.901420,-8503.660028
113.230814,4811.338623,14804.118840,-14019.547613
113.231123,814.226536,11695.253884,-6665.030833
113.231433,-5329.482782,7846.182985,1991.848295
113.231742,296.082377,9400.615463,5286.058936
113.232051,-2072.576638,6661.853478,4443.353888
113.232361,2294.638420,1332.370696,6205.373534
113.232670,666.185348,5255.462188,2451.505594
113.232980,1110.308913,6069.688724,-1149.143247
113.233289,-0.000000,9474.636058,-1378.971896
113.233598,-3256.906145,15100.201217,-4366.744339
113.233908,592.164754,16876.695478,-11797.870669
113.234217,6883.915261,14656.077652,-12487.356617
113.234527,-740.205942,13101.645173,-2528.115143
113.234836,-740.205942,10955.047942,2757.943793
113.235145,3330.926739,8808.450710,4366.744339
113.235455,-0.000000,3923.091493,6511.811733
113.235764,3923.091493,4737.318029,6128.763984
113.236074,1998.556043,4811.338623,1455.581446
113.236383,-1924.535449,6661.853478,2068.457845
113.236692,-1850.514855,14063.912898,-229.828649
113.237002,-3034.844362,15692.365970,-8120.612279
113.237311,222.061783,13767.830521,-12717.185267
113.237621,-0.000000,15396.283594,-7584.345430
113.237930,-3775.050304,10436.903782,-3677.258390
113.238239,666.185348,7328.038826,-689.485948
113.238549,-3108.864956,9030.512492,4749.792088
113.238858,-1110.308913,4663.297435,8273.831378
113.239168,6957.935855,4959.379811,3753.867940
113.239477,3108.864956,2368.659014,689.485948
113.239786,-3182.885551,4515.256246,4903.011187
113.240096,-666.185348,9992.780217,2757.943793
113.240405,-2368.659014,9474.636058,-7354.516781
113.240715,3849.070898,13767.830521,-12640.575717
113.241024,-296.082377,15322.262999,-10418.898773
113.241334,-3256.906145,11325.150913,-4826.401637
113.241643,1480.411884,10214.842000,1685.410096
113.241952,-0.000000,9548.656652,306.438199
113.242262,888.247130,5403.503377,2068.457845
113.242571,5255.462188,4737.318029,4213.525239
113.242881,2146.597232,5773.606348,4060.306139
113.243190,1258.350101,5329.482782,3983.696590
113.243499,-296.082377,12435.459826,3907.087040
113.243809,-2960.823768,16358.551318,-3217.601092
113.244118,4885.359217,15988.448347,-11031.775171
113.244428,666.185348,14285.974681,-11414.822920
113.244737,-4219.173869,11769.274478,-6511.811733
113.245046,-518.144159,12879.583391,-3830.477490
113.245356,-3775.050304,7698.141797,1762.019645
113.245665,-1036.288319,5033.400406,3983.696590
113.245975,4219.173869,3478.967927,3524.039291
113.246284,1850.514855,2886.803174,4826.401637
113.246593,-296.082377,3330.926739,7584.345430
113.246903,-4737.318029,11769.274478,3907.087040
113.247212,-1258.350101,13619.789333,-5515.887586
113.247522,3849.070898,11103.089130,-11338.213370
113.247831,296.082377,14211.954086,-8503.660028
113.248140,-4219.173869,12213.398043,-5515.887586
113.248450,-666.185348,9844.739029,689.485948
113.248759,-2072.576638,9474.636058,1378.971896
113.249069,1776.494261,7031.956449,-536.266849
113.249378,4219.173869,4145.153275,-383.047749
113.249687,-1110.308913,2220.617826,3677.258390
113.249997,-444.123565,8660.409521,3753.867940
113.250306,-2072.576638,13323.706956,-1455.581446
113.250616,-814.226536,16432.571912,-9269.755526
113.250925,7328.038826,17098.757260,-11261.603821
113.251235,296.082377,11695.253884,-7660.954980
113.251544,-2220.617826,9400.615463,-6435.202183
113.251853,-4737.318029,11547.212695,3907.087040
113.252163,-444.123565,5773.606348,4903.011187
113.252472,6439.791695,5403.503377,383.047749
113.252782,5255.462188,5255.462188,1838.629195
113.253091,-2738.761985,2146.597232,5592.497135
113.253400,-3775.050304,7624.121203,5592.497135
113.253710,-2516.700203,9474.636058,-3064.381992
113.254019,-0.000000,12731.542202,-10801.946522
113.254329,2294.638420,14878.139434,-12257.527968
113.254638,518.144159,13767.830521,-8044.002729
113.254947,-592.164754,11325.150913,-2604.724693
113.255257,-5033.400406,11325.150913,6741.640382
113.255566,-2294.638420,8068.244768,5669.106685
113.255876,6661.853478,3182.885551,1302.362347
113.256185,1480.411884,2812.782580,1532.190996
113.256494,-3701.029710,3849.070898,6894.859482
113.256804,-888.247130,8808.450710,1302.362347
113.257113,-1776.494261,10584.944971,-7354.516781
113.257423,3849.070898,14063.912898,-10648.727422
113.257732,3627.009116,12583.501014,-9346.365076
113.258041,-0.000000,10881.027347,-5515.887586
113.258351,-2516.700203,11473.192101,2757.943793
113.258660,-888.247130,11621.233289,4213.525239
113.258970,3997.112087,9178.553681,-2757.943793
113.259279,6513.812290,5625.565159,-3370.820191
113.259588,-518.144159,5921.647536,2834.553343
113.259898,-2294.638420,6587.832884,4213.525239
113.260207,-2442.679609,14285.974681,4290.134789
113.260517,-1036.288319,12509.480420,-4366.744339
113.260826,4515.256246,13619.789333,-9576.193725
113.261135,1184.329507,13027.624579,-9039.926876
113.261445,-3552.988522,7476.080014,-1302.362347
113.261754,-4885.359217,8438.347739,6358.592633
113.262064,-2812.782580,7254.018232,3907.087040
113.262373,2812.782580,7624.121203,-4979.620737
113.262683,2664.741391,5329.482782,-229.828649
113.262992,-2146.597232,3256.906145,6128.763984
113.263301,-888.247130,7476.080014,2374.896044
113.263611,-1776.494261,12065.356855,306.438199
113.263920,-666.185348,12139.377449,-2987.772442
113.264230,3404.947333,12065.356855,-6358.592633
113.264539,888.247130,10140.821405,-7354.516781
113.264848,-2220.617826,10214.842000,-2528.115143
113.265158,-1850.514855,14137.933492,2911.162892
113.265467,-888.247130,9400.615463,-1532.190996
113.265777,2368.659014,9548.656652,-5209.449386
113.266086,3256.906145,5329.482782,-612.876398
113.266395,-1480.411884,1554.432478,4826.401637
113.266705,-2590.720797,10658.965565,4979.620737
113.267014,-2442.679609,11325.150913,842.705048
113.267324,4367.215058,13471.748144,-10112.460574
113.267633,6439.791695,13397.727550,-9269.755526
113.267942,-814.226536,10140.821405,-6818.249932
113.268252,-1924.535449,10066.800811,-383.047749
113.268561,-3108.864956,12213.398043,3294.210641
113.268871,-0.000000,9326.594869,-2528.115143
113.269180,3775.050304,7105.977043,-2374.896044
113.269489,-222.061783,4959.379811,1762.019645
113.269799,-518.144159,1998.556043,3447.429741
113.270108,-2886.803174,8660.409521,7737.564530
113.270418,-3923.091493,11177.109724,842.705048
113.270727,1184.329507,12657.521608,-7507.735880
113.271036,4515.256246,12879.583391,-7048.078582
113.271346,-74.020594,7920.203579,-4060.306139
113.271655,-4663.297435,15026.180623,-76.609550
113.271965,-2812.782580,12657.521608,2145.067394
113.272274,1702.473667,7031.956449,-4366.744339
113.272584,4811.338623,8808.450710,-3140.991542
113.272893,-3034.844362,4737.318029,7354.516781
113.273202,-1110.308913,5625.565159,5822.325785
113.273512,-1184.329507,13397.727550,2451.505594
113.273821,-888.247130,12361.439231,-3677.258390
113.274131,1924.535449,12287.418637,-8503.660028
113.274440,3330.926739,11399.171507,-7737.564530
113.274749,-1554.432478,9400.615463,-6818.249932
113.275059,-3404.947333,11177.109724,1149.143247
113.275368,-1702.473667,11621.233289,919.314598
113.275678,5625.565159,8438.347739,-3830.477490
113.275987,2960.823768,6883.915261,2145.067394
113.276296,-1480.411884,5181.441594,5439.278036
113.276606,1036.288319,3849.070898,1991.848295
113.276915,-3108.864956,12287.418637,0.000000
113.277225,-1776.494261,9844.739029,-5592.497135
113.277534,4515.256246,12583.501014,-8886.707777
113.277843,1332.370696,11177.109724,-7814.174080
113.278153,-1924.535449,9178.553681,-1455.581446
113.278462,-1702.473667,11399.171507,3677.258390
113.278772,-3775.050304,5477.523971,0.000000
113.279081,1480.411884,7624.121203,-1915.238745
113.279390,148.041188,7476.080014,3064.381992
113.279700,-592.164754,3627.009116,306.438199
113.280009,148.041188,9622.677246,2451.505594
113.280319,-4293.194464,14285.974681,-612.876398
113.280628,-1184.329507,12583.501014,-7201.297681
113.280937,6439.791695,12583.501014,-8503.660028
113.281247,888.247130,9770.718434,-6205.373534
113.281556,-1258.350101,11177.109724,2604.724693
113.281866,-222.061783,9696.697840,4903.011187
113.282175,-740.205942,6365.771101,-689.485948
113.282484,2960.823768,7698.141797,-459.657299
113.282794,814.226536,7105.977043,2451.505594
113.283103,-2072.576638,1924.535449,-2911.162892
113.283413,-222.061783,11621.233289,-1378.971896
113.283722,-6143.709319,14359.995275,-2757.943793
113.284032,1702.473667,13471.748144,-9422.974625
113.284341,4293.194464,11917.315666,-12027.699319
113.284650,-2072.576638,8142.265362,-3064.381992
113.284960,-0.000000,10140.821405,5515.887586
113.285269,-444.123565,9030.512492,5592.497135
113.285579,-0.000000,5329.482782,995.924147
113.285888,1776.494261,8660.409521,2911.162892
113.286197,-518.144159,3997.112087,153.219100
113.286507,-0.000000,6587.832884,-3830.477490
113.286816,-2738.761985,12509.480420,383.047749
113.287126,-4145.153275,13841.851115,-5286.058936
113.287435,2960.823768,12953.603985,-9039.926876
113.287744,1924.535449,11473.192101,-4596.572988
113.288054,-1702.473667,8586.388927,153.219100
113.288363,-814.226536,9548.656652,3294.210641
113.288673,-0.000000,12509.480420,-1608.800546
113.288982,1184.329507,7179.997637,-1225.752797
113.289291,3034.844362,9844.739029,0.000000
113.289601,962.267725,6735.874072,-1378.971896
113.289910,-0.000000,5995.668130,-612.876398
113.290220,-1628.453072,13767.830521,1378.971896
113.290529,-2960.823768,11843.295072,-4213.525239
113.290838,4441.235652,14211.954086,-7124.688131
113.291148,2368.659014,9326.594869,-5669.106685
113.291457,-2220.617826,6217.729913,-1225.752797
113.291767,-1036.288319,9104.533087,4749.792088
113.292076,-3997.112087,8216.285956,3524.039291
113.292385,3404.947333,6513.812290,-3217.601092
113.292695,2664.741391,8512.368333,-3064.381992
113.293004,-1628.453072,3330.926739,-5822.325785
113.293314,-1702.473667,7476.080014,2451.505594
113.293623,-4663.297435,10214.842000,1838.629195
113.293933,-0.000000,12509.480420,-5056.230287
113.294242,5477.523971,12213.398043,-6205.373534
113.294551,-0.000000,7846.182985,-3600.648841
113.294861,-2072.576638,9548.656652,689.485948
113.295170,-1110.308913,10362.883188,2298.286494
113.295480,-1776.494261,7328.038826,-612.876398
113.295789,3256.906145,12213.398043,306.438199
113.296098,1998.556043,5107.421000,459.657299
113.296408,-666.185348,7105.977043,-1378.971896
113.296717,-1554.432478,12731.542202,2145.067394
113.297027,-3775.050304,13841.851115,919.314598
113.297336,1998.556043,14952.160028,-8733.488677
113.297645,3256.906145,15322.262999,-9193.145976
113.297955,1628.453072,9844.739029,-5439.278036
113.298264,-1924.535449,7772.162391,1302.362347
113.298574,-2738.761985,10288.862594,4290.134789
113.298883,-1406.391290,6883.915261,919.314598
113.299192,2960.823768,7328.038826,-612.876398
113.299502,2886.803174,4737.318029,0.000000
113.299811,-148.041188,1924.535449,-1225.752797
113.300121,-4441.235652,9474.636058,5898.935335
113.300430,-5551.544565,11029.068536,-1838.629195
113.300739,1924.535449,14137.933492,-11108.384721
113.301049,4071.132681,14804.118840,-8273.831378
113.301358,444.123565,6809.894666,-3524.039291
113.301668,-3182.885551,9770.718434,1608.800546
113.301977,-3256.906145,9548.656652,4979.620737
113.302286,666.185348,4441.235652,1532.190996
113.302596,6587.832884,6883.915261,-306.438199
113.302905,-1850.514855,5921.647536,76.609550
113.303215,-2960.823768,6513.812290,4749.792088
113.303524,-3627.009116,15396.283594,3064.381992
113.303833,-3256.906145,14508.036463,-8733.488677
113.304143,4367.215058,15322.262999,-13406.671215
113.304452,592.164754,12509.480420,-9346.365076
113.304762,-1184.329507,8290.306550,-4596.572988
113.305071,-888.247130,10881.027347,3447.429741
113.305381,-1184.329507,10881.027347,4903.011187
113.305690,2442.679609,5403.503377,4290.134789
113.305999,3552.988522,6291.750507,4826.401637
113.306309,1406.391290,3108.864956,2681.334243
113.306618,-1850.514855,6439.791695,3600.648841
113.306928,-3404.947333,13249.686362,459.657299
113.307237,-962.267725,16358.551318,-13100.233016
113.307546,5551.544565,15248.242405,-13713.109414
113.307856,-2368.659014,12065.356855,-4673.182538
113.308165,-2368.659014,7920.203579,-612.876398
113.308475,-296.082377,9992.780217,3064.381992
113.308784,-2294.638420,5551.544565,4903.011187
113.309093,296.082377,6069.688724,3370.820191
113.309403,5255.462188,6217.729913,1378.971896
113.309712,296.082377,5699.585753,-1532.190996
113.310022,-3552.988522,11325.150913,3294.210641
113.310331,-1110.308913,14063.912898,-306.438199
113.310640,962.267725,13693.809927,-13100.233016
113.310950,4367.215058,15026.180623,-9729.412825
113.311259,-2442.679609,9770.718434,-2145.067394
113.311569,3034.844362,8290.306550,1685.410096
113.311878,222.061783,9992.780217,4903.011187
113.312187,-2812.782580,7846.182985,3753.867940
113.312497,2960.823768,6883.915261,2987.772442
113.312806,5995.668130,6957.935855,612.876398
113.313116,-1924.535449,7920.203579,-2987.772442
113.313425,-3256.906145,13027.624579,0.000000
113.313734,-2368.659014,15470.304188,-4366.744339
113.314044,1776.494261,14582.057057,-12563.966167
113.314353,6957.935855,14434.015869,-8733.488677
113.314663,-2072.576638,7105.977043,153.219100
113.314972,518.144159,7031.956449,4903.011187
113.315282,-1332.370696,8438.347739,7507.735880
113.315591,-1850.514855,1406.391290,3294.210641
113.315900,3330.926739,6069.688724,229.828649
113.316210,-0.000000,6143.709319,-1532.190996
113.316519,-1554.432478,4441.235652,-2451.505594
113.316829,-4293.194464,11769.274478,0.000000
113.317138,-2294.638420,13767.830521,-8503.660028
113.317447,1998.556043,12583.501014,-12257.527968
113.317757,2220.617826,14359.995275,-3447.429741
113.318066,-444.123565,7846.182985,0.000000
113.318376,444.123565,7624.121203,2528.115143
113.318685,-2368.659014,10510.924376,6818.249932
113.318994,-222.061783,4145.153275,4136.915689
113.319304,5477.523971,7254.018232,689.485948
113.319613,666.185348,6587.832884,-1302.362347
113.319923,-2664.741391,8586.388927,76.609550
113.320232,-3404.947333,14285.974681,-842.705048
113.320541,-1332.370696,12657.521608,-9959.241474
113.320851,2590.720797,15248.242405,-9422.974625
113.321160,-222.061783,12805.562797,-2451.505594
113.321470,-4515.256246,7105.977043,-2987.772442
113.321779,222.061783,9178.553681,2221.676944
113.322088,-1406.391290,9474.636058,3064.381992
113.322398,1184.329507,6957.935855,1225.752797
113.322707,4737.318029,6735.874072,2757.943793
113.323017,-148.041188,3849.070898,4443.353888
113.323326,-1702.473667,9400.615463,3677.258390
113.323635,-3627.009116,10436.903782,919.314598
113.323945,-1554.432478,9992.780217,-7967.393179
113.324254,3627.009116,13471.748144,-11031.775171
113.324564,-1702.473667,13989.892304,-7967.393179
113.324873,444.123565,8586.388927,-7354.516781
113.325183,-2220.617826,8734.430116,459.657299
113.325492,-2368.659014,7328.038826,4519.963438
113.325801,2516.700203,5847.626942,-3677.258390
113.326111,6291.750507,4367.215058,2528.115143
113.326420,518.144159,3330.926739,3677.258390
113.326730,-3627.009116,8364.327145,5132.839837
113.327039,-1110.308913,12657.521608,-1608.800546
113.327348,1036.288319,11843.295072,-12487.356617
113.327658,1924.535449,15396.283594,-10035.851024
113.327967,-2294.638420,15914.427753,-6128.763984
113.328277,-888.247130,12287.418637,-4519.963438
113.328586,-2146.597232,9178.553681,-1685.410096
113.328896,-1184.329507,7254.018232,1685.410096
113.329205,5107.421000,4589.276840,2911.162892
113.329514,2664.741391,4885.359217,4826.401637
113.329824,-1924.535449,3923.091493,5209.449386
113.330133,296.082377,7994.224174,3140.991542
113.330443,-444.123565,11917.315666,-2757.943793
113.330752,-222.061783,15766.386565,-9729.412825
113.331061,1850.514855,17616.901420,-10418.898773
113.331371,-666.185348,9178.553681,-8427.050478
113.331680,1036.288319,9548.656652,-2145.067394
113.331990,-3256.906145,8660.409521,4290.134789
113.332299,-1332.370696,4219.173869,5669.106685
113.332609,3997.112087,5625.565159,4979.620737
113.332918,-740.205942,7179.997637,4903.011187
113.333227,-1110.308913,2738.761985,2757.943793
113.333537,-1628.453072,9474.636058,1991.848295
113.333846,-3108.864956,14285.974681,-8503.660028
113.334156,2738.761985,16950.716072,-14479.204912
113.334465,962.267725,13915.871710,-10495.508323
113.334775,-1036.288319,9030.512492,-5362.668486
113.335084,1258.350101,10214.842000,2528.115143
113.335393,-1702.473667,8068.244768,6818.249932
113.335703,814.226536,2072.576638,6435.202183
113.336012,4589.276840,4663.297435,4596.572988
113.336322,2442.679609,2960.823768,3830.477490
113.336631,-2368.659014,6513.812290,2145.067394
113.336940,-5329.482782,13249.686362,459.657299
113.337250,1184.329507,14359.995275,-10801.946522
113.337559,4737.318029,16062.468941,-12793.794817
113.337869,518.144159,14952.160028,-8656.879127
113.338178,-3108.864956,10214.842000,-3447.429741
113.338488,-1554.432478,9548.656652,5056.230287
113.338797,-1776.494261,8734.430116,5515.887586
113.339106,2220.617826,3849.070898,1991.848295
113.339416,4811.338623,7624.121203,3524.039291
113.339725,148.041188,6661.853478,3907.087040
113.340035,-148.041188,7105.977043,2528.115143
113.340344,-2738.761985,12065.356855,-1991.848295
113.340654,-1258.350101,11029.068536,-8963.317327
113.340963,3330.926739,13175.665768,-9729.412825
113.341272,-0.000000,10584.944971,-7660.954980
113.341582,-370.102971,7179.997637,-4213.525239
113.341891,-3478.967927,8438.347739,6128.763984
113.342201,-1924.535449,10584.944971,2681.334243
113.342510,4367.215058,7179.997637,-1991.848295
113.342819,4737.318029,6587.832884,536.266849
113.343129,-666.185348,7772.162391,2221.676944
113.343438,-2368.659014,11029.068536,842.705048
113.343748,-962.267725,12435.459826,-2987.772442
113.344057,-0.000000,10140.821405,-9039.926876
113.344367,3108.864956,15470.304188,-8810.098227
113.344676,-814.226536,10807.006753,-4443.353888
113.344985,888.247130,9696.697840,1302.362347
113.345295,-3552.988522,9326.594869,6281.983084
113.345604,-444.123565,7179.997637,919.314598
113.345914,2664.741391,7031.956449,-1532.190996
113.346223,1184.329507,4663.297435,383.047749
113.346533,-666.185348,3775.050304,842.705048
113.346842,-2220.617826,11695.253884,1072.533697
113.347151,-1110.308913,14804.118840,-4979.620737
113.347461,4515.256246,12287.418637,-8580.269578
113.347770,2220.617826,11917.315666,-3983.696590
113.348080,-1110.308913,7846.182985,-1378.971896
113.348389,-962.267725,9474.636058,4596.572988
113.348698,-1036.288319,11991.336260,2528.115143
113.349008,592.164754,3108.864956,-3217.601092
113.349317,1776.494261,9252.574275,-766.095498
113.349627,-1998.556043,4071.132681,-612.876398
113.349936,-1036.288319,5995.668130,-1302.362347
113.350246,-444.123565,12435.459826,-229.828649
113.350555,-4145.153275,10807.006753,-4673.182538
113.350864,6809.894666,14804.118840,-5209.449386
113.351174,888.247130,12287.418637,-5132.839837
113.351483,-1702.473667,9770.718434,-3447.429741
113.351793,888.247130,11177.109724,5362.668486
113.352102,-4145.153275,7328.038826,229.828649
113.352412,2960.823768,9178.553681,-4366.744339
113.352721,1406.391290,8956.491898,612.876398
113.353030,1258.350101,4293.194464,383.047749
113.353340,-370.102971,9030.512492,1225.752797
113.353649,-2812.782580,15470.304188,919.314598
113.353959,-222.061783,12805.562797,-8120.612279
113.354268,1776.494261,11547.212695,-12104.308868
113.354577,296.082377,11769.274478,-2681.334243
113.354887,-3701.029710,5995.668130,612.876398
113.355196,-888.247130,11325.150913,2451.505594
113.355506,-1998.556043,6883.915261,-383.047749
113.355815,7105.977043,8216.285956,-2834.553343
113.356125,2886.803174,7254.018232,1915.238745
113.356434,-1554.432478,6513.812290,1608.800546
113.356743,-740.205942,7624.121203,3907.087040
113.357053,-3182.885551,9104.533087,1149.143247
113.357362,962.267725,8882.471304,-8503.660028
113.357672,3256.906145,13027.624579,-7431.126331
113.357981,-2516.700203,11843.295072,-4903.011187
113.358291,-1036.288319,9474.636058,-1455.581446
113.358600,-2442.679609,11103.089130,2451.505594
113.358909,-1628.453072,8512.368333,-2528.115143
113.359219,3330.926739,9844.739029,-1378.971896
113.359528,2220.617826,5551.544565,1915.238745
113.359838,-296.082377,5625.565159,3064.381992
113.360147,-814.226536,11251.130318,4136.915689
113.360456,-1036.288319,11103.089130,-1915.238745
113.360766,1406.391290,13323.706956,-6665.030833
113.361075,1554.432478,13989.892304,-3983.696590
113.361385,-74.020594,9030.512492,-3753.867940
113.361694,-1406.391290,9992.780217,-3217.601092
113.362004,-3108.864956,9474.636058,2145.067394
113.362313,296.082377,4737.318029,-1072.533697
113.362622,2664.741391,6883.915261,383.047749
113.362932,3330.926739,8364.327145,1608.800546
113.363241,-2072.576638,7698.141797,3524.039291
113.363551,-814.226536,10658.965565,2681.334243
113.363860,-814.226536,10881.027347,-4366.744339
113.364170,1480.411884,13397.727550,-9269.755526
113.364479,3478.967927,14508.036463,-8580.269578
113.364788,-1184.329507,7920.203579,-5439.278036
113.365098,-1480.411884,10658.965565,2834.553343
113.365407,-1702.473667,8364.327145,2834.553343
113.365717,-1110.308913,6809.894666,76.609550
113.366026,2664.741391,6809.894666,306.438199
113.366335,-1184.329507,4145.153275,1915.238745
113.366645,-74.020594,7550.100608,689.485948
113.366954,-2516.700203,11917.315666,-2987.772442
113.367264,1776.494261,12287.418637,-7124.688131
113.367573,3552.988522,16654.633695,-7737.564530
113.367883,-222.061783,11251.130318,-3294.210641
113.368192,-814.226536,8586.388927,-536.266849
113.368501,74.020594,9622.677246,6281.983084
113.368811,962.267725,6217.729913,1455.581446
113.369120,370.102971,5477.523971,689.485948
113.369430,-0.000000,8364.327145,1838.629195
113.369739,-148.041188,6439.791695,-766.095498
113.370049,740.205942,11251.130318,-995.924147
113.370358,-4515.256246,13619.789333,-2221.676944
113.370667,-1554.432478,11621.233289,-7967.393179
113.370977,2516.700203,14730.098246,-6894.859482
113.371286,1332.370696,9918.759623,-4136.915689
113.371596,-74.020594,7105.977043,0.000000
113.371905,-1332.370696,9400.615463,5515.887586
113.372214,-2442.679609,7031.956449,3600.648841
113.372524,2960.823768,8290.306550,1838.629195
113.372833,-296.082377,7105.977043,1532.190996
113.373143,296.082377,8142.265362,-2834.553343
113.373452,-1480.411884,12361.439231,689.485948
113.373762,-5921.647536,10066.800811,-3140.991542
113.374071,2590.720797,11325.150913,-10955.165621
113.374380,3775.050304,11399.171507,-10801.946522
113.374690,-666.185348,7179.997637,-612.876398
113.374999,-2516.700203,9178.553681,5439.278036
113.375309,-222.061783,10658.965565,3753.867940
113.375618,4293.194464,7402.059420,-229.828649
113.375928,444.123565,8364.327145,0.000000
113.376237,370.102971,7550.100608,1225.752797
113.376546,-1258.350101,6439.791695,-612.876398
113.376856,814.226536,12435.459826,-229.828649
113.377165,-3775.050304,13175.665768,-2221.676944
113.377475,2294.638420,12805.562797,-8197.221829
113.377784,1776.494261,10214.842000,-5286.058936
113.378093,-2368.659014,10066.800811,-3217.601092
113.378403,-0.000000,9400.615463,2604.724693
113.378712,-2368.659014,9622.677246,3447.429741
113.379022,888.247130,7031.956449,-153.219100
113.379331,2146.597232,5773.606348,2681.334243
113.379641,1036.288319,7031.956449,2374.896044
113.379950,-296.082377,9622.677246,7431.126331
113.380259,-2960.823768,13989.892304,-306.438199
113.380569,-962.267725,9696.697840,-8350.440928
113.380878,2220.617826,14063.912898,-10801.946522
113.381188,2664.741391,13915.871710,-7354.516781
113.381497,-2146.597232,10066.800811,-3753.867940
113.381807,-222.061783,10214.842000,3370.820191
113.382116,-3849.070898,5625.565159,6128.763984
113.382425,3997.112087,4663.297435,3217.601092
113.382735,3997.112087,6217.729913,3370.820191
113.383044,2442.679609,5329.482782,-1225.752797
113.383354,-3701.029710,9030.512492,1378.971896
113.383663,-4145.153275,10807.006753,-1378.971896
113.383972,296.082377,14211.954086,-12334.137518
113.384282,740.205942,19615.457463,-11874.480219
113.384591,2812.782580,13027.624579,-5592.497135
113.384901,-2368.659014,8956.491898,-1072.533697
113.385210,-1258.350101,9326.594869,4060.306139
113.385520,444.123565,4367.215058,5209.449386
113.385829,2812.782580,6217.729913,3907.087040
113.386138,2368.659014,5995.668130,4749.792088
113.386448,296.082377,4663.297435,3217.601092
113.386757,-1998.556043,7772.162391,2604.724693
113.387067,-2516.700203,14434.015869,-3524.039291
113.387376,-888.247130,15914.427753,-13483.280765
113.387686,3108.864956,14952.160028,-11721.261119
113.387995,-3108.864956,12361.439231,-4596.572988
113.388304,-1554.432478,8956.491898,689.485948
113.388614,-666.185348,7846.182985,2757.943793
113.388923,666.185348,6217.729913,3294.210641
113.389233,2516.700203,6587.832884,3830.477490
113.389542,4737.318029,5181.441594,4366.744339
113.389851,-1184.329507,6957.935855,1455.581446
113.390161,-3552.988522,12287.418637,1838.629195
113.390470,-2146.597232,15544.324782,-8044.002729
113.390780,1702.473667,12657.521608,-15551.738609
113.391089,666.185348,14508.036463,-9806.022374
113.391399,-2590.720797,10955.047942,-2374.896044
113.391708,-1702.473667,4959.379811,1838.629195
113.392017,1998.556043,7031.956449,6971.469032
113.392327,-0.000000,4441.235652,6052.154434
113.392636,2590.720797,5921.647536,5056.230287
113.392946,2368.659014,6883.915261,3830.477490
113.393255,-1184.329507,5403.503377,-1225.752797
113.393565,-3182.885551,11621.233289,-3217.601092
113.393874,-3478.967927,15322.262999,-8656.879127
113.394183,1258.350101,15396.283594,-12793.794817
113.394493,2738.761985,16802.674883,-6435.202183
113.394802,-222.061783,11251.130318,-459.657299
113.395112,-814.226536,5995.668130,2987.772442
113.395421,-1110.308913,6661.853478,6818.249932
113.395730,-666.185348,1850.514855,8503.660028
113.396040,3034.844362,4515.256246,4366.744339
113.396349,1850.514855,5403.503377,-612.876398
113.396659,-3404.947333,9844.739029,-1532.190996
113.396968,-4367.215058,15766.386565,-2298.286494
113.397278,-814.226536,14137.933492,-12027.699319
113.397587,4515.256246,16950.716072,-13559.890315
113.397896,-74.020594,12213.398043,-4060.306139
113.398206,-1628.453072,5699.585753,2987.772442
113.398515,666.185348,5477.523971,1685.410096
113.398825,740.205942,4441.235652,4519.963438
113.399134,2368.659014,3108.864956,2757.943793
113.399444,592.164754,7402.059420,4136.915689
113.399753,-0.000000,6809.894666,-459.657299
113.400062,-4219.173869,10955.047942,-4673.182538
113.400372,-2664.741391,15840.407159,-6435.202183
113.400681,296.082377,14730.098246,-12563.966167
113.400991,296.082377,15322.262999,-9576.193725
113.401300,-370.102971,12879.583391,306.438199
113.401609,222.061783,7254.018232,-689.485948
113.401919,1628.453072,9696.697840,5286.058936
113.402228,1480.411884,4959.379811,6894.859482
113.402538,1924.535449,3330.926739,4596.572988
113.402847,3108.864956,6069.688724,5209.449386
113.403157,-888.247130,6809.894666,1225.752797
113.403466,-3923.091493,8956.491898,-612.876398
113.403775,1258.350101,14508.036463,-6435.202183
113.404085,-148.041188,13767.830521,-13406.671215
113.404394,-1850.514855,18653.189738,-7354.516781
113.404704,-0.000000,13101.645173,-2681.334243
113.405013,-1110.308913,8142.265362,-3677.258390
113.405323,-74.020594,11251.130318,3140.991542
113.405632,2664.741391,4515.256246,6511.811733
113.405941,-0.000000,7105.977043,2374.896044
113.406251,1406.391290,6809.894666,3294.210641
113.406560,-0.000000,7105.977043,229.828649
113.406870,-2294.638420,10066.800811,-1608.800546
113.407179,296.082377,10807.006753,-6435.202183
113.407488,-814.226536,14359.995275,-10035.851024
113.407798,2664.741391,11695.253884,-9959.241474
113.408107,-2294.638420,6883.915261,-4903.011187
113.408417,-2146.597232,9104.533087,1455.581446
113.408726,740.205942,6809.894666,229.828649
113.409036,1924.535449,3627.009116,1302.362347
113.409345,1110.308913,5403.503377,5745.716235
113.409654,2442.679609,5181.441594,5592.497135
113.409964,74.020594,6513.812290,-842.705048
113.410273,-1776.494261,9770.718434,2987.772442
113.410583,-0.000000,13693.809927,-6435.202183
113.410892,2146.597232,16284.530724,-12257.527968
113.411202,-0.000000,16506.592507,-5745.716235
113.411511,-2368.659014,12731.542202,-5439.278036
113.411820,-1258.350101,8882.471304,-2145.067394
113.412130,1184.329507,8068.244768,1762.019645
113.412439,-370.102971,4293.194464,3064.381992
113.412749,740.205942,5107.421000,4749.792088
113.413058,-592.164754,4293.194464,5822.325785
113.413367,-592.164754,7920.203579,2374.896044
113.413677,-1332.370696,12879.583391,-1608.800546
113.413986,-1628.453072,13101.645173,-9193.145976
113.414296,2368.659014,14730.098246,-12640.575717
113.414605,1850.514855,13989.892304,-9729.412825
113.414915,740.205942,11177.109724,-4213.525239
113.415224,-2590.720797,8512.368333,4290.134789
113.415533,-740.205942,6365.771101,5592.497135
113.415843,3701.029710,2590.720797,1072.533697
113.416152,962.267725,3108.864956,6894.859482
113.416462,296.082377,6291.750507,6435.202183
113.416771,-1480.411884,9918.759623,-1149.143247
113.417081,-3775.050304,13545.768739,-5669.106685
113.417390,-2072.576638,12361.439231,-10112.460574
113.417699,2072.576638,14952.160028,-13789.718964
113.418009,-74.020594,15396.283594,-9652.803275
113.418318,-1480.411884,10214.842000,995.924147
113.418628,-1036.288319,7846.182985,7814.174080
113.418937,2368.659014,3182.885551,2911.162892
113.419246,3404.947333,-518.144159,4903.011187
113.419556,-0.000000,6587.832884,9882.631924
113.419865,-370.102971,4737.318029,8273.831378
113.420175,740.205942,9918.759623,-1225.752797
113.420484,-2886.803174,15174.221811,-4903.011187
113.420794,-1924.535449,13101.645173,-11338.213370
113.421103,1406.391290,16950.716072,-11951.089769
113.421412,2072.576638,11547.212695,-12027.699319
113.421722,-1036.288319,9770.718434,-2221.676944
113.422031,-2294.638420,11029.068536,5822.325785
113.422341,1702.473667,6291.750507,3370.820191
113.422650,3404.947333,6883.915261,1915.238745
113.422960,2738.761985,7402.059420,4136.915689
113.423269,-1036.288319,5033.400406,4443.353888
113.423578,-4441.235652,10807.006753,1838.629195
113.423888,-0.000000,12361.439231,-5592.497135
113.424197,2146.597232,11843.295072,-15015.471761
113.424507,1554.432478,12731.542202,-10342.289223
113.424816,-4441.235652,8142.265362,-1149.143247
113.425125,-3775.050304,7698.141797,2451.505594
113.425435,2146.597232,8142.265362,-1149.143247
113.425744,2220.617826,2960.823768,-5209.449386
113.426054,814.226536,4071.132681,6205.373534
113.426363,-74.020594,6439.791695,8044.002729
113.426673,962.267725,9400.615463,-842.705048
113.426982,-518.144159,13841.851115,-1762.019645
113.427291,-296.082377,13619.789333,-3983.696590
113.427601,-0.000000,13249.686362,-10189.070123
113.427910,2664.741391,15544.324782,-8350.440928
113.428220,-370.102971,12731.542202,-2528.115143
113.428529,-4885.359217,9326.594869,5209.449386
113.428839,2220.617826,8734.430116,536.266849
113.429148,740.205942,5625.565159,-3140.991542
113.429458,1702.473667,6217.729913,2911.162892
113.429767,888.247130,6365.771101,6052.154434
113.430076,-3849.070898,11991.336260,-536.266849
113.430386,-0.000000,13249.686362,-2451.505594
113.430695,-666.185348,10732.986159,-7048.078582
113.431005,2516.700203,12213.398043,-8656.879127
113.431314,2072.576638,12657.521608,-1762.019645
113.431624,-1332.370696,9474.636058,995.924147
113.431933,-3997.112087,9622.677246,3677.258390
113.432243,3404.947333,6661.853478,-1915.238745
113.432552,1332.370696,4219.173869,-3140.991542
113.432862,518.144159,7105.977043,6894.859482
113.433171,-1110.308913,5699.585753,4826.401637
113.433481,-2146.597232,7698.141797,306.438199
113.433790,-2146.597232,12583.501014,-2604.724693
113.434099,-0.000000,11547.212695,-8580.269578
113.434409,1406.391290,13989.892304,-9346.365076
113.434718,814.226536,11399.171507,-2451.505594
113.435028,-148.041188,11843.295072,536.266849
113.435337,518.144159,9104.533087,1378.971896
113.435647,1776.494261,5551.544565,-1685.410096
113.435956,-1332.370696,7105.977043,2528.115143
113.436266,4071.132681,8438.347739,3677.258390
113.436575,-444.123565,5847.626942,689.485948
113.436885,-4071.132681,10510.924376,1532.190996
113.437194,888.247130,13027.624579,-4290.134789
113.437503,-74.020594,12065.356855,-10189.070123
113.437813,-1406.391290,14878.139434,-5669.106685
113.438122,1554.432478,10436.903782,-1762.019645
113.438432,-1628.453072,10807.006753,-1762.019645
113.438741,-148.041188,8956.491898,1532.190996
113.439051,2368.659014,6217.729913,-919.314598
113.439360,2886.803174,6069.688724,-1302.362347
113.439670,740.205942,5181.441594,4826.401637
113.439979,-3849.070898,5477.523971,10265.679673
113.440289,-1702.473667,10807.006753,3370.820191
113.440598,2590.720797,10955.047942,-5515.887586
113.440907,-0.000000,10214.842000,-9959.241474
