#time,accel_x,accel_y,accel_z
163.503510,-370.102971,10066.800811,-383.047749
163.503820,-0.000000,9104.533087,-919.314598
163.504130,2072.576638,8956.491898,-612.876398
163.504439,-0.000000,8882.471304,-1762.019645
163.504749,-148.041188,9474.636058,-1915.238745
163.505059,-0.000000,9844.739029,-1685.410096
163.505369,444.123565,9770.718434,-383.047749
163.505678,518.144159,9104.533087,-1532.190996
163.505988,-592.164754,9178.553681,-1072.533697
163.506298,-0.000000,8142.265362,-1838.629195
163.506607,370.102971,9622.677246,-2911.162892
163.506917,-666.185348,9474.636058,-1608.800546
163.507227,666.185348,10066.800811,689.485948
163.507537,-0.000000,10658.965565,536.266849
163.507846,740.205942,9622.677246,-766.095498
163.508156,-0.000000,8142.265362,-2068.457845
163.508466,-1998.556043,8364.327145,-1149.143247
163.508776,370.102971,9252.574275,-919.314598
163.509085,-0.000000,8660.409521,536.266849
163.509395,1184.329507,9178.553681,1685.410096
163.509705,2368.659014,7476.080014,919.314598
163.510015,5847.626942,6365.771101,1608.800546
163.510324,1184.329507,6439.791695,8656.879127
163.510634,-370.102971,6439.791695,10572.117872
163.510944,1776.494261,7179.997637,10265.679673
163.511253,5995.668130,9104.533087,612.876398
163.511563,4071.132681,6735.874072,2757.943793
163.511873,-2368.659014,9400.615463,11184.994271
163.512183,-740.205942,12287.418637,12717.185267
163.512492,1332.370696,10732.986159,5592.497135
163.512802,3404.947333,13249.686362,8044.002729
163.513112,-1776.494261,12805.562797,12257.527968
163.513422,-13989.892304,16284.530724,12640.575717
163.513731,23316.487173,19467.416275,-4826.401637
163.514041,-9326.594869,5921.647536,153.219100
163.514351,-1628.453072,15470.304188,17850.025103
163.514661,-19837.519246,9030.512492,28039.095227
163.514970,4071.132681,16062.468941,2911.162892
163.515280,9252.574275,9326.594869,-1762.019645
163.515590,-8068.244768,8956.491898,8273.831378
163.515900,-5477.523971,10436.903782,8427.050478
163.516209,-1406.391290,5995.668130,153.219100
163.516519,-518.144159,8512.368333,2528.115143
163.516829,-5847.626942,6365.771101,16777.491406
163.517138,4515.256246,5995.668130,11491.432470
163.517448,-4811.338623,1998.556043,11874.480219
163.517758,1998.556043,4071.132681,15092.081311
163.518068,-1110.308913,7698.141797,10342.289223
163.518377,-3108.864956,444.123565,6971.469032
163.518687,2294.638420,13471.748144,6741.640382
163.518997,2516.700203,11399.171507,-2681.334243
163.519307,2516.700203,14508.036463,-3370.820191
163.519616,-222.061783,13471.748144,18156.463303
163.519926,2590.720797,7550.100608,24591.665486
163.520236,1924.535449,7772.162391,15398.519510
163.520546,2368.659014,7772.162391,12563.966167
163.520855,-3182.885551,6291.750507,10648.727422
163.521165,5107.421000,11029.068536,-995.924147
163.521475,6365.771101,16210.510130,-2068.457845
163.521785,962.267725,16432.571912,7354.516781
163.522094,-5403.503377,15914.427753,15934.786358
163.522404,-4737.318029,11991.336260,14632.424012
163.522714,5625.565159,9474.636058,1685.410096
163.523023,4071.132681,7846.182985,-6971.469032
163.523333,1776.494261,6217.729913,1149.143247
163.523643,-2072.576638,9104.533087,16624.272307
163.523953,-666.185348,9622.677246,16088.005458
163.524262,3404.947333,4441.235652,9806.022374
163.524572,3849.070898,5699.585753,2451.505594
163.524882,-3627.009116,2442.679609,3064.381992
163.525192,-7624.121203,5847.626942,5745.716235
163.525501,-1110.308913,10436.903782,1532.190996
163.525811,9178.553681,8586.388927,-7354.516781
163.526121,5181.441594,6883.915261,995.924147
163.526431,-6735.874072,6883.915261,20914.407095
163.526740,-7698.141797,8438.347739,23825.569988
163.527050,4589.276840,9474.636058,4136.915689
163.527360,7624.121203,10510.924376,-7354.516781
163.527669,-2664.741391,11325.150913,0.000000
163.527979,-8068.244768,13249.686362,3294.210641
163.528289,2220.617826,14285.974681,-5286.058936
163.528599,6513.812290,14804.118840,-1991.848295
163.528908,-888.247130,10807.006753,16164.615008
163.529218,-3627.009116,6365.771101,25970.637382
163.529528,5699.585753,4885.359217,13330.061665
163.529838,3256.906145,1406.391290,5515.887586
163.530147,-1554.432478,5995.668130,9193.145976
163.530457,2590.720797,5995.668130,3830.477490
163.530767,6809.894666,5181.441594,-3217.601092
163.531077,592.164754,9104.533087,8580.269578
163.531386,-4737.318029,8068.244768,21374.064394
163.531696,-1776.494261,3923.091493,20684.578446
163.532006,7031.956449,20725.766376,3294.210641
163.532316,16654.633695,21095.869347,-459.657299
163.532625,-10066.800811,17246.798449,-1532.190996
163.532935,3701.029710,20355.663405,9882.631924
163.533245,-4589.276840,9030.512492,3370.820191
163.533554,2368.659014,15544.324782,4903.011187
163.533864,-7846.182985,11029.068536,27426.218828
163.534174,-5033.400406,11695.253884,10265.679673
163.534484,3552.988522,7179.997637,-2221.676944
163.534793,4589.276840,13693.809927,-1149.143247
163.535103,-2886.803174,8586.388927,3983.696590
163.535413,-3775.050304,8882.471304,5286.058936
163.535723,2738.761985,18949.272115,9652.803275
163.536032,-222.061783,9696.697840,7201.297681
163.536342,5773.606348,8512.368333,4136.915689
163.536652,-6365.771101,7402.059420,23825.569988
163.536962,-4441.235652,7105.977043,23136.084040
163.537271,7920.203579,5625.565159,5209.449386
163.537581,6069.688724,5699.585753,3294.210641
163.537891,-2368.659014,1480.411884,12180.918418
163.538200,2738.761985,7105.977043,10112.460574
163.538510,-2738.761985,11177.109724,12334.137518
163.538820,-5329.482782,11547.212695,15245.300410
163.539130,4145.153275,13397.727550,9116.536426
163.539439,-814.226536,5255.462188,2145.067394
163.539749,-5033.400406,9178.553681,8733.488677
163.540059,-6365.771101,8882.471304,13636.499864
163.540369,-1036.288319,11547.212695,5056.230287
163.540678,2368.659014,12213.398043,3524.039291
163.540988,4811.338623,14211.954086,6588.421283
163.541298,-7772.162391,16506.592507,11874.480219
163.541608,-5699.585753,11177.109724,11644.651570
163.541917,-148.041188,13101.645173,3217.601092
163.542227,3701.029710,8956.491898,-3983.696590
163.542537,2960.823768,8808.450710,-1072.533697
163.542847,-6957.935855,4737.318029,14479.204912
163.543156,1332.370696,8438.347739,12563.966167
163.543466,2146.597232,2960.823768,7814.174080
163.543776,5995.668130,3404.947333,10418.898773
163.544085,-7031.956449,888.247130,14709.033562
163.544395,-3627.009116,3182.885551,11031.775171
163.544705,7476.080014,10584.944971,-4060.306139
163.545015,7254.018232,8216.285956,-5592.497135
163.545324,-518.144159,12953.603985,10801.946522
163.545634,-2516.700203,12361.439231,18003.244203
163.545944,2664.741391,7402.059420,11108.384721
163.546254,6957.935855,9104.533087,9499.584175
163.546563,-7402.059420,5699.585753,18233.072852
163.546873,-4145.153275,13693.809927,6511.811733
163.547183,8142.265362,10584.944971,-12717.185267
163.547493,1924.535449,15914.427753,-10801.946522
163.547802,-3627.009116,16876.695478,10878.556072
163.548112,-1110.308913,15470.304188,14709.033562
163.548422,6513.812290,9844.739029,4826.401637
163.548732,2664.741391,8290.306550,10112.460574
163.549041,-3849.070898,7994.224174,15858.176809
163.549351,3330.926739,4663.297435,5362.668486
163.549661,10288.862594,7254.018232,-4979.620737
163.549970,4293.194464,1406.391290,766.095498
163.550280,-5921.647536,7550.100608,15321.909960
163.550590,814.226536,4737.318029,16624.272307
163.550900,1184.329507,6883.915261,7354.516781
163.551209,-814.226536,7550.100608,6894.859482
163.551519,-3849.070898,4811.338623,4596.572988
163.551829,4885.359217,13619.789333,-2528.115143
163.552139,-10584.944971,9548.656652,-919.314598
163.552448,740.205942,17542.880825,-1991.848295
163.552758,-2368.659014,12287.418637,-4979.620737
163.553068,-5255.462188,15766.386565,2068.457845
163.553378,-11177.109724,18653.189738,12487.356617
163.553687,-1332.370696,14285.974681,-153.219100
163.553997,10807.006753,11103.089130,-12257.527968
163.554307,-5403.503377,4219.173869,6205.373534
163.554616,-2664.741391,7624.121203,16011.395908
163.554926,8142.265362,3478.967927,-1991.848295
163.555236,4589.276840,1332.370696,-842.705048
163.555546,-3034.844362,9474.636058,19152.387450
163.555855,-2368.659014,1258.350101,7354.516781
163.556165,7920.203579,5921.647536,-7124.688131
163.556475,-4441.235652,2442.679609,2528.115143
163.556785,-1924.535449,5625.565159,9806.022374
163.557094,6513.812290,6291.750507,1378.971896
163.557404,-4959.379811,9326.594869,1838.629195
163.557713,-4071.132681,16062.468941,8886.707777
163.558023,-1184.329507,16284.530724,-3677.258390
163.558333,11103.089130,18431.127956,-15168.690860
163.558642,4441.235652,13841.851115,-4290.134789
163.558952,-9622.677246,14730.098246,12257.527968
163.559261,-2516.700203,8808.450710,10418.898773
163.559571,3627.009116,9326.594869,-3983.696590
163.559880,2442.679609,9770.718434,-3370.820191
163.560190,-0.000000,7476.080014,1455.581446
163.560499,444.123565,12435.459826,0.000000
163.560809,-148.041188,7254.018232,2068.457845
163.561118,7328.038826,10807.006753,5975.544884
163.561428,-444.123565,7476.080014,6588.421283
163.561737,-7105.977043,4071.132681,7507.735880
163.562047,-592.164754,8882.471304,766.095498
163.562356,3552.988522,8216.285956,-13789.718964
163.562666,3256.906145,16654.633695,-9116.536426
163.562975,-2220.617826,14582.057057,4136.915689
163.563285,-592.164754,9178.553681,5898.935335
163.563595,-2664.741391,9992.780217,1685.410096
163.563904,-4589.276840,8882.471304,2451.505594
163.564214,2664.741391,4811.338623,-7048.078582
163.564523,1184.329507,11843.295072,-9499.584175
163.564833,-370.102971,10066.800811,-229.828649
163.565142,1924.535449,9918.759623,1608.800546
163.565452,370.102971,5033.400406,-1991.848295
163.565761,2516.700203,1924.535449,1915.238745
163.566071,4367.215058,2516.700203,5975.544884
163.566380,-0.000000,296.082377,5209.449386
163.566690,1036.288319,9326.594869,6281.983084
163.566999,4441.235652,15174.221811,10648.727422
163.567309,3627.009116,7328.038826,-1378.971896
163.567618,-3552.988522,12583.501014,-2451.505594
163.567928,-7402.059420,14434.015869,3677.258390
163.568238,4589.276840,18949.272115,-12563.966167
163.568547,9326.594869,19689.478057,-22063.550342
163.568857,-1850.514855,20503.704593,-612.876398
163.569166,-2812.782580,12583.501014,19152.387450
163.569476,-3627.009116,8882.471304,7584.345430
163.569785,2072.576638,3627.009116,612.876398
163.570095,-148.041188,5181.441594,2374.896044
163.570404,7994.224174,11917.315666,-14172.766713
163.570714,1110.308913,5329.482782,-18233.072852
163.571023,-1924.535449,14137.933492,6511.811733
163.571333,-1702.473667,1776.494261,13713.109414
163.571642,1554.432478,-1776.494261,2451.505594
163.571952,-7402.059420,4737.318029,13559.890315
163.572261,-8734.430116,2590.720797,12027.699319
163.572571,5255.462188,13175.665768,-22753.036291
163.572881,3182.885551,14285.974681,-25434.370534
163.573190,-2146.597232,23908.651927,-4596.572988
163.573500,-2738.761985,18579.169144,-5209.449386
163.573809,-3923.091493,9992.780217,-2834.553343
163.574119,-740.205942,8142.265362,10801.946522
163.574428,-4663.297435,2072.576638,7431.126331
163.574738,2590.720797,3701.029710,-306.438199
163.575047,4071.132681,11251.130318,1455.581446
163.575357,5033.400406,3923.091493,-4826.401637
163.575666,7254.018232,9474.636058,-8503.660028
163.575976,-2442.679609,9400.615463,4213.525239
163.576285,-7402.059420,6513.812290,12717.185267
163.576595,6291.750507,9992.780217,-5209.449386
163.576904,-1998.556043,8364.327145,-6128.763984
163.577214,-2886.803174,12879.583391,2451.505594
163.577523,740.205942,10288.862594,-4826.401637
163.577833,-2886.803174,10584.944971,-5209.449386
163.578143,1924.535449,18653.189738,4366.744339
163.578452,1332.370696,14137.933492,-8273.831378
163.578762,3923.091493,11399.171507,-15398.519510
163.579071,1110.308913,16358.551318,4596.572988
163.579381,-9252.574275,8734.430116,9959.241474
163.579690,2220.617826,5995.668130,-3217.601092
163.580000,-1776.494261,814.226536,1149.143247
163.580309,3552.988522,-2072.576638,-5132.839837
163.580619,-2146.597232,2886.803174,-10035.851024
163.580928,2146.597232,13619.789333,-383.047749
163.581238,1036.288319,14952.160028,8963.317327
163.581547,5847.626942,9474.636058,1149.143247
163.581857,962.267725,3108.864956,7354.516781
163.582166,-11621.233289,4885.359217,9729.412825
163.582476,2220.617826,6217.729913,-5975.544884
163.582786,10510.924376,12065.356855,-16011.395908
163.583095,2294.638420,19319.375086,-6052.154434
163.583405,-1258.350101,20207.622217,5822.325785
163.583714,1998.556043,12657.521608,306.438199
163.584024,-1702.473667,10658.965565,-1608.800546
163.584333,-4811.338623,7624.121203,2681.334243
163.584643,962.267725,3108.864956,-3524.039291
163.584952,3997.112087,8808.450710,-8503.660028
163.585262,3627.009116,5625.565159,919.314598
163.585571,1998.556043,6661.853478,8503.660028
163.585881,-962.267725,9178.553681,6665.030833
163.586190,5625.565159,6661.853478,1532.190996
163.586500,-1480.411884,7698.141797,-3907.087040
163.586809,-8142.265362,8956.491898,4826.401637
163.587119,3256.906145,16580.613101,229.828649
163.587429,2960.823768,11917.315666,-12180.918418
163.587738,1554.432478,12435.459826,-4749.792088
163.588048,-8808.450710,12139.377449,7737.564530
163.588357,-3997.112087,10732.986159,4213.525239
163.588667,2960.823768,13841.851115,-10112.460574
163.588976,-1850.514855,16358.551318,-8273.831378
163.589286,-2072.576638,10955.047942,-5592.497135
163.589595,-8068.244768,8290.306550,-2451.505594
163.589905,-2146.597232,9030.512492,2298.286494
163.590214,4071.132681,1998.556043,-2911.162892
163.590524,-1258.350101,1998.556043,-766.095498
163.590833,-9252.574275,2146.597232,12410.747068
163.591143,1332.370696,7624.121203,5669.106685
163.591452,9252.574275,9252.574275,-13636.499864
163.591762,-2590.720797,222.061783,-4136.915689
163.592071,-8882.471304,7328.038826,12717.185267
163.592381,-4293.194464,7105.977043,0.000000
163.592691,4441.235652,10288.862594,-18922.558801
163.593000,222.061783,20873.807564,-8197.221829
163.593310,-2442.679609,17394.839637,1225.752797
163.593619,2294.638420,14137.933492,-6511.811733
163.593929,3108.864956,16876.695478,-6741.640382
163.594238,3923.091493,7624.121203,0.000000
163.594548,-666.185348,6291.750507,7354.516781
163.594857,-370.102971,4737.318029,9039.926876
163.595167,-666.185348,5551.544565,4673.182538
163.595476,6143.709319,5921.647536,-8273.831378
163.595786,814.226536,8586.388927,-14862.252661
163.596095,1628.453072,8142.265362,-5515.887586
163.596405,1702.473667,12509.480420,-1608.800546
163.596714,-2590.720797,8290.306550,-2145.067394
163.597024,2516.700203,15396.283594,8044.002729
163.597334,-3034.844362,6143.709319,6818.249932
163.597643,2516.700203,6439.791695,0.000000
163.597953,-1850.514855,16950.716072,-2374.896044
163.598262,518.144159,5921.647536,-4749.792088
163.598572,2590.720797,15396.283594,-12257.527968
163.598881,-0.000000,13249.686362,-8733.488677
163.599191,-1258.350101,10362.883188,-1685.410096
163.599500,-5625.565159,13619.789333,-306.438199
163.599810,-12139.377449,3701.029710,6358.592633
163.600119,10436.903782,7920.203579,-612.876398
163.600429,4219.173869,592.164754,-14172.766713
163.600738,-2072.576638,2516.700203,-1455.581446
163.601048,-2812.782580,8734.430116,14632.424012
163.601357,4293.194464,3256.906145,2528.115143
163.601667,8734.430116,9178.553681,-8120.612279
163.601977,-8438.347739,12213.398043,12947.013916
163.602286,-4885.359217,11251.130318,9882.631924
163.602596,2960.823768,13101.645173,-18999.168350
163.602905,2442.679609,15692.365970,-12793.794817
163.603215,1332.370696,14211.954086,-612.876398
163.603524,-3256.906145,15174.221811,-4903.011187
163.603834,-1332.370696,15174.221811,-3370.820191
163.604143,8734.430116,10140.821405,4979.620737
163.604453,-3034.844362,10436.903782,1149.143247
163.604762,-4515.256246,5181.441594,8427.050478
163.605072,2220.617826,4885.359217,6818.249932
163.605381,9474.636058,2590.720797,-12793.794817
163.605691,-0.000000,1554.432478,-11261.603821
163.606000,-6513.812290,8364.327145,14402.595362
163.606310,-888.247130,4885.359217,8044.002729
163.606619,5403.503377,11695.253884,-10265.679673
163.606929,-2294.638420,15618.345376,5822.325785
163.607239,-6661.853478,10214.842000,3294.210641
163.607548,-4737.318029,9400.615463,-12410.747068
163.607858,-1036.288319,12509.480420,-10418.898773
163.608167,3775.050304,10510.924376,-6741.640382
163.608477,-2442.679609,11917.315666,-4443.353888
163.608786,-3182.885551,13101.645173,7814.174080
163.609096,1258.350101,10881.027347,9806.022374
163.609405,-1554.432478,10658.965565,-4749.792088
163.609715,-2886.803174,5625.565159,-2834.553343
163.610024,2294.638420,9030.512492,-1608.800546
163.610334,5181.441594,5477.523971,-15398.519510
163.610643,-370.102971,6809.894666,-5515.887586
163.610953,-3997.112087,9474.636058,14479.204912
163.611262,-2590.720797,5255.462188,6818.249932
163.611572,3997.112087,9252.574275,-3907.087040
163.611882,-3404.947333,10436.903782,5515.887586
163.612191,-4515.256246,9622.677246,842.705048
163.612501,5255.462188,18061.024985,-16777.491406
163.612810,148.041188,14211.954086,-13176.842566
163.613120,1332.370696,14063.912898,-229.828649
163.613429,-148.041188,13767.830521,0.000000
163.613739,-6513.812290,13397.727550,3064.381992
163.614048,3108.864956,13693.809927,1762.019645
163.614358,444.123565,1184.329507,-6588.421283
163.614667,222.061783,4145.153275,-6052.154434
163.614977,-0.000000,6513.812290,1608.800546
163.615286,-0.000000,-74.020594,-3600.648841
163.615596,4589.276840,10066.800811,-8197.221829
163.615905,-3849.070898,6365.771101,6358.592633
163.616215,-4811.338623,6883.915261,7277.907231
163.616525,2516.700203,11843.295072,-6741.640382
163.616834,1110.308913,10436.903782,-9039.926876
163.617144,2294.638420,9844.739029,-1532.190996
163.617453,962.267725,10584.944971,-1532.190996
163.617763,1406.391290,11695.253884,-4519.963438
163.618072,666.185348,12879.583391,-1302.362347
163.618382,-2368.659014,9992.780217,1378.971896
163.618691,-2886.803174,12435.459826,-3600.648841
163.619001,3330.926739,14211.954086,-4979.620737
163.619310,4737.318029,7476.080014,-8503.660028
163.619620,-2072.576638,9548.656652,-5745.716235
163.619929,-222.061783,10510.924376,2834.553343
163.620239,4737.318029,3034.844362,-2987.772442
163.620548,3034.844362,6957.935855,-3753.867940
163.620858,-7402.059420,6587.832884,11874.480219
163.621167,1702.473667,5329.482782,7431.126331
163.621477,7254.018232,6661.853478,-9652.803275
163.621787,-518.144159,8216.285956,-4366.744339
163.622096,-2146.597232,10658.965565,4366.744339
163.622406,-740.205942,12731.542202,-5669.106685
163.622715,1258.350101,13915.871710,-12257.527968
163.623025,1998.556043,18727.210333,-1072.533697
163.623334,1332.370696,10362.883188,-2681.334243
163.623644,-2368.659014,9030.512492,-6818.249932
163.623953,-2220.617826,11991.336260,6358.592633
163.624263,222.061783,6439.791695,229.828649
163.624572,444.123565,4663.297435,-9882.631924
163.624882,-1036.288319,7179.997637,1608.800546
163.625191,3701.029710,5107.421000,3140.991542
163.625501,-592.164754,9474.636058,-2681.334243
163.625810,-2960.823768,9770.718434,1915.238745
163.626120,3182.885551,7476.080014,612.876398
163.626430,222.061783,8734.430116,-9959.241474
163.626739,-4293.194464,10140.821405,-1991.848295
163.627049,-1480.411884,7698.141797,5975.544884
163.627358,2442.679609,9326.594869,-3983.696590
163.627668,3701.029710,14434.015869,-4826.401637
163.627977,-10140.821405,13397.727550,9116.536426
163.628287,-4885.359217,9548.656652,2298.286494
163.628596,6809.894666,15026.180623,-21527.283494
163.628906,3552.988522,11399.171507,-12793.794817
163.629215,-2072.576638,8956.491898,5132.839837
163.629525,-4811.338623,9770.718434,3140.991542
163.629834,-2590.720797,10362.883188,7507.735880
163.630144,5403.503377,6957.935855,2451.505594
163.630453,-4219.173869,6661.853478,-2681.334243
163.630763,-2442.679609,7550.100608,3294.210641
163.631073,7254.018232,12435.459826,-5286.058936
163.631382,2738.761985,7920.203579,-13866.328514
163.631692,592.164754,10362.883188,4749.792088
163.632001,-5773.606348,9992.780217,12947.013916
163.632311,-5329.482782,5403.503377,-459.657299
163.632620,5699.585753,12435.459826,-8120.612279
163.632930,-1628.453072,14359.995275,-5132.839837
163.633239,-296.082377,10288.862594,-8427.050478
163.633549,-1480.411884,14508.036463,-4673.182538
163.633858,-518.144159,13767.830521,-2221.676944
163.634168,9030.512492,6587.832884,-8886.707777
163.634477,-2664.741391,7920.203579,2528.115143
163.634787,-7624.121203,9474.636058,16394.443657
163.635096,7846.182985,5477.523971,-1838.629195
163.635406,11103.089130,2960.823768,-13636.499864
163.635715,-4663.297435,5625.565159,5286.058936
163.636025,-6809.894666,7328.038826,12870.404366
163.636335,3256.906145,4663.297435,-6205.373534
163.636644,5551.544565,11843.295072,-17850.025103
163.636954,-2738.761985,15914.427753,-1685.410096
163.637263,-4663.297435,10288.862594,4979.620737
163.637573,2886.803174,16580.613101,-5362.668486
163.637882,3404.947333,12805.562797,-4519.963438
163.638192,-962.267725,9474.636058,0.000000
163.638501,-3997.112087,13027.624579,1149.143247
163.638811,2664.741391,10214.842000,-2221.676944
163.639120,11769.274478,10436.903782,-11644.651570
163.639430,-4885.359217,11843.295072,-7737.564530
163.639739,-10066.800811,6217.729913,12563.966167
163.640049,6957.935855,4737.318029,1608.800546
163.640358,4515.256246,1258.350101,-14249.376263
163.640668,-2590.720797,5477.523971,4213.525239
163.640978,-6587.832884,9178.553681,13100.233016
163.641287,3627.009116,2516.700203,-7354.516781
163.641597,9548.656652,11177.109724,-10878.556072
163.641906,-4367.215058,7994.224174,3983.696590
163.642216,-9326.594869,4515.256246,8273.831378
163.642525,1628.453072,15766.386565,-1915.238745
163.642835,2738.761985,14508.036463,-12717.185267
163.643144,3701.029710,17024.736666,-10112.460574
163.643454,-5921.647536,17468.860231,-1149.143247
163.643763,-5995.668130,11843.295072,76.609550
163.644073,7105.977043,13619.789333,-10878.556072
163.644382,3775.050304,6587.832884,-9346.365076
163.644692,-5033.400406,2072.576638,1455.581446
163.645001,-2664.741391,3627.009116,10495.508323
163.645311,6735.874072,1258.350101,3447.429741
163.645621,2516.700203,5699.585753,-2911.162892
163.645930,-3849.070898,7624.121203,6052.154434
163.646240,2294.638420,4219.173869,689.485948
163.646549,1258.350101,8808.450710,-7660.954980
163.646859,3034.844362,11695.253884,-1532.190996
163.647168,-1702.473667,14730.098246,383.047749
163.647478,-2294.638420,14137.933492,-2298.286494
163.647787,-2590.720797,11843.295072,842.705048
163.648097,-2368.659014,12805.562797,2834.553343
163.648406,-962.267725,17542.880825,-4290.134789
163.648716,1554.432478,14359.995275,-11491.432470
163.649025,2960.823768,15544.324782,-5209.449386
163.649335,2516.700203,7105.977043,995.924147
163.649644,-7105.977043,7179.997637,4366.744339
163.649954,-2738.761985,13545.768739,6052.154434
163.650263,3404.947333,4071.132681,-1378.971896
163.650573,9400.615463,2516.700203,-9422.974625
163.650883,-5773.606348,2294.638420,2987.772442
163.651192,2442.679609,6143.709319,12947.013916
163.651502,888.247130,6439.791695,2068.457845
163.651811,1998.556043,4219.173869,-2298.286494
163.652121,2812.782580,10881.027347,1302.362347
163.652430,-6587.832884,4071.132681,-1685.410096
163.652740,-3849.070898,13841.851115,-383.047749
163.653049,6217.729913,20947.828159,-3753.867940
163.653359,4071.132681,13249.686362,-8273.831378
163.653668,666.185348,16210.510130,-3524.039291
163.653978,-6957.935855,16950.716072,7737.564530
163.654287,-1776.494261,9548.656652,4826.401637
163.654597,5033.400406,11325.150913,-8733.488677
163.654906,4515.256246,10807.006753,-7737.564530
163.655216,592.164754,7994.224174,5515.887586
163.655526,-4515.256246,5551.544565,2145.067394
163.655835,-2590.720797,2960.823768,1149.143247
163.656145,7994.224174,3849.070898,76.609550
163.656458,-1184.329507,7328.038826,-995.924147
163.656767,-1776.494261,6957.935855,4903.011187
163.657077,5181.441594,9622.677246,4443.353888
163.657386,-592.164754,7624.121203,-2528.115143
163.657696,-740.205942,10584.944971,-1991.848295
163.658005,-1628.453072,10288.862594,4596.572988
163.658315,-5181.441594,12509.480420,536.266849
163.658624,5329.482782,17394.839637,-13253.452115
163.658934,1998.556043,16210.510130,-8810.098227
163.659243,-1776.494261,11473.192101,995.924147
163.659553,-4737.318029,12139.377449,229.828649
163.659862,2812.782580,8660.409521,-4673.182538
163.660172,-1850.514855,2738.761985,-2451.505594
163.660481,1850.514855,6217.729913,1302.362347
163.660791,1110.308913,-0.000000,5056.230287
163.661100,6439.791695,6661.853478,383.047749
163.661410,-148.041188,4441.235652,1072.533697
163.661720,-1850.514855,4959.379811,4290.134789
163.662029,-1480.411884,9104.533087,4366.744339
163.662339,-3552.988522,6217.729913,-2604.724693
163.662648,5477.523971,15544.324782,-11491.432470
163.662958,1110.308913,19319.375086,-10265.679673
163.663267,-3627.009116,12879.583391,-1915.238745
163.663577,-1332.370696,13841.851115,1838.629195
163.663886,-222.061783,14063.912898,-4903.011187
163.664196,3404.947333,12287.418637,-8273.831378
163.664505,-4071.132681,8882.471304,4749.792088
163.664815,-2886.803174,10658.965565,9729.412825
163.665124,7105.977043,7402.059420,-2911.162892
163.665434,6069.688724,3627.009116,-8963.317327
163.665743,-7846.182985,3108.864956,5822.325785
163.666053,-6069.688724,7402.059420,8656.879127
163.666362,2442.679609,3182.885551,-4749.792088
163.666672,7994.224174,9844.739029,-15092.081311
163.666981,-518.144159,14804.118840,-3217.601092
163.667291,-7698.141797,4589.276840,13789.718964
163.667600,-888.247130,12139.377449,4979.620737
163.667910,4367.215058,14137.933492,-11031.775171
163.668220,1110.308913,8216.285956,-7737.564530
163.668529,-3923.091493,11621.233289,306.438199
163.668839,-2664.741391,12065.356855,383.047749
163.669148,9770.718434,11177.109724,-4443.353888
163.669458,-2664.741391,9548.656652,689.485948
163.669767,-8586.388927,8364.327145,7507.735880
163.670077,1406.391290,5847.626942,2681.334243
163.670386,5921.647536,518.144159,-9882.631924
163.670696,2294.638420,8956.491898,-6971.469032
163.671005,-0.000000,9030.512492,10801.946522
163.671315,-5477.523971,5995.668130,13330.061665
163.671624,-444.123565,11843.295072,-1991.848295
163.671934,3256.906145,13471.748144,-9729.412825
163.672243,-2664.741391,14359.995275,-4673.182538
163.672553,888.247130,18431.127956,-6511.811733
163.672862,3627.009116,17468.860231,-2757.943793
163.673172,5477.523971,15914.427753,-1378.971896
163.673481,1258.350101,8290.306550,383.047749
163.673791,-7772.162391,-296.082377,12410.747068
163.674100,-4737.318029,6587.832884,12717.185267
163.674410,3108.864956,5033.400406,-8503.660028
163.674719,2886.803174,7550.100608,-13713.109414
163.675029,518.144159,13989.892304,-5439.278036
163.675339,-4811.338623,5477.523971,-1455.581446
163.675648,-2442.679609,9326.594869,-1225.752797
163.675958,2516.700203,6513.812290,1838.629195
163.676267,1258.350101,3330.926739,1608.800546
163.676577,-296.082377,9104.533087,5592.497135
163.676886,-4293.194464,6883.915261,6741.640382
163.677196,5181.441594,6069.688724,-3677.258390
163.677505,2368.659014,13545.768739,-6665.030833
163.677815,-3849.070898,10140.821405,3677.258390
163.678124,-2664.741391,12879.583391,2681.334243
163.678434,3997.112087,12657.521608,-13100.233016
163.678743,-444.123565,14434.015869,-15015.471761
163.679053,2072.576638,15322.262999,0.000000
163.679362,-5033.400406,9474.636058,3983.696590
163.679672,2146.597232,8734.430116,-5286.058936
163.679981,3256.906145,9252.574275,3217.601092
163.680291,-3330.926739,3701.029710,7201.297681
163.680600,3034.844362,6513.812290,-2221.676944
163.680910,6365.771101,10510.924376,-4136.915689
163.681219,3923.091493,8216.285956,306.438199
163.681529,-2664.741391,10362.883188,919.314598
163.681838,-2368.659014,6661.853478,6818.249932
163.682148,666.185348,8068.244768,2145.067394
163.682458,-74.020594,7624.121203,-7660.954980
163.682767,-1184.329507,13175.665768,-6665.030833
163.683077,-2886.803174,11547.212695,1225.752797
163.683386,-6883.915261,14359.995275,-1149.143247
163.683696,3775.050304,17468.860231,-11338.213370
163.684005,1554.432478,13471.748144,-10648.727422
163.684315,-4811.338623,8956.491898,-689.485948
163.684624,-1702.473667,7698.141797,4903.011187
163.684934,7031.956449,7179.997637,1455.581446
163.685243,888.247130,2442.679609,1762.019645
163.685553,-1628.453072,5107.421000,7967.393179
163.685862,-1036.288319,2368.659014,7048.078582
163.686172,2368.659014,6735.874072,-8427.050478
163.686481,6365.771101,13323.706956,-12180.918418
163.686791,-2368.659014,6735.874072,-1072.533697
163.687100,-666.185348,13841.851115,3140.991542
163.687410,-2590.720797,12361.439231,0.000000
163.687719,2368.659014,13619.789333,-3370.820191
163.688029,-518.144159,15766.386565,-2145.067394
163.688338,-2294.638420,10140.821405,306.438199
163.688648,1110.308913,16950.716072,-1532.190996
163.688958,5551.544565,16728.654289,-6588.421283
163.689267,1924.535449,11177.109724,-7277.907231
163.689577,-6513.812290,9104.533087,6281.983084
163.689886,1628.453072,11991.336260,8120.612279
163.690196,4589.276840,5921.647536,-7814.174080
163.690505,962.267725,2960.823768,-1302.362347
163.690815,-4811.338623,4145.153275,12334.137518
163.691124,-2812.782580,-0.000000,1302.362347
163.691434,7105.977043,3849.070898,-11491.432470
163.691743,1332.370696,6069.688724,-689.485948
163.692053,-2590.720797,6735.874072,5439.278036
163.692362,-3627.009116,9104.533087,6435.202183
163.692672,-444.123565,15470.304188,-306.438199
163.692981,3330.926739,15026.180623,-8963.317327
163.693291,-1480.411884,11843.295072,-7048.078582
163.693600,-1776.494261,12805.562797,-612.876398
163.693910,296.082377,10732.986159,-1915.238745
163.694219,1628.453072,11177.109724,-3830.477490
163.694529,-2886.803174,10066.800811,2451.505594
163.694838,-4145.153275,7698.141797,5209.449386
163.695148,5181.441594,9844.739029,-5975.544884
163.695457,-0.000000,7550.100608,-4060.306139
163.695767,-5699.585753,3701.029710,4443.353888
163.696077,7105.977043,6957.935855,-1378.971896
163.696386,1628.453072,814.226536,-9193.145976
163.696696,-1258.350101,10214.842000,5975.544884
163.697005,-592.164754,11103.089130,11261.603821
163.697315,1554.432478,4071.132681,0.000000
163.697624,2960.823768,14656.077652,689.485948
163.697934,-2960.823768,14285.974681,1455.581446
163.698243,-4959.379811,10288.862594,-6128.763984
163.698553,814.226536,16950.716072,-13330.061665
163.698862,-2220.617826,14137.933492,-9116.536426
163.699172,2220.617826,12435.459826,-7354.516781
163.699481,-4589.276840,15026.180623,-1225.752797
163.699791,-5181.441594,6587.832884,5056.230287
163.700100,8882.471304,4589.276840,1149.143247
163.700410,4811.338623,1702.473667,-1608.800546
163.700719,-6217.729913,-592.164754,14172.766713
163.701029,1998.556043,4959.379811,13330.061665
163.701338,-444.123565,5403.503377,-4213.525239
163.701648,-4219.173869,11547.212695,-9806.022374
163.701957,814.226536,14359.995275,-6588.421283
163.702267,-74.020594,9178.553681,-12793.794817
163.702577,518.144159,14211.954086,-8733.488677
163.702886,-2960.823768,13841.851115,8044.002729
163.703196,-3256.906145,9770.718434,3983.696590
163.703505,-1110.308913,11177.109724,-153.219100
163.703815,-3330.926739,13619.789333,-1149.143247
163.704124,6217.729913,9104.533087,-12640.575717
163.704434,5181.441594,10362.883188,-13713.109414
163.704743,-5403.503377,11177.109724,5515.887586
163.705053,4737.318029,12139.377449,8350.440928
163.705362,3478.967927,1776.494261,-3217.601092
163.705672,-2368.659014,4293.194464,3677.258390
163.705981,-4737.318029,7624.121203,12257.527968
163.706291,-1406.391290,3330.926739,-4519.963438
163.706600,7920.203579,12879.583391,-16547.662757
163.706910,-2368.659014,9030.512492,-7814.174080
163.707219,-444.123565,14434.015869,-1915.238745
163.707529,-1628.453072,14285.974681,-5975.544884
163.707838,1702.473667,14508.036463,-3447.429741
163.708148,518.144159,14359.995275,1149.143247
163.708457,-5033.400406,10955.047942,229.828649
163.708767,-666.185348,5847.626942,4136.915689
163.709076,3775.050304,5551.544565,2145.067394
163.709386,888.247130,8068.244768,-5286.058936
163.709696,-1406.391290,10807.006753,-6741.640382
163.710005,3478.967927,10955.047942,-6588.421283
163.710315,296.082377,2368.659014,-9576.193725
163.710624,-2664.741391,8068.244768,842.705048
163.710934,-3478.967927,8882.471304,7814.174080
163.711243,296.082377,3404.947333,766.095498
163.711553,3775.050304,7772.162391,2298.286494
163.711862,1924.535449,7846.182985,4213.525239
163.712172,-3775.050304,9622.677246,536.266849
163.712481,-518.144159,16728.654289,-4596.572988
163.712791,3923.091493,16136.489536,-10878.556072
163.713100,2146.597232,16802.674883,-9729.412825
163.713410,-5847.626942,16062.468941,-2298.286494
163.713719,-9844.739029,12065.356855,3294.210641
163.714029,1184.329507,11547.212695,459.657299
163.714338,3701.029710,5107.421000,-9576.193725
163.714648,518.144159,6069.688724,-4749.792088
163.714957,2664.741391,4737.318029,4673.182538
163.715267,2220.617826,2294.638420,4213.525239
163.715576,-4737.318029,5403.503377,5745.716235
163.715886,-1110.308913,5773.606348,9882.631924
163.716196,3404.947333,8364.327145,-7048.078582
163.716505,222.061783,7994.224174,-12717.185267
163.716815,-2294.638420,10436.903782,1225.752797
163.717124,-592.164754,12213.398043,-2298.286494
163.717434,-518.144159,11621.233289,-5132.839837
163.717743,-3849.070898,16876.695478,7507.735880
163.718053,-4663.297435,15026.180623,4136.915689
163.718362,1258.350101,12509.480420,-9806.022374
163.718672,296.082377,15248.242405,-10878.556072
163.718981,2146.597232,13767.830521,-6052.154434
163.719291,-1258.350101,7179.997637,-1532.190996
163.719600,-1110.308913,8290.306550,1225.752797
163.719910,-1776.494261,7772.162391,2528.115143
163.720219,2812.782580,1628.453072,-842.705048
163.720529,2738.761985,2664.741391,-1532.190996
163.720838,-740.205942,2442.679609,5745.716235
163.721148,296.082377,10881.027347,8427.050478
163.721457,370.102971,6957.935855,536.266849
163.721767,-2220.617826,9400.615463,-4290.134789
163.722076,1924.535449,14359.995275,-4060.306139
163.722386,-2072.576638,8734.430116,-7201.297681
163.722695,-3552.988522,15396.283594,-10342.289223
163.723005,3034.844362,19023.292709,-7354.516781
163.723315,-1036.288319,8512.368333,-1532.190996
163.723624,-2146.597232,16580.613101,6128.763984
163.723934,-0.000000,11843.295072,4060.306139
163.724243,-888.247130,9770.718434,-1302.362347
163.724553,-3775.050304,8586.388927,1762.019645
163.724862,2812.782580,7476.080014,-4519.963438
163.725172,4145.153275,5033.400406,-11951.089769
163.725481,1850.514855,5921.647536,-2681.334243
163.725791,-7624.121203,5921.647536,6358.592633
163.726100,3552.988522,6809.894666,766.095498
163.726410,3627.009116,3330.926739,-4596.572988
163.726719,-1998.556043,3627.009116,1838.629195
163.727029,-1036.288319,8068.244768,4443.353888
163.727338,-148.041188,4811.338623,-2221.676944
163.727648,962.267725,11473.192101,-2528.115143
163.727957,-1776.494261,14359.995275,-459.657299
163.728267,-2442.679609,9400.615463,-1685.410096
163.728576,-2516.700203,15396.283594,-4366.744339
163.728886,2960.823768,15026.180623,-10265.679673
163.729195,5033.400406,13693.809927,-12640.575717
163.729505,-8290.306550,12805.562797,3524.039291
163.729814,-1184.329507,10140.821405,8580.269578
163.730124,8216.285956,7698.141797,-9806.022374
163.730434,2516.700203,3404.947333,-8580.269578
163.730743,-4811.338623,4811.338623,12257.527968
163.731053,3775.050304,5921.647536,4366.744339
163.731362,6661.853478,4367.215058,-6971.469032
163.731672,1776.494261,7031.956449,5362.668486
163.731981,-4663.297435,8586.388927,9422.974625
163.732291,-888.247130,7624.121203,-4749.792088
163.732600,4293.194464,14285.974681,-10265.679673
163.732910,2664.741391,15840.407159,-12870.404366
163.733219,-4441.235652,15396.283594,-9499.584175
163.733529,-4959.379811,17838.963202,612.876398
163.733838,-2516.700203,12953.603985,1608.800546
163.734148,11029.068536,12953.603985,-10112.460574
163.734457,-1628.453072,2072.576638,-1838.629195
163.734767,-10955.047942,2960.823768,18616.120601
163.735076,5329.482782,4885.359217,4903.011187
163.735386,9252.574275,3034.844362,-18386.291952
163.735695,-2072.576638,9326.594869,-2834.553343
163.736005,-1406.391290,9252.574275,4826.401637
163.736314,1850.514855,3404.947333,-6052.154434
163.736624,1702.473667,10214.842000,-1378.971896
163.736934,-1332.370696,13619.789333,3370.820191
163.737243,-2294.638420,9770.718434,-3140.991542
163.737553,-1480.411884,9474.636058,-1991.848295
163.737862,-1258.350101,13471.748144,1915.238745
163.738172,592.164754,13175.665768,-7354.516781
163.738481,-0.000000,16580.613101,-9806.022374
163.738791,-3627.009116,13693.809927,306.438199
163.739100,7550.100608,16580.613101,-2221.676944
163.739410,1776.494261,9622.677246,-5439.278036
163.739719,-6661.853478,6735.874072,5362.668486
163.740029,1776.494261,7105.977043,6894.859482
163.740338,7476.080014,1480.411884,-6588.421283
163.740648,-3552.988522,4367.215058,-4290.134789
163.740957,-0.000000,2664.741391,5898.935335
163.741267,-2590.720797,4737.318029,-3983.696590
163.741576,2664.741391,11399.171507,-4213.525239
163.741886,1998.556043,11177.109724,5669.106685
163.742195,-5329.482782,11251.130318,2604.724693
163.742505,518.144159,13101.645173,383.047749
163.742814,-2146.597232,13249.686362,-4903.011187
163.743124,-518.144159,14211.954086,-10955.165621
163.743433,-444.123565,14730.098246,-9959.241474
163.743743,-2072.576638,12435.459826,-1991.848295
163.744053,3997.112087,14211.954086,383.047749
163.744362,3034.844362,5625.565159,-536.266849
163.744672,-4145.153275,10140.821405,6358.592633
163.744981,1332.370696,370.102971,7584.345430
163.745291,3404.947333,1258.350101,-2604.724693
163.745600,518.144159,4885.359217,-1149.143247
163.745910,2664.741391,6365.771101,2298.286494
163.746219,-962.267725,12879.583391,-2834.553343
163.746529,-1036.288319,7994.224174,-3294.210641
163.746838,2294.638420,14508.036463,-766.095498
163.747148,-4367.215058,14285.974681,-2451.505594
163.747457,-3849.070898,14137.933492,-2757.943793
163.747767,-2812.782580,16580.613101,-3140.991542
163.748076,5329.482782,11473.192101,-8886.707777
163.748386,5033.400406,10214.842000,-3600.648841
163.748695,-5921.647536,12139.377449,4366.744339
163.749005,1628.453072,7550.100608,6435.202183
163.749314,3849.070898,2886.803174,1225.752797
163.749624,-3330.926739,8438.347739,4673.182538
163.749933,2886.803174,5255.462188,76.609550
163.750243,-666.185348,1480.411884,-7814.174080
163.750553,-296.082377,6883.915261,-6128.763984
163.750862,2072.576638,5995.668130,-2757.943793
163.751172,-3330.926739,12435.459826,-3753.867940
163.751481,1110.308913,8882.471304,3370.820191
163.751791,444.123565,10732.986159,6894.859482
163.752100,-148.041188,14359.995275,3677.258390
163.752410,-518.144159,12287.418637,-1762.019645
163.752719,-2146.597232,12361.439231,-3524.039291
163.753029,5699.585753,15026.180623,-9039.926876
163.753338,-74.020594,15322.262999,-9959.241474
163.753648,-4959.379811,12509.480420,-4903.011187
163.753957,1184.329507,13619.789333,-536.266849
163.754267,888.247130,7476.080014,-3140.991542
163.754576,-444.123565,6365.771101,3294.210641
163.754886,2442.679609,1776.494261,7354.516781
163.755195,1850.514855,2664.741391,2374.896044
163.755505,3552.988522,4589.276840,1302.362347
163.755814,1258.350101,814.226536,6511.811733
163.756124,-518.144159,8808.450710,1149.143247
163.756433,-74.020594,10140.821405,-6281.983084
163.756743,1998.556043,14508.036463,-7048.078582
163.757052,-2516.700203,15470.304188,-3677.258390
163.757362,-2664.741391,14730.098246,-2068.457845
163.757672,-5033.400406,18061.024985,995.924147
163.757981,-0.000000,17024.736666,-2451.505594
163.758291,-2738.761985,11103.089130,-2145.067394
163.758600,222.061783,12139.377449,-1608.800546
163.758909,962.267725,9252.574275,-1225.752797
163.759219,-296.082377,5625.565159,-2911.162892
163.759528,-1184.329507,7920.203579,3600.648841
163.759837,-296.082377,3849.070898,2298.286494
163.760147,2812.782580,3256.906145,-5898.935335
163.760456,1480.411884,2590.720797,-2068.457845
163.760766,2664.741391,3034.844362,3217.601092
163.761075,4145.153275,3182.885551,1225.752797
163.761384,-2664.741391,5847.626942,4596.572988
163.761694,-3627.009116,12213.398043,8120.612279
163.762003,-444.123565,9770.718434,-3064.381992
163.762313,4885.359217,12065.356855,-11644.651570
163.762622,-7846.182985,19171.333898,-6894.859482
163.762931,-1702.473667,17098.757260,-6741.640382
163.763241,1998.556043,17098.757260,-9652.803275
163.763550,-2590.720797,16728.654289,-689.485948
163.763859,-0.000000,13249.686362,1455.581446
163.764169,4811.338623,8438.347739,-2757.943793
163.764478,1702.473667,222.061783,4213.525239
163.764788,-4219.173869,2738.761985,10035.851024
163.765097,6217.729913,3552.988522,3217.601092
163.765406,4293.194464,1702.473667,-2298.286494
163.765716,-4293.194464,4811.338623,4060.306139
163.766025,-666.185348,6439.791695,4903.011187
163.766335,962.267725,6809.894666,-5132.839837
163.766644,-3256.906145,13101.645173,-8580.269578
163.766953,-74.020594,13545.768739,-1762.019645
163.767263,-2368.659014,13397.727550,766.095498
163.767572,-5255.462188,16358.551318,-2681.334243
163.767881,2590.720797,15174.221811,-5362.668486
163.768191,1480.411884,14063.912898,-5898.935335
163.768500,-962.267725,9918.759623,-1991.848295
163.768810,-1776.494261,10658.965565,4366.744339
163.769119,7698.141797,6513.812290,-2145.067394
163.769428,-888.247130,666.185348,1149.143247
163.769738,-2220.617826,5255.462188,12104.308868
163.770047,3256.906145,1924.535449,2757.943793
163.770356,2294.638420,7031.956449,-10112.460574
163.770666,222.061783,11621.233289,-3907.087040
163.770975,-1776.494261,7254.018232,1225.752797
163.771285,3552.988522,9474.636058,-6741.640382
163.771594,-2590.720797,13767.830521,-3447.429741
163.771903,-1924.535449,11473.192101,7354.516781
163.772213,-1480.411884,11029.068536,4903.011187
163.772522,-2368.659014,12065.356855,-2604.724693
163.772832,2960.823768,13323.706956,-4673.182538
163.773141,4441.235652,14878.139434,-9346.365076
163.773450,-2812.782580,12287.418637,-7967.393179
163.773760,-1110.308913,13101.645173,3677.258390
163.774069,1924.535449,13841.851115,-4290.134789
163.774378,962.267725,2738.761985,-6205.373534
163.774688,-5403.503377,592.164754,11031.775171
163.774997,-1628.453072,-2368.659014,6894.859482
163.775307,5403.503377,-0.000000,-11184.994271
163.775616,1554.432478,6291.750507,-459.657299
163.775925,-4071.132681,5921.647536,9729.412825
163.776235,-666.185348,12583.501014,-1685.410096
163.776544,4219.173869,14878.139434,-6052.154434
163.776854,-1332.370696,16802.674883,-3983.696590
163.777163,-1406.391290,15988.448347,-4749.792088
163.777472,1702.473667,10807.006753,-4136.915689
163.777782,-5181.441594,12361.439231,3140.991542
163.778091,-2368.659014,15544.324782,-536.266849
163.778400,-1184.329507,10066.800811,-5898.935335
163.778710,1850.514855,14063.912898,-8886.707777
163.779019,3256.906145,7476.080014,-5745.716235
163.779329,2516.700203,888.247130,-1072.533697
163.779638,-7105.977043,5921.647536,13713.109414
163.779947,1036.288319,5699.585753,10265.679673
163.780257,6291.750507,1628.453072,-3677.258390
163.780566,4959.379811,1480.411884,-4443.353888
163.780875,1332.370696,2146.597232,5286.058936
163.781185,-4811.338623,8216.285956,153.219100
163.781494,-4441.235652,13915.871710,-919.314598
163.781804,-74.020594,18209.066173,-1991.848295
163.782113,2072.576638,15988.448347,-12257.527968
163.782422,-148.041188,14211.954086,-10725.336972
163.782732,-2220.617826,14063.912898,1072.533697
163.783041,-3849.070898,13545.768739,2528.115143
163.783351,1406.391290,8586.388927,1838.629195
163.783660,-4071.132681,13175.665768,5209.449386
163.783969,2664.741391,9918.759623,-7354.516781
163.784279,9326.594869,4367.215058,-12717.185267
163.784588,-3997.112087,6957.935855,-919.314598
163.784897,518.144159,6735.874072,8350.440928
163.785207,2146.597232,5699.585753,2451.505594
163.785516,3775.050304,4663.297435,4136.915689
163.785826,-148.041188,4885.359217,9882.631924
163.786135,-2738.761985,6143.709319,4060.306139
163.786444,814.226536,7402.059420,-7277.907231
163.786754,-518.144159,11843.295072,-9346.365076
163.787063,2220.617826,18283.086767,-8810.098227
163.787373,-740.205942,14063.912898,-9882.631924
163.787682,-2146.597232,21095.869347,1225.752797
163.787991,-1480.411884,16506.592507,7354.516781
163.788301,-444.123565,9400.615463,-2528.115143
163.788610,-1628.453072,11029.068536,1225.752797
163.788919,3108.864956,4367.215058,-1378.971896
163.789229,2368.659014,5699.585753,-10265.679673
163.789538,-3849.070898,8660.409521,-2068.457845
163.789848,1258.350101,8068.244768,3830.477490
163.790157,4737.318029,9696.697840,-4443.353888
163.790466,-888.247130,7698.141797,306.438199
163.790776,-444.123565,4811.338623,7814.174080
163.791085,1998.556043,1924.535449,-1685.410096
163.791395,1554.432478,2886.803174,-4979.620737
163.791704,-2294.638420,8586.388927,7048.078582
163.792013,370.102971,11029.068536,2451.505594
163.792323,592.164754,14137.933492,-7201.297681
163.792632,-4959.379811,23094.425390,-7354.516781
163.792941,-3256.906145,17616.901420,-7431.126331
163.793251,5403.503377,12805.562797,-15015.471761
163.793560,-6587.832884,11325.150913,-3370.820191
163.793870,-1924.535449,10436.903782,6205.373534
163.794179,6143.709319,6957.935855,-4443.353888
163.794488,518.144159,592.164754,306.438199
163.794798,2812.782580,2516.700203,15475.129060
163.795107,666.185348,4959.379811,4749.792088
163.795416,1332.370696,5773.606348,-1149.143247
163.795726,592.164754,9548.656652,3600.648841
163.796035,-222.061783,8808.450710,-3753.867940
163.796345,-2294.638420,7772.162391,-11031.775171
163.796654,-3478.967927,14952.160028,-2911.162892
163.796963,-1554.432478,10066.800811,-689.485948
163.797273,-4145.153275,9548.656652,-2911.162892
163.797582,-2220.617826,17320.819043,995.924147
163.797892,-370.102971,8808.450710,-1532.190996
163.798201,5181.441594,13397.727550,-7814.174080
163.798510,-3108.864956,8438.347739,-842.705048
163.798820,1776.494261,9918.759623,7277.907231
163.799129,2664.741391,6957.935855,0.000000
163.799438,-5033.400406,962.267725,383.047749
163.799748,-5921.647536,5181.441594,5286.058936
163.800057,5107.421000,6587.832884,-8503.660028
163.800367,7402.059420,4367.215058,-16624.272307
163.800676,-3256.906145,10140.821405,5592.497135
163.800985,-5107.421000,7920.203579,12717.185267
163.801295,2294.638420,9474.636058,1991.848295
163.801604,-5995.668130,15692.365970,1838.629195
163.801914,-1776.494261,15100.201217,-2298.286494
163.802223,9400.615463,14063.912898,-18769.339701
163.802532,1184.329507,10584.944971,-12487.356617
163.802842,-5403.503377,15914.427753,7967.393179
163.803151,4293.194464,15174.221811,2068.457845
163.803460,1628.453072,5847.626942,0.000000
163.803770,-3701.029710,11991.336260,15168.690860
163.804079,3627.009116,-592.164754,5132.839837
163.804389,-222.061783,-2886.803174,-11031.775171
163.804698,-5107.421000,6957.935855,1149.143247
163.805007,2220.617826,9252.574275,-3753.867940
163.805317,2368.659014,6069.688724,-12870.404366
163.805626,-5847.626942,18061.024985,1455.581446
163.805935,-2886.803174,12213.398043,11261.603821
163.806245,10214.842000,6661.853478,-6052.154434
163.806554,-1184.329507,8956.491898,2451.505594
163.806864,-6735.874072,6587.832884,18079.853753
163.807173,740.205942,7772.162391,-1455.581446
163.807482,4885.359217,9696.697840,-14862.252661
163.807792,-1258.350101,16876.695478,0.000000
163.808101,-3256.906145,20059.581028,-1991.848295
163.808411,2146.597232,10807.006753,-15015.471761
163.808720,-888.247130,15692.365970,-1991.848295
163.809029,-1850.514855,5329.482782,3830.477490
163.809339,2738.761985,1702.473667,-6435.202183
163.809648,-3034.844362,5255.462188,2451.505594
163.809957,3627.009116,3849.070898,9652.803275
163.810267,1332.370696,-0.000000,-383.047749
163.810576,2146.597232,8586.388927,2451.505594
163.810886,-740.205942,13915.871710,1685.410096
163.811195,2590.720797,14804.118840,-9576.193725
163.811504,1554.432478,11325.150913,-9576.193725
163.811814,-6069.688724,14063.912898,1685.410096
163.812123,-2590.720797,14285.974681,-306.438199
163.812433,2886.803174,7994.224174,-10112.460574
163.812742,-4959.379811,13175.665768,-2145.067394
163.813051,2442.679609,9548.656652,-383.047749
163.813361,2812.782580,4145.153275,-10112.460574
163.813670,-1628.453072,14211.954086,536.266849
163.813979,666.185348,12731.542202,5669.106685
163.814289,1406.391290,1110.308913,-1378.971896
163.814598,-1850.514855,9918.759623,2987.772442
163.814908,814.226536,7550.100608,229.828649
163.815217,3034.844362,6217.729913,-7354.516781
163.815526,-296.082377,4293.194464,1149.143247
163.815836,-3627.009116,12213.398043,-2298.286494
163.816145,4959.379811,14063.912898,-11797.870669
163.816454,962.267725,11991.336260,-5898.935335
163.816764,-7624.121203,12953.603985,10878.556072
163.817073,1036.288319,12731.542202,2528.115143
163.817383,5255.462188,6883.915261,-9039.926876
163.817692,-6217.729913,7402.059420,6128.763984
163.818001,1480.411884,12805.562797,5439.278036
163.818311,2368.659014,5773.606348,-18003.244203
163.818620,-3627.009116,14285.974681,-6052.154434
163.818930,-2294.638420,12509.480420,6358.592633
163.819239,3034.844362,9548.656652,-6971.469032
163.819548,-2368.659014,13471.748144,-2528.115143
163.819858,-1480.411884,11325.150913,6741.640382
163.820167,2886.803174,6217.729913,-4903.011187
163.820476,2960.823768,-0.000000,-5132.839837
163.820786,-4367.215058,3404.947333,6741.640382
163.821095,1480.411884,8438.347739,4136.915689
163.821405,962.267725,6883.915261,-5745.716235
163.821714,-4811.338623,11399.171507,7814.174080
163.822023,2146.597232,14137.933492,4673.182538
163.822333,370.102971,10214.842000,-12257.527968
163.822642,-8808.450710,13619.789333,-3677.258390
163.822952,-1258.350101,14211.954086,229.828649
163.823261,5033.400406,9104.533087,-17160.539155
163.823570,-5847.626942,11991.336260,-4673.182538
163.823880,-2442.679609,11991.336260,6741.640382
163.824189,5107.421000,6883.915261,-4366.744339
163.824498,2812.782580,7994.224174,-995.924147
163.824808,-888.247130,8142.265362,13100.233016
163.825117,5403.503377,7031.956449,1378.971896
163.825427,1480.411884,2072.576638,-12717.185267
163.825736,-2664.741391,5847.626942,7277.907231
163.826045,-2368.659014,10658.965565,5515.887586
163.826355,3182.885551,7550.100608,-10801.946522
163.826664,-4293.194464,19689.478057,-6511.811733
163.826973,-2516.700203,13619.789333,-2451.505594
163.827283,3627.009116,11325.150913,-11261.603821
163.827592,-5773.606348,16728.654289,-2528.115143
163.827902,-444.123565,14137.933492,1378.971896
163.828211,4145.153275,9844.739029,-8580.269578
163.828520,1258.350101,5625.565159,1225.752797
163.828830,2442.679609,5551.544565,9039.926876
163.829139,4737.318029,3849.070898,-2604.724693
163.829449,-0.000000,5847.626942,2987.772442
163.829758,-3997.112087,6587.832884,15934.786358
163.830067,1406.391290,5921.647536,-4366.744339
163.830377,5625.565159,7254.018232,-18922.558801
163.830686,-9622.677246,11843.295072,-2451.505594
163.830995,-740.205942,12213.398043,1762.019645
163.831305,6513.812290,9696.697840,-15551.738609
163.831614,-4071.132681,14804.118840,-3370.820191
163.831924,-2886.803174,11177.109724,14096.157163
163.832233,7105.977043,10807.006753,1455.581446
163.832542,-814.226536,12287.418637,-4366.744339
163.832852,-0.000000,10807.006753,5975.544884
163.833161,-1850.514855,9474.636058,-8120.612279
163.833471,-1258.350101,8142.265362,-14632.424012
163.833780,-3182.885551,13397.727550,0.000000
163.834089,-2442.679609,13989.892304,-3447.429741
163.834399,666.185348,14878.139434,-13866.328514
163.834708,3923.091493,6439.791695,-1838.629195
163.835017,-0.000000,1332.370696,7431.126331
163.835327,1184.329507,-2442.679609,1225.752797
163.835636,-1480.411884,3627.009116,8350.440928
163.835946,296.082377,7698.141797,6818.249932
163.836255,-518.144159,7476.080014,-2068.457845
163.836564,2442.679609,13767.830521,-4596.572988
163.836874,-296.082377,15174.221811,-7431.126331
163.837183,1036.288319,13693.809927,-14172.766713
163.837492,-10881.027347,13471.748144,-153.219100
163.837802,296.082377,15322.262999,2528.115143
163.838111,148.041188,14878.139434,-7814.174080
163.838421,222.061783,8808.450710,-2068.457845
163.838730,-592.164754,8290.306550,10955.165621
163.839039,1850.514855,4589.276840,-1302.362347
163.839349,3034.844362,2220.617826,-6128.763984
163.839658,-3330.926739,2590.720797,4443.353888
163.839968,-3034.844362,5699.585753,6205.373534
163.840277,740.205942,12879.583391,-4826.401637
163.840586,1702.473667,10140.821405,-4903.011187
163.840896,-0.000000,9992.780217,-766.095498
163.841205,666.185348,8364.327145,-2834.553343
163.841514,-592.164754,10214.842000,-3447.429741
163.841824,-2368.659014,10362.883188,0.000000
163.842133,1702.473667,16876.695478,-2221.676944
163.842443,-518.144159,15692.365970,-689.485948
163.842752,-592.164754,14878.139434,153.219100
163.843061,4441.235652,14137.933492,-4290.134789
163.843371,1554.432478,4959.379811,-7048.078582
163.843680,-1850.514855,8956.491898,2221.676944
163.843990,-1184.329507,814.226536,8350.440928
163.844299,370.102971,7994.224174,-1915.238745
163.844608,-2442.679609,10658.965565,-306.438199
163.844918,-148.041188,9104.533087,1149.143247
163.845227,1184.329507,7920.203579,-5745.716235
163.845536,-2368.659014,8512.368333,-5592.497135
163.845846,2960.823768,7031.956449,-3600.648841
163.846155,1480.411884,7402.059420,-2987.772442
163.846465,-0.000000,8364.327145,4366.744339
163.846774,-3034.844362,14211.954086,10112.460574
163.847083,8068.244768,13915.871710,-1532.190996
163.847393,-2738.761985,6957.935855,-3217.601092
163.847702,-3552.988522,13249.686362,7124.688131
163.848012,-370.102971,9918.759623,-5898.935335
163.848321,1184.329507,11843.295072,-17160.539155
163.848630,-6513.812290,18505.148550,-459.657299
163.848940,-3108.864956,14211.954086,995.924147
163.849249,3182.885551,11621.233289,-10572.117872
163.849558,1258.350101,10288.862594,-5669.106685
163.849868,2960.823768,2072.576638,4903.011187
163.850177,3182.885551,3775.050304,-995.924147
163.850487,2590.720797,148.041188,5745.716235
163.850796,1332.370696,7031.956449,13942.938064
163.851105,3478.967927,8734.430116,3217.601092
163.851415,-2368.659014,9992.780217,-3140.991542
163.851724,-3627.009116,13767.830521,2145.067394
163.852033,-740.205942,8586.388927,-7584.345430
163.852343,888.247130,13027.624579,-17313.758255
163.852652,-6661.853478,19837.519246,-6588.421283
163.852962,-1628.453072,15174.221811,-3753.867940
163.853271,2590.720797,11769.274478,-5669.106685
163.853580,-2886.803174,16432.571912,6052.154434
163.853890,2294.638420,9104.533087,3524.039291
163.854199,5033.400406,2738.761985,-5056.230287
163.854509,2146.597232,-1850.514855,3600.648841
163.854818,740.205942,6143.709319,7048.078582
163.855127,3997.112087,8364.327145,-2451.505594
163.855437,-592.164754,10658.965565,1838.629195
163.855746,-962.267725,9918.759623,5592.497135
163.856055,962.267725,8216.285956,-4290.134789
163.856365,-1036.288319,6217.729913,-9882.631924
163.856674,-7031.956449,12435.459826,-1455.581446
163.856984,4293.194464,10732.986159,-4903.011187
163.857293,-222.061783,12509.480420,-11261.603821
163.857602,-6217.729913,16358.551318,3140.991542
163.857912,888.247130,17246.798449,4136.915689
163.858221,1850.514855,10510.924376,-6435.202183
163.858531,3182.885551,4811.338623,766.095498
163.858840,2664.741391,4293.194464,6435.202183
163.859149,-888.247130,4663.297435,-2757.943793
163.859459,-5477.523971,8290.306550,4596.572988
163.859768,370.102971,8290.306550,9576.193725
163.860077,4367.215058,9844.739029,-12257.527968
163.860387,2220.617826,4737.318029,-12487.356617
163.860696,-1554.432478,6957.935855,4366.744339
163.861006,-7476.080014,2294.638420,5515.887586
163.861315,-0.000000,11917.315666,-383.047749
163.861625,-2664.741391,15026.180623,1455.581446
163.861935,1850.514855,8586.388927,-3370.820191
163.862244,5255.462188,13323.706956,-2911.162892
163.862554,-3701.029710,12139.377449,4213.525239
163.862863,3627.009116,14952.160028,-4060.306139
163.863173,-666.185348,15322.262999,-5362.668486
163.863482,-4737.318029,14137.933492,4903.011187
163.863792,6735.874072,10066.800811,0.000000
163.864101,3330.926739,7698.141797,-13253.452115
163.864411,-3849.070898,4737.318029,-842.705048
163.864721,-3849.070898,962.267725,9806.022374
163.865030,4737.318029,1184.329507,-3217.601092
163.865340,3627.009116,3701.029710,-5056.230287
163.865649,-3108.864956,13767.830521,8044.002729
163.865959,-1850.514855,7105.977043,7584.345430
163.866268,1184.329507,12879.583391,-4979.620737
163.866578,3404.947333,11251.130318,-6665.030833
163.866887,1628.453072,12065.356855,-5975.544884
163.867197,-4811.338623,13323.706956,-2528.115143
163.867506,-3997.112087,14063.912898,2681.334243
163.867816,962.267725,15470.304188,-2911.162892
163.868126,5995.668130,14211.954086,-10035.851024
163.868435,-3034.844362,5551.544565,-842.705048
163.868745,-3552.988522,7476.080014,5209.449386
163.869054,3256.906145,7846.182985,-4749.792088
163.869364,3627.009116,6365.771101,-6052.154434
163.869673,-666.185348,7476.080014,2528.115143
163.869983,1258.350101,4145.153275,3294.210641
163.870292,7624.121203,8586.388927,-2145.067394
163.870602,-2368.659014,6587.832884,536.266849
163.870912,-1998.556043,7105.977043,2911.162892
163.871221,4367.215058,7476.080014,1378.971896
163.871531,1332.370696,888.247130,-1838.629195
163.871840,-3108.864956,11325.150913,3524.039291
163.872150,-6587.832884,16210.510130,1225.752797
163.872459,1036.288319,15174.221811,-10342.289223
163.872769,3034.844362,17542.880825,-10418.898773
163.873078,-0.000000,13397.727550,-12027.699319
163.873388,-7476.080014,12361.439231,-3524.039291
163.873698,-4071.132681,15470.304188,5669.106685
163.874007,6883.915261,12509.480420,-3830.477490
163.874317,6587.832884,5033.400406,-5209.449386
163.874626,-5773.606348,8734.430116,9729.412825
163.874936,-1776.494261,592.164754,8810.098227
163.875245,9770.718434,-2294.638420,-6281.983084
163.875555,3404.947333,2294.638420,-306.438199
163.875864,-5329.482782,10214.842000,9729.412825
163.876174,3108.864956,12213.398043,-1685.410096
163.876484,-2738.761985,7179.997637,-6741.640382
163.876793,4885.359217,16136.489536,-3294.210641
163.877103,-1924.535449,7624.121203,-10572.117872
163.877412,-2664.741391,7846.182985,-8503.660028
163.877722,-5033.400406,13101.645173,6128.763984
163.878031,4071.132681,14063.912898,-1991.848295
163.878341,3552.988522,11991.336260,-4826.401637
163.878650,-5329.482782,19097.313304,7967.393179
163.878960,1628.453072,9622.677246,1455.581446
163.879269,7624.121203,3923.091493,-10495.508323
163.879579,-3997.112087,4441.235652,-766.095498
163.879889,-3923.091493,9474.636058,4903.011187
163.880198,666.185348,9474.636058,-7201.297681
163.880508,1628.453072,7698.141797,-6205.373534
163.880817,518.144159,12065.356855,1991.848295
163.881127,1554.432478,6735.874072,-3140.991542
163.881436,-2960.823768,4885.359217,-3907.087040
163.881746,2368.659014,8290.306550,2221.676944
163.882055,814.226536,4071.132681,76.609550
163.882365,666.185348,10881.027347,153.219100
163.882675,962.267725,12953.603985,5362.668486
163.882984,2664.741391,7846.182985,3830.477490
163.883294,-3404.947333,10955.047942,2298.286494
163.883603,-5329.482782,12065.356855,0.000000
163.883913,370.102971,10881.027347,-12257.527968
163.884222,2590.720797,14952.160028,-17773.415554
163.884532,-6217.729913,10140.821405,-7277.907231
163.884841,-1924.535449,14211.954086,-1378.971896
163.885151,3849.070898,13989.892304,-1225.752797
163.885461,3256.906145,7920.203579,4060.306139
163.885770,-2590.720797,6069.688724,11644.651570
163.886080,3701.029710,5181.441594,6435.202183
163.886389,8290.306550,1554.432478,-7507.735880
163.886699,3478.967927,6291.750507,-8656.879127
163.887008,-740.205942,6143.709319,4826.401637
163.887318,-2368.659014,10807.006753,7737.564530
163.887627,-3701.029710,13767.830521,4826.401637
163.887937,3256.906145,18505.148550,-6511.811733
163.888246,2146.597232,6513.812290,-11031.775171
163.888556,-5255.462188,6069.688724,-6052.154434
163.888866,-3701.029710,10658.965565,-6665.030833
163.889175,666.185348,13545.768739,-8350.440928
163.889485,296.082377,16136.489536,-2145.067394
163.889794,-0.000000,10214.842000,9806.022374
163.890104,3552.988522,13619.789333,2834.553343
163.890413,-148.041188,5625.565159,1455.581446
163.890723,-296.082377,4071.132681,5439.278036
163.891032,7550.100608,-3552.988522,-3064.381992
163.891342,-1924.535449,7994.224174,-8733.488677
163.891652,-0.000000,11029.068536,4290.134789
163.891961,-5921.647536,10732.986159,4596.572988
163.892271,-1110.308913,11917.315666,-3064.381992
163.892580,148.041188,11103.089130,76.609550
163.892890,2146.597232,11843.295072,-7048.078582
163.893199,-4441.235652,10807.006753,-9806.022374
163.893509,-1332.370696,8734.430116,-2221.676944
163.893818,2442.679609,9178.553681,-4136.915689
163.894128,5921.647536,17690.922014,-3753.867940
163.894438,-1184.329507,14285.974681,7814.174080
163.894747,-2072.576638,8734.430116,14862.252661
163.895057,8660.409521,6957.935855,-153.219100
163.895366,1036.288319,7328.038826,-12487.356617
163.895676,-8512.368333,3108.864956,-1608.800546
163.895985,-3923.091493,6069.688724,0.000000
163.896295,6661.853478,10955.047942,-12717.185267
163.896604,-5255.462188,13101.645173,-4060.306139
163.896914,296.082377,15248.242405,4596.572988
163.897223,2886.803174,12065.356855,-3600.648841
163.897533,3775.050304,3701.029710,-2681.334243
163.897843,-1924.535449,6365.771101,8120.612279
163.898152,-962.267725,8956.491898,4290.134789
163.898462,1924.535449,10214.842000,-306.438199
163.898771,4293.194464,13175.665768,1838.629195
163.899081,666.185348,11843.295072,-5975.544884
163.899390,-6143.709319,14137.933492,-4903.011187
163.899700,-3775.050304,12435.459826,1915.238745
163.900009,7105.977043,9770.718434,-13406.671215
163.900319,4811.338623,4959.379811,-13866.328514
163.900629,-5551.544565,5699.585753,7584.345430
163.900938,-5773.606348,2442.679609,15092.081311
163.901248,3849.070898,11325.150913,5439.278036
163.901557,4737.318029,4663.297435,383.047749
163.901867,2072.576638,7920.203579,-536.266849
163.902176,-740.205942,10658.965565,-5822.325785
163.902486,-4293.194464,10732.986159,-8733.488677
163.902795,2220.617826,13841.851115,-5745.716235
163.903105,-592.164754,14285.974681,-3600.648841
163.903415,-888.247130,14878.139434,2298.286494
163.903724,-4885.359217,13101.645173,5056.230287
163.904034,5551.544565,5107.421000,-2987.772442
163.904343,3256.906145,6809.894666,-5898.935335
163.904653,-6365.771101,5255.462188,1685.410096
163.904962,-2960.823768,5995.668130,1608.800546
163.905272,444.123565,8290.306550,-3907.087040
163.905581,-962.267725,10510.924376,0.000000
163.905891,4071.132681,15396.283594,-5822.325785
163.906200,3404.947333,10955.047942,-12640.575717
163.906510,-1036.288319,2590.720797,2374.896044
163.906820,-1554.432478,4367.215058,11414.822920
163.907129,2146.597232,8142.265362,-995.924147
163.907439,2738.761985,11103.089130,0.000000
163.907748,-1258.350101,9474.636058,8503.660028
163.908058,-3182.885551,4515.256246,459.657299
163.908367,1184.329507,12287.418637,-10648.727422
163.908677,-2664.741391,15544.324782,-9422.974625
163.908986,2442.679609,10955.047942,-12410.747068
163.909296,-2738.761985,9252.574275,-4673.182538
163.909606,-6661.853478,14285.974681,6741.640382
163.909915,3182.885551,14878.139434,1762.019645
163.910225,8882.471304,9696.697840,-7507.735880
163.910534,814.226536,1702.473667,4596.572988
163.910844,-2146.597232,1776.494261,13713.109414
163.911153,-3478.967927,7920.203579,1302.362347
163.911463,-370.102971,11251.130318,-7967.393179
163.911772,1258.350101,14952.160028,-3140.991542
163.912082,4515.256246,12139.377449,-9882.631924
163.912392,-5181.441594,11251.130318,-4519.963438
163.912701,-5847.626942,13619.789333,3294.210641
163.913011,4367.215058,4071.132681,-3064.381992
163.913320,4885.359217,7698.141797,-2757.943793
163.913630,-5847.626942,11029.068536,11721.261119
163.913939,-0.000000,8586.388927,10035.851024
163.914249,5551.544565,12879.583391,-6435.202183
163.914558,-3404.947333,8216.285956,-4443.353888
163.914868,-1406.391290,11251.130318,-2298.286494
163.915177,-296.082377,13767.830521,-16241.224558
163.915487,-1628.453072,10066.800811,-7737.564530
163.915797,-222.061783,12805.562797,4213.525239
163.916106,3849.070898,8660.409521,-4673.182538
163.916416,3997.112087,9844.739029,-2681.334243
163.916725,-7402.059420,7550.100608,14325.985813
163.917035,-370.102971,-1406.391290,12487.356617
163.917344,4885.359217,7624.121203,-5209.449386
163.917654,-4145.153275,9178.553681,-5515.887586
163.917963,-740.205942,13323.706956,-11261.603821
163.918273,1184.329507,11917.315666,-15321.909960
163.918583,814.226536,10584.944971,-995.924147
163.918892,1628.453072,16580.613101,3600.648841
163.919202,3182.885551,14063.912898,-536.266849
163.919511,-1184.329507,7994.224174,10495.508323
163.919821,-4145.153275,6513.812290,13483.280765
163.920130,4515.256246,6661.853478,-8656.879127
163.920440,6809.894666,7179.997637,-17696.806004
163.920749,-8290.306550,8290.306550,-2604.724693
163.921059,-6365.771101,11103.089130,4596.572988
163.921369,3997.112087,13989.892304,-5515.887586
163.921678,-1628.453072,16062.468941,-383.047749
163.921988,4219.173869,9178.553681,1762.019645
163.922297,-2146.597232,1480.411884,-2221.676944
163.922607,-3775.050304,5921.647536,2145.067394
163.922916,666.185348,5403.503377,-842.705048
163.923226,6661.853478,9992.780217,-8656.879127
163.923535,592.164754,9474.636058,2528.115143
163.923845,-814.226536,13101.645173,14096.157163
163.924154,-888.247130,10288.862594,766.095498
163.924464,-2886.803174,3404.947333,-4673.182538
163.924774,-3182.885551,4811.338623,0.000000
163.925083,4145.153275,7624.121203,-11031.775171
163.925393,-2442.679609,6365.771101,-14555.814462
163.925702,-5181.441594,19023.292709,2298.286494
163.926012,-444.123565,11029.068536,3064.381992
163.926321,3775.050304,10510.924376,-5132.839837
163.926631,1110.308913,11695.253884,4290.134789
163.926940,-5403.503377,11029.068536,4136.915689
163.927250,6217.729913,6513.812290,-6588.421283
163.927560,2886.803174,3552.988522,-3907.087040
163.927869,-2664.741391,4441.235652,0.000000
163.928179,-2516.700203,10214.842000,-3064.381992
163.928488,-3552.988522,10214.842000,383.047749
163.928798,3923.091493,13693.809927,1685.410096
163.929107,6439.791695,11991.336260,-6358.592633
163.929417,-1776.494261,10807.006753,-6741.640382
163.929726,-13323.706956,11917.315666,2911.162892
163.930036,5255.462188,7105.977043,-5132.839837
163.930346,4071.132681,3775.050304,-13330.061665
163.930655,-5625.565159,8808.450710,2145.067394
163.930965,-3182.885551,7994.224174,7967.393179
163.931274,8438.347739,8882.471304,-4443.353888
163.931584,3997.112087,5995.668130,-1838.629195
163.931893,-2368.659014,10807.006753,8733.488677
163.932203,-3997.112087,12139.377449,0.000000
163.932512,-3701.029710,10140.821405,-8656.879127
163.932822,-2368.659014,11473.192101,-5975.544884
163.933131,5625.565159,7772.162391,-13253.452115
163.933441,-3923.091493,7402.059420,-8886.707777
163.933751,-6365.771101,12731.542202,11414.822920
163.934060,1776.494261,4219.173869,7354.516781
163.934370,4737.318029,9326.594869,-5362.668486
163.934679,-3330.926739,10214.842000,4366.744339
163.934989,814.226536,8364.327145,4749.792088
163.935298,2664.741391,4737.318029,-12947.013916
163.935608,3923.091493,11695.253884,-5669.106685
163.935917,-4293.194464,15766.386565,1225.752797
163.936227,-5995.668130,13397.727550,-4979.620737
163.936537,888.247130,9178.553681,-2911.162892
163.936846,1480.411884,10214.842000,-1915.238745
163.937156,-1776.494261,8808.450710,-6818.249932
163.937465,-74.020594,5329.482782,-3447.429741
163.937775,-2960.823768,8660.409521,2068.457845
163.938084,1850.514855,8290.306550,-536.266849
163.938394,3478.967927,10881.027347,-1072.533697
163.938703,-148.041188,13841.851115,1685.410096
163.939013,5403.503377,9696.697840,-1762.019645
163.939323,1332.370696,6365.771101,-1685.410096
163.939632,-5181.441594,10807.006753,3830.477490
163.939942,2146.597232,7105.977043,-5439.278036
163.940251,3034.844362,6735.874072,-7277.907231
163.940561,1554.432478,6439.791695,2374.896044
163.940870,-3849.070898,8438.347739,8044.002729
163.941180,-1554.432478,16358.551318,76.609550
163.941489,-814.226536,10214.842000,-3447.429741
163.941799,1332.370696,12361.439231,-4519.963438
163.942108,-814.226536,8586.388927,-6971.469032
163.942418,-3404.947333,15544.324782,-4673.182538
163.942728,-1110.308913,17394.839637,-2451.505594
163.943037,6439.791695,7328.038826,-5132.839837
163.943347,-3775.050304,7624.121203,2451.505594
163.943656,-3775.050304,10732.986159,11491.432470
163.943966,5403.503377,4737.318029,-766.095498
163.944275,5255.462188,6809.894666,-6818.249932
163.944585,-3034.844362,4885.359217,3524.039291
163.944894,-3182.885551,5699.585753,229.828649
163.945204,4515.256246,11325.150913,-11721.261119
163.945514,3701.029710,6587.832884,-1991.848295
163.945823,-4959.379811,9696.697840,6971.469032
163.946133,740.205942,9104.533087,919.314598
163.946442,-1998.556043,10214.842000,-2221.676944
163.946752,-1998.556043,10140.821405,1915.238745
163.947061,4737.318029,9104.533087,-6435.202183
163.947371,3701.029710,8290.306550,-10572.117872
163.947680,-8734.430116,16654.633695,1455.581446
163.947990,-0.000000,10955.047942,2987.772442
163.948300,2664.741391,10955.047942,-5056.230287
163.948609,-2220.617826,10362.883188,2911.162892
163.948919,2516.700203,12509.480420,3140.991542
163.949228,-1480.411884,3404.947333,-7890.783629
163.949538,-1554.432478,2516.700203,842.705048
163.949847,-2220.617826,6291.750507,0.000000
163.950157,6661.853478,9992.780217,-16011.395908
163.950466,2146.597232,6957.935855,-1991.848295
163.950776,-6883.915261,7550.100608,18769.339701
163.951085,4145.153275,8586.388927,919.314598
163.951395,8290.306550,7179.997637,-6818.249932
163.951705,-7846.182985,10732.986159,7814.174080
163.952014,-5477.523971,10066.800811,2757.943793
163.952324,4219.173869,12657.521608,-16700.881856
163.952633,-2294.638420,11621.233289,-11414.822920
163.952943,-4293.194464,16210.510130,-1838.629195
163.953252,-2886.803174,15248.242405,-7201.297681
163.953562,-814.226536,14063.912898,-536.266849
163.953871,1924.535449,10288.862594,7124.688131
163.954181,5995.668130,6587.832884,-5745.716235
163.954491,296.082377,296.082377,-1302.362347
163.954800,-5773.606348,3775.050304,12410.747068
163.955110,3330.926739,4663.297435,536.266849
163.955419,10214.842000,5995.668130,-12334.137518
163.955729,740.205942,11547.212695,2451.505594
163.956038,-3034.844362,7031.956449,8810.098227
163.956348,3108.864956,8290.306550,-2145.067394
163.956657,3182.885551,11473.192101,-2987.772442
163.956967,-3182.885551,13619.789333,-1991.848295
163.957277,-2368.659014,9326.594869,-6052.154434
163.957586,2368.659014,13619.789333,-5592.497135
163.957896,-2072.576638,11695.253884,-1762.019645
163.958205,-1184.329507,17024.736666,-1915.238745
163.958515,888.247130,12139.377449,-612.876398
163.958824,-0.000000,14730.098246,229.828649
163.959134,-370.102971,7994.224174,2068.457845
163.959443,-1110.308913,5847.626942,-766.095498
163.959753,-3034.844362,8438.347739,-1149.143247
163.960062,7254.018232,6069.688724,-8580.269578
163.960372,370.102971,3182.885551,-4290.134789
163.960681,-5255.462188,7254.018232,5132.839837
163.960991,5329.482782,8586.388927,8044.002729
163.961300,3552.988522,7994.224174,0.000000
163.961609,1480.411884,6661.853478,689.485948
163.961919,-7328.038826,6143.709319,5745.716235
163.962228,-1258.350101,10807.006753,-766.095498
163.962538,1110.308913,10436.903782,-11414.822920
163.962847,1554.432478,15840.407159,-10725.336972
163.963157,-518.144159,13767.830521,-3753.867940
163.963466,-6661.853478,14730.098246,2528.115143
163.963776,-2294.638420,16210.510130,1915.238745
163.964085,3256.906145,8734.430116,-4979.620737
163.964394,2664.741391,8882.471304,-7124.688131
163.964704,-5107.421000,6291.750507,2221.676944
163.965013,4663.297435,3849.070898,306.438199
163.965323,3108.864956,-1110.308913,0.000000
163.965632,1924.535449,5847.626942,9039.926876
163.965942,-3330.926739,9992.780217,6052.154434
163.966251,4959.379811,9548.656652,-5286.058936
163.966561,3701.029710,4959.379811,-2221.676944
163.966870,518.144159,6291.750507,2298.286494
163.967179,-3552.988522,16580.613101,-4136.915689
163.967489,-1924.535449,17172.777854,-5592.497135
163.967798,-2146.597232,16876.695478,-2374.896044
163.968108,2368.659014,17468.860231,-9039.926876
163.968417,2442.679609,11473.192101,-6435.202183
163.968727,-5181.441594,10362.883188,4826.401637
163.969036,-1036.288319,7105.977043,2604.724693
163.969346,3997.112087,8438.347739,-1915.238745
163.969655,2368.659014,9548.656652,2987.772442
163.969964,-3923.091493,7105.977043,6052.154434
163.970274,1554.432478,8142.265362,-3677.258390
163.970583,2294.638420,888.247130,-7354.516781
163.970893,-74.020594,3330.926739,-5822.325785
163.971202,-4959.379811,7772.162391,-2528.115143
163.971512,4737.318029,7846.182985,-612.876398
163.971821,-1184.329507,9548.656652,4903.011187
163.972131,518.144159,12139.377449,4443.353888
163.972440,-3404.947333,10807.006753,1685.410096
163.972749,-2590.720797,12435.459826,-1225.752797
163.973059,888.247130,13693.809927,-9422.974625
163.973368,1924.535449,14137.933492,-10801.946522
163.973678,-1036.288319,17912.983796,-3753.867940
163.973987,-1110.308913,14952.160028,-2834.553343
163.974297,148.041188,11769.274478,-1302.362347
163.974606,-1036.288319,5773.606348,2068.457845
163.974916,1258.350101,6291.750507,306.438199
163.975225,-1702.473667,2442.679609,306.438199
163.975534,4737.318029,3404.947333,383.047749
163.975844,-74.020594,4737.318029,1149.143247
163.976153,5477.523971,9696.697840,-919.314598
163.976463,740.205942,10807.006753,-2298.286494
163.976772,2146.597232,15544.324782,-2068.457845
163.977082,3627.009116,6069.688724,-1762.019645
163.977391,-0.000000,7105.977043,1455.581446
163.977700,-4737.318029,12435.459826,2681.334243
163.978010,2516.700203,12657.521608,-6588.421283
163.978319,-0.000000,14508.036463,-6358.592633
163.978629,-5255.462188,10807.006753,-2145.067394
163.978938,740.205942,15248.242405,-6588.421283
163.979248,-222.061783,12583.501014,-11874.480219
163.979557,-4589.276840,5847.626942,-842.705048
163.979867,-3627.009116,6069.688724,6741.640382
163.980176,5625.565159,9918.759623,-3983.696590
163.980485,7105.977043,2960.823768,-1915.238745
163.980795,-1036.288319,2590.720797,11644.651570
163.981104,814.226536,-518.144159,10035.851024
163.981414,962.267725,6291.750507,-842.705048
163.981723,-2812.782580,13767.830521,-2834.553343
163.982033,2368.659014,13101.645173,-9422.974625
163.982342,1554.432478,10066.800811,-6741.640382
163.982652,-7920.203579,18135.045579,-2221.676944
163.982961,4737.318029,11547.212695,-5515.887586
163.983270,1036.288319,10881.027347,-6281.983084
163.983580,-1776.494261,8068.244768,12027.699319
163.983889,-2294.638420,6809.894666,16471.053207
163.984199,3404.947333,11547.212695,-3370.820191
163.984508,2442.679609,4885.359217,-7124.688131
163.984818,-6513.812290,11621.233289,-2145.067394
163.985127,-3701.029710,11177.109724,-9576.193725
163.985437,2886.803174,12361.439231,-13023.623466
163.985746,-3404.947333,14730.098246,0.000000
163.986055,2220.617826,5699.585753,2681.334243
163.986365,8216.285956,5477.523971,-2451.505594
163.986674,592.164754,-518.144159,4749.792088
163.986984,1110.308913,-370.102971,11031.775171
163.987293,2738.761985,1924.535449,3907.087040
163.987603,3552.988522,5477.523971,3370.820191
163.987912,-1850.514855,12509.480420,4443.353888
163.988222,-3404.947333,16580.613101,-6511.811733
163.988531,-2368.659014,13619.789333,-11261.603821
163.988840,-74.020594,14730.098246,-9269.755526
163.989150,-148.041188,13841.851115,-10418.898773
163.989459,-7031.956449,11251.130318,0.000000
163.989769,-4219.173869,13101.645173,6358.592633
163.990078,5107.421000,7550.100608,1072.533697
163.990388,6735.874072,6883.915261,-3294.210641
163.990697,-4737.318029,7550.100608,10035.851024
163.991006,-6143.709319,4145.153275,13483.280765
163.991316,2516.700203,5255.462188,-3064.381992
163.991625,962.267725,5699.585753,-9116.536426
163.991935,592.164754,10732.986159,-5592.497135
163.992244,-2738.761985,14137.933492,-3907.087040
163.992554,1628.453072,10881.027347,-4443.353888
163.992863,1998.556043,7105.977043,1378.971896
163.993173,2072.576638,9474.636058,383.047749
163.993482,-3849.070898,6069.688724,4366.744339
163.993791,-6439.791695,7254.018232,8503.660028
163.994101,5033.400406,9474.636058,-5515.887586
163.994410,10066.800811,10807.006753,-12487.356617
163.994720,-8438.347739,9326.594869,2834.553343
163.995029,-5995.668130,9918.759623,8733.488677
163.995339,2516.700203,10214.842000,-4979.620737
163.995648,1850.514855,11399.171507,-6435.202183
163.995958,-1776.494261,12657.521608,-689.485948
163.996267,518.144159,11325.150913,-4519.963438
163.996576,3849.070898,5255.462188,-6128.763984
163.996886,-740.205942,4737.318029,0.000000
163.997195,-6661.853478,7254.018232,4749.792088
163.997505,-148.041188,10881.027347,2834.553343
163.997814,3330.926739,13027.624579,-2834.553343
163.998124,4811.338623,9770.718434,-8580.269578
163.998433,1258.350101,7772.162391,-2451.505594
163.998743,-2664.741391,9622.677246,6894.859482
163.999052,1924.535449,7994.224174,-689.485948
163.999361,5403.503377,9844.739029,-5132.839837
163.999671,-1406.391290,12657.521608,2221.676944
163.999980,592.164754,9178.553681,459.657299
164.000290,-444.123565,4959.379811,-7890.783629
164.000599,2146.597232,6069.688724,-2374.896044
164.000909,-4885.359217,4959.379811,2298.286494
164.001218,-4441.235652,11843.295072,4519.963438
164.001528,1850.514855,13619.789333,-3140.991542
164.001837,3256.906145,15248.242405,-10878.556072
164.002146,1924.535449,9252.574275,-8656.879127
164.002456,-444.123565,13693.809927,383.047749
164.002765,-2886.803174,8882.471304,2298.286494
164.003075,4959.379811,6587.832884,-459.657299
164.003384,2664.741391,9474.636058,5132.839837
164.003694,1628.453072,7402.059420,9882.631924
164.004003,-3997.112087,2738.761985,5669.106685
164.004312,3182.885551,8734.430116,-3294.210641
164.004622,-2368.659014,8438.347739,-7737.564530
164.004931,-444.123565,10436.903782,-8120.612279
164.005241,-5995.668130,9400.615463,-7890.783629
164.005550,1776.494261,14656.077652,-3907.087040
164.005860,-2886.803174,17764.942608,-2911.162892
164.006169,2812.782580,13841.851115,-612.876398
164.006479,1776.494261,7698.141797,-1455.581446
164.006788,1332.370696,4885.359217,1762.019645
164.007097,-3478.967927,4219.173869,6052.154434
164.007407,-1480.411884,11917.315666,-536.266849
164.007716,-1110.308913,15100.201217,-9346.365076
164.008026,6217.729913,14211.954086,-17696.806004
164.008335,-1036.288319,14359.995275,-13100.233016
164.008645,-2294.638420,11917.315666,-6052.154434
164.008954,-3404.947333,5699.585753,-3753.867940
164.009264,592.164754,4293.194464,-5056.230287
164.009573,888.247130,4071.132681,-3370.820191
164.009882,-1702.473667,5255.462188,-2451.505594
164.010192,5477.523971,8734.430116,-7660.954980
164.010501,5847.626942,6513.812290,-13176.842566
164.010811,-1628.453072,7179.997637,-4749.792088
164.011120,-1850.514855,10140.821405,-766.095498
164.011430,1776.494261,12731.542202,-5898.935335
164.011739,2960.823768,13545.768739,-10878.556072
164.012049,-1850.514855,9252.574275,-11031.775171
164.012358,962.267725,9178.553681,-11108.384721
164.012667,-148.041188,9104.533087,-13636.499864
164.012977,370.102971,7105.977043,-12947.013916
164.013286,3997.112087,12805.562797,-9959.241474
164.013596,4441.235652,11695.253884,-5056.230287
164.013905,-5107.421000,8808.450710,-1532.190996
164.014215,-2368.659014,6957.935855,-4290.134789
164.014524,5847.626942,6143.709319,-18233.072852
164.014834,1110.308913,8734.430116,-20071.702048
164.015143,-3182.885551,8882.471304,-7967.393179
164.015452,2738.761985,11473.192101,-8733.488677
164.015762,6587.832884,11547.212695,-11261.603821
164.016071,-222.061783,12361.439231,-1915.238745
164.016381,-10955.047942,5255.462188,3064.381992
164.016690,-1110.308913,6661.853478,-7967.393179
164.017000,3182.885551,4811.338623,-20761.187996
164.017309,-1924.535449,9696.697840,-20914.407095
164.017619,-7105.977043,9992.780217,-13100.233016
164.017928,-1702.473667,18949.272115,-13483.280765
164.018237,3256.906145,17987.004391,-15781.567259
164.018547,3627.009116,13027.624579,-6894.859482
164.018856,-4737.318029,7179.997637,842.705048
164.019166,-0.000000,4515.256246,-3447.429741
164.019475,2664.741391,2664.741391,-12793.794817
164.019785,2072.576638,666.185348,-16930.710506
164.020094,-6291.750507,9474.636058,-8886.707777
164.020403,1110.308913,14137.933492,-9652.803275
164.020713,2368.659014,13323.706956,-18003.244203
164.021022,6217.729913,10510.924376,-15321.909960
164.021332,-7105.977043,6217.729913,-4366.744339
164.021641,-1776.494261,6217.729913,-2757.943793
164.021951,3330.926739,8364.327145,-13636.499864
164.022260,9400.615463,9844.739029,-16317.834107
164.022570,-3478.967927,10881.027347,-7890.783629
164.022879,-3775.050304,11103.089130,-1608.800546
164.023188,3701.029710,14285.974681,-12104.308868
164.023498,8512.368333,11843.295072,-17620.196454
164.023807,-1554.432478,14211.954086,-8273.831378
164.024117,-5921.647536,11177.109724,-2298.286494
164.024426,-2368.659014,11251.130318,-9193.145976
164.024736,3701.029710,10436.903782,-20148.311597
164.025045,-666.185348,8290.306550,-16317.834107
164.025355,-4959.379811,12287.418637,-4366.744339
164.025664,-2294.638420,11251.130318,-5745.716235
164.025973,2886.803174,13027.624579,-14019.547613
164.026283,2886.803174,8364.327145,-14709.033562
164.026592,740.205942,5625.565159,-4979.620737
164.026902,-1184.329507,3775.050304,-3217.601092
164.027211,740.205942,2368.659014,-3677.258390
164.027521,-1702.473667,6661.853478,-3600.648841
164.027830,-1184.329507,9178.553681,-6435.202183
164.028140,-1850.514855,13323.706956,-13789.718964
164.028449,-1776.494261,13915.871710,-15092.081311
164.028758,-1776.494261,16358.551318,-14632.424012
164.029068,-3182.885551,15914.427753,-14709.033562
164.029377,-3923.091493,11695.253884,-13713.109414
164.029687,-3034.844362,7550.100608,-12334.137518
164.029996,962.267725,5255.462188,-9806.022374
164.030306,5551.544565,6069.688724,-5669.106685
164.030615,1628.453072,5477.523971,-1072.533697
164.030925,-444.123565,4441.235652,1378.971896
164.031234,296.082377,8438.347739,-1915.238745
164.031543,888.247130,12435.459826,-11031.775171
164.031853,518.144159,14063.912898,-19765.263848
164.032162,-814.226536,13619.789333,-21297.454844
164.032472,-4219.173869,11177.109724,-17850.025103
164.032781,-444.123565,9696.697840,-14632.424012
164.033091,740.205942,8290.306550,-10265.679673
164.033400,814.226536,10288.862594,-3140.991542
164.033709,-2590.720797,9474.636058,2068.457845
164.034019,3330.926739,12065.356855,-6818.249932
164.034328,7328.038826,9844.739029,-12947.013916
164.034638,2072.576638,9474.636058,-13023.623466
164.034947,-4737.318029,10584.944971,-8197.221829
164.035257,888.247130,12731.542202,-8350.440928
164.035566,-2294.638420,11399.171507,-15168.690860
164.035876,-2442.679609,12213.398043,-14785.643111
164.036185,-4145.153275,9104.533087,-13866.328514
164.036494,1554.432478,7772.162391,-19612.044749
164.036804,-74.020594,6587.832884,-15245.300410
164.037113,-888.247130,6883.915261,-8427.050478
164.037423,-222.061783,8438.347739,-4213.525239
164.037732,3775.050304,8660.409521,-6588.421283
164.038042,2516.700203,8882.471304,-7201.297681
164.038351,-518.144159,5921.647536,-6358.592633
164.038661,-1924.535449,7105.977043,-8503.660028
164.038970,-1628.453072,11547.212695,-15092.081311
164.039279,1480.411884,13989.892304,-19535.435199
164.039589,666.185348,13175.665768,-15321.909960
164.039898,-2072.576638,13323.706956,-8427.050478
164.040208,-222.061783,10807.006753,-5898.935335
164.040517,814.226536,8216.285956,-8963.317327
164.040827,592.164754,4441.235652,-7048.078582
164.041136,-2220.617826,4959.379811,-6052.154434
164.041446,-1850.514855,8290.306550,-8044.002729
164.041755,888.247130,12953.603985,-14325.985813
164.042064,1184.329507,14878.139434,-17620.196454
164.042374,-0.000000,13545.768739,-13942.938064
164.042683,-1776.494261,11769.274478,-11338.213370
164.042993,2590.720797,7920.203579,-10035.851024
164.043302,2220.617826,3330.926739,-7967.393179
164.043612,1184.329507,-74.020594,-3830.477490
164.043921,-592.164754,-370.102971,-459.657299
164.044231,-1184.329507,3330.926739,-4060.306139
164.044540,-0.000000,8438.347739,-11414.822920
164.044849,222.061783,13767.830521,-15321.909960
164.045159,-1332.370696,15692.365970,-13330.061665
164.045468,-1924.535449,17468.860231,-16241.224558
164.045778,-0.000000,14211.954086,-17160.539155
164.046087,444.123565,10510.924376,-12870.404366
164.046397,-2368.659014,7624.121203,-5669.106685
164.046706,-2368.659014,7031.956449,-2604.724693
164.047016,1258.350101,9548.656652,-7201.297681
164.047325,2812.782580,9992.780217,-12640.575717
164.047634,370.102971,11621.233289,-14325.985813
164.047944,-444.123565,9548.656652,-14479.204912
164.048253,-74.020594,9918.759623,-11721.261119
164.048563,296.082377,9178.553681,-11184.994271
164.048872,1332.370696,6217.729913,-8580.269578
164.049182,222.061783,5255.462188,-4903.011187
164.049491,222.061783,1258.350101,-4366.744339
164.049800,2590.720797,3997.112087,-8656.879127
164.050110,1332.370696,9178.553681,-9116.536426
164.050419,-888.247130,12879.583391,-5822.325785
164.050729,222.061783,15914.427753,-9116.536426
164.051038,1776.494261,16506.592507,-13942.938064
164.051348,-0.000000,15026.180623,-13253.452115
164.051657,-3256.906145,10807.006753,-9806.022374
164.051967,-1776.494261,9326.594869,-9806.022374
164.052276,888.247130,8734.430116,-9882.631924
164.052585,-296.082377,9844.739029,-7814.174080
164.052895,-518.144159,9474.636058,-5592.497135
164.053204,962.267725,7994.224174,-7354.516781
164.053514,296.082377,7179.997637,-9193.145976
164.053823,-0.000000,7179.997637,-6052.154434
164.054133,444.123565,5699.585753,-6435.202183
164.054442,-1110.308913,6957.935855,-4366.744339
164.054752,-518.144159,7031.956449,-3830.477490
164.055061,962.267725,8142.265362,-9039.926876
164.055370,2368.659014,8956.491898,-8580.269578
164.055680,-962.267725,11029.068536,-4749.792088
164.055989,-3627.009116,11843.295072,-2298.286494
164.056299,-1480.411884,13101.645173,-7431.126331
164.056608,-4367.215058,12065.356855,-10955.165621
164.056918,-3775.050304,11103.089130,-9269.755526
164.057227,-3997.112087,10881.027347,-11414.822920
164.057537,-3256.906145,11621.233289,-14325.985813
164.057846,-2442.679609,13249.686362,-12257.527968
164.058155,-518.144159,13101.645173,-12870.404366
164.058465,222.061783,13027.624579,-12717.185267
164.058774,-444.123565,12509.480420,-9269.755526
164.059084,-444.123565,13693.809927,-8886.707777
164.059393,-1628.453072,13619.789333,-12870.404366
164.059703,-0.000000,10807.006753,-14325.985813
164.060012,-0.000000,9104.533087,-16700.881856
164.060322,2072.576638,7328.038826,-19152.387450
164.060631,2516.700203,6957.935855,-15858.176809
164.060940,3256.906145,6735.874072,-7967.393179
164.061250,3182.885551,5995.668130,-5439.278036
164.061559,2812.782580,3478.967927,-2604.724693
164.061869,10436.903782,-1184.329507,-2604.724693
164.062178,-9030.512492,-1480.411884,-5898.935335
164.062488,-0.000000,11251.130318,-15781.567259
164.062797,-4663.297435,11917.315666,-23595.741338
164.063106,1628.453072,18505.148550,-28881.800275
164.063416,-666.185348,16210.510130,-24055.398637
164.063725,-3775.050304,14211.954086,-14402.595362
164.064035,3775.050304,13027.624579,-11644.651570
164.064344,1036.288319,6143.709319,-6435.202183
164.064653,3108.864956,6587.832884,-2834.553343
164.064963,15026.180623,-8290.306550,-7431.126331
164.065272,-31162.670158,-1628.453072,-4903.011187
164.065582,17616.901420,27239.578666,-536.266849
164.065891,9104.533087,14804.118840,-21910.331243
164.066200,12805.562797,10362.883188,-34167.859211
164.066510,-24352.775492,6587.832884,-10801.946522
164.066819,-11843.295072,15248.242405,-3830.477490
164.067129,4885.359217,15322.262999,-22140.159892
164.067438,4441.235652,11251.130318,-20607.968896
164.067748,-5995.668130,7920.203579,-7584.345430
164.068057,-5625.565159,-2072.576638,-6818.249932
164.068366,-2442.679609,11473.192101,-11568.042020
164.068676,3404.947333,16432.571912,-10342.289223
164.068985,6069.688724,13693.809927,-16624.272307
164.069295,-2960.823768,8142.265362,-6205.373534
164.069604,-8364.327145,10362.883188,4290.134789
164.069913,-296.082377,8142.265362,-15398.519510
164.070223,3849.070898,3701.029710,-32788.887314
164.070532,-0.000000,8068.244768,-17007.320056
164.070842,-7624.121203,5699.585753,-4596.572988
164.071151,1554.432478,8438.347739,-10342.289223
164.071461,8734.430116,10214.842000,-11797.870669
164.071770,4811.338623,6735.874072,-4903.011187
164.072079,-5329.482782,2664.741391,6971.469032
164.072389,-2294.638420,7846.182985,1302.362347
164.072698,3034.844362,8956.491898,-13942.938064
164.073008,6735.874072,14582.057057,-25204.541884
164.073317,-4071.132681,11399.171507,-15628.348159
164.073626,-2368.659014,17098.757260,-8350.440928
164.073936,3256.906145,18061.024985,-11721.261119
164.074245,1480.411884,16136.489536,-11797.870669
164.074555,-3330.926739,10214.842000,-2987.772442
164.074864,-2220.617826,5847.626942,-2451.505594
164.075173,1776.494261,9030.512492,-11414.822920
164.075483,666.185348,5921.647536,-16854.100956
164.075792,3627.009116,8882.471304,-14479.204912
164.076102,1036.288319,9326.594869,-4366.744339
164.076411,-1184.329507,15174.221811,2221.676944
164.076721,962.267725,10584.944971,-1378.971896
164.077030,1406.391290,12361.439231,-7660.954980
164.077339,-592.164754,7179.997637,-9499.584175
164.077649,-4515.256246,4145.153275,-11108.384721
164.077958,-3404.947333,4145.153275,-9806.022374
164.078268,-2738.761985,11029.068536,-12717.185267
164.078577,-1036.288319,14063.912898,-9806.022374
164.078886,-2220.617826,14285.974681,-8197.221829
164.079196,-370.102971,13323.706956,-8197.221829
164.079505,1110.308913,10955.047942,-4060.306139
164.079815,-2072.576638,6957.935855,-2834.553343
164.080124,-1480.411884,3478.967927,-6205.373534
164.080434,-4663.297435,7031.956449,-9269.755526
164.080743,3034.844362,13767.830521,-14709.033562
164.081052,5033.400406,11473.192101,-19075.777900
164.081362,-1406.391290,16062.468941,-13176.842566
164.081671,-1332.370696,15692.365970,-8120.612279
164.081981,-148.041188,5847.626942,-12640.575717
164.082290,-1184.329507,6957.935855,-11184.994271
164.082599,3701.029710,4145.153275,-9576.193725
164.082909,-2738.761985,4367.215058,-7124.688131
164.083218,-1776.494261,7476.080014,-4749.792088
164.083528,-74.020594,11029.068536,-11721.261119
164.083837,3701.029710,14137.933492,-18845.949251
164.084147,4145.153275,10732.986159,-18692.730151
164.084456,-7105.977043,10732.986159,-10648.727422
164.084765,-148.041188,15396.283594,-11644.651570
164.085075,3997.112087,9030.512492,-21220.845295
164.085384,3478.967927,8290.306550,-17083.929605
164.085694,-74.020594,2960.823768,-6971.469032
164.086003,-2812.782580,6143.709319,-459.657299
164.086312,1850.514855,8216.285956,-7660.954980
164.086622,4959.379811,10955.047942,-17620.196454
164.086931,3256.906145,10658.965565,-16624.272307
164.087241,-5477.523971,9696.697840,-10648.727422
164.087550,-4885.359217,12657.521608,-10955.165621
164.087859,-1110.308913,10807.006753,-19535.435199
164.088169,4663.297435,9104.533087,-18845.949251
164.088478,-5921.647536,3330.926739,-9346.365076
164.088788,-1850.514855,8216.285956,229.828649
164.089097,-2590.720797,8364.327145,-4213.525239
164.089407,8290.306550,11251.130318,-14325.985813
164.089716,-6883.915261,10436.903782,-11644.651570
164.090025,222.061783,9030.512492,-9882.631924
164.090335,-6439.791695,12361.439231,-16088.005458
164.090644,8068.244768,13545.768739,-22599.817191
164.090954,962.267725,14508.036463,-18156.463303
164.091263,444.123565,5329.482782,-5362.668486
164.091572,-4589.276840,8142.265362,306.438199
164.091882,5921.647536,5255.462188,-7890.783629
164.092191,7254.018232,8956.491898,-13176.842566
164.092501,-0.000000,1554.432478,-9269.755526
164.092810,-1628.453072,7328.038826,-2911.162892
164.093120,1776.494261,5033.400406,-9039.926876
164.093429,4441.235652,9696.697840,-10801.946522
164.093738,-1998.556043,11103.089130,-459.657299
164.094048,-2516.700203,6661.853478,-4519.963438
164.094357,1480.411884,6587.832884,-11031.775171
164.094667,-1036.288319,3108.864956,-11031.775171
164.094976,1702.473667,9030.512492,-7814.174080
164.095285,-1406.391290,10140.821405,-4443.353888
164.095595,444.123565,14137.933492,-4366.744339
164.095904,-1554.432478,10510.924376,-4749.792088
164.096214,5921.647536,13545.768739,-7814.174080
164.096523,-444.123565,6957.935855,-8963.317327
164.096832,-3701.029710,8660.409521,-3217.601092
164.097142,3108.864956,9622.677246,-6128.763984
164.097451,9030.512492,9474.636058,-11031.775171
164.097761,-444.123565,9326.594869,-919.314598
164.098070,-5181.441594,6365.771101,10725.336972
164.098380,-296.082377,10436.903782,2528.115143
164.098689,3330.926739,11325.150913,-9039.926876
164.098998,-1998.556043,11029.068536,-9806.022374
164.099308,148.041188,7550.100608,-4366.744339
164.099617,-3256.906145,11695.253884,-3983.696590
164.099927,-1036.288319,9696.697840,-2068.457845
164.100236,-148.041188,13545.768739,1762.019645
164.100545,1554.432478,13323.706956,2681.334243
164.100855,-5107.421000,12805.562797,0.000000
164.101164,-5551.544565,11547.212695,1991.848295
164.101474,7698.141797,8438.347739,-8580.269578
164.101783,3849.070898,8364.327145,-12027.699319
164.102093,-1776.494261,12435.459826,-1378.971896
164.102402,-5477.523971,7402.059420,7354.516781
164.102711,2812.782580,12805.562797,842.705048
164.103021,888.247130,7698.141797,-1685.410096
164.103330,814.226536,8512.368333,-1072.533697
164.103640,2442.679609,9178.553681,-6741.640382
164.103949,296.082377,8586.388927,-6128.763984
164.104258,-1258.350101,9474.636058,1838.629195
164.104568,-0.000000,10584.944971,536.266849
164.104877,-518.144159,14878.139434,-2987.772442
164.105187,1258.350101,9326.594869,-1838.629195
164.105496,1036.288319,6735.874072,-6128.763984
164.105805,2442.679609,5625.565159,-5515.887586
164.106115,-444.123565,9400.615463,-306.438199
164.106424,2960.823768,12805.562797,-9499.584175
164.106734,4737.318029,7624.121203,-3294.210641
164.107043,-5329.482782,9178.553681,7354.516781
164.107353,222.061783,9918.759623,5132.839837
164.107662,6069.688724,9400.615463,-12334.137518
164.107971,1776.494261,8290.306550,-8503.660028
164.108281,-4441.235652,8290.306550,3370.820191
164.108590,-2368.659014,11251.130318,-2221.676944
164.108900,2294.638420,17024.736666,-7890.783629
164.109209,3997.112087,12731.542202,-3983.696590
164.109518,-4145.153275,10362.883188,766.095498
164.109828,-1702.473667,10807.006753,1302.362347
164.110137,592.164754,10288.862594,-536.266849
164.110447,1850.514855,9992.780217,-6894.859482
164.110756,-1184.329507,5551.544565,-4596.572988
164.111066,-6069.688724,7624.121203,7660.954980
164.111375,1332.370696,12509.480420,-766.095498
164.111684,1850.514855,7846.182985,-13942.938064
164.111994,-1702.473667,9178.553681,-6128.763984
164.112303,-2368.659014,7031.956449,0.000000
164.112613,1554.432478,4441.235652,-4903.011187
164.112922,-592.164754,6587.832884,0.000000
164.113231,592.164754,5625.565159,6052.154434
164.113541,-1480.411884,5699.585753,842.705048
164.113850,1554.432478,7105.977043,-766.095498
164.114160,296.082377,12509.480420,-4749.792088
164.114469,5699.585753,6439.791695,-10648.727422
164.114778,3701.029710,7402.059420,-1991.848295
164.115088,-9104.533087,8660.409521,8427.050478
164.115397,-2072.576638,10214.842000,1455.581446
164.115707,-962.267725,9178.553681,-5362.668486
164.116016,1332.370696,6439.791695,-2451.505594
164.116326,-1850.514855,7105.977043,-3600.648841
164.116635,2664.741391,8734.430116,-6281.983084
164.116944,-0.000000,9474.636058,-612.876398
164.117254,1628.453072,10214.842000,4979.620737
164.117563,-1628.453072,11103.089130,7048.078582
164.117873,2072.576638,11029.068536,2221.676944
164.118182,-2590.720797,14804.118840,-2068.457845
164.118491,6069.688724,7846.182985,-11797.870669
164.118801,2368.659014,5107.421000,-11797.870669
164.119110,2368.659014,10066.800811,-2221.676944
164.119420,-962.267725,15396.283594,9806.022374
164.119729,-1480.411884,14211.954086,9422.974625
164.120039,1258.350101,10807.006753,8044.002729
164.120348,2812.782580,4441.235652,-766.095498
164.120657,-814.226536,7994.224174,-3370.820191
164.120967,-5773.606348,3923.091493,2145.067394
164.121276,-1036.288319,11621.233289,-3294.210641
164.121586,2886.803174,9844.739029,-9576.193725
164.121895,-2516.700203,15692.365970,-766.095498
164.122204,-5403.503377,14582.057057,7814.174080
164.122514,-1628.453072,9400.615463,1532.190996
164.122823,962.267725,7105.977043,-612.876398
164.123133,2516.700203,6513.812290,536.266849
164.123442,444.123565,4811.338623,76.609550
164.123752,666.185348,4737.318029,2834.553343
164.124061,-3478.967927,8142.265362,10265.679673
164.124370,2812.782580,7179.997637,4366.744339
164.124680,1406.391290,12435.459826,-4136.915689
164.124989,-3775.050304,9548.656652,-1838.629195
164.125299,-2072.576638,7994.224174,-1608.800546
164.125608,-3108.864956,12139.377449,-7507.735880
164.125917,-592.164754,14952.160028,-7354.516781
164.126227,1554.432478,10658.965565,-4673.182538
164.126536,1924.535449,7994.224174,2451.505594
164.126846,-814.226536,9696.697840,5362.668486
164.127155,-3997.112087,5847.626942,11261.603821
164.127464,-666.185348,5773.606348,2374.896044
164.127774,-518.144159,5625.565159,-3600.648841
164.128083,1702.473667,11843.295072,-6128.763984
164.128393,-666.185348,11695.253884,-11184.994271
164.128702,3627.009116,13249.686362,-13100.233016
164.129012,2516.700203,9104.533087,-1991.848295
164.129321,-3182.885551,3108.864956,8427.050478
164.129630,-6735.874072,9326.594869,6971.469032
164.129940,592.164754,6809.894666,153.219100
164.130249,5255.462188,4293.194464,-6818.249932
164.130559,888.247130,5699.585753,-8886.707777
164.130868,444.123565,9918.759623,-3447.429741
164.131177,1184.329507,13471.748144,-2451.505594
164.131487,3997.112087,11769.274478,-2834.553343
164.131796,1036.288319,10807.006753,2987.772442
164.132106,-2368.659014,11843.295072,5592.497135
164.132415,740.205942,8734.430116,-995.924147
164.132725,1850.514855,6587.832884,-6665.030833
164.133034,-2516.700203,7105.977043,-1608.800546
164.133343,-5329.482782,10807.006753,-919.314598
164.133653,-1628.453072,16950.716072,-6741.640382
164.133962,-1184.329507,15396.283594,-8580.269578
164.134272,3478.967927,10584.944971,-6205.373534
164.134581,-666.185348,9178.553681,-459.657299
164.134890,-1998.556043,7624.121203,5439.278036
164.135200,888.247130,2738.761985,4903.011187
164.135509,-74.020594,7698.141797,1915.238745
164.135819,2072.576638,6587.832884,2374.896044
164.136128,-0.000000,11325.150913,-3524.039291
164.136437,1628.453072,9474.636058,-5975.544884
164.136747,-1036.288319,7550.100608,-4290.134789
164.137056,-4219.173869,11399.171507,3294.210641
164.137366,-3627.009116,8660.409521,383.047749
164.137675,1036.288319,8142.265362,-2145.067394
164.137985,-0.000000,4663.297435,229.828649
164.138294,-814.226536,4293.194464,-2451.505594
164.138603,-1480.411884,7550.100608,0.000000
164.138913,-296.082377,9770.718434,2528.115143
164.139222,1776.494261,10955.047942,1991.848295
164.139532,-2590.720797,13323.706956,1532.190996
164.139841,1406.391290,14656.077652,842.705048
164.140150,2368.659014,9696.697840,-5286.058936
164.140460,-0.000000,7846.182985,-8810.098227
164.140769,-444.123565,5625.565159,-2145.067394
164.141079,296.082377,11473.192101,2681.334243
164.141388,3627.009116,8660.409521,0.000000
164.141698,-592.164754,11103.089130,2451.505594
164.142007,2590.720797,12879.583391,4366.744339
164.142316,-222.061783,6217.729913,-4749.792088
164.142626,3330.926739,11843.295072,-6052.154434
164.142935,-1258.350101,9326.594869,-1915.238745
164.143245,-444.123565,7698.141797,-1915.238745
164.143554,-1998.556043,12139.377449,-995.924147
164.143863,2664.741391,13841.851115,-1378.971896
164.144173,-814.226536,10658.965565,-1302.362347
164.144482,-1998.556043,9030.512492,1685.410096
164.144792,222.061783,7105.977043,-689.485948
164.145101,518.144159,6513.812290,-2298.286494
164.145410,-2146.597232,6883.915261,229.828649
164.145720,-1332.370696,8956.491898,3370.820191
164.146029,3923.091493,11251.130318,-5209.449386
164.146339,5181.441594,6217.729913,-5362.668486
164.146648,-4145.153275,8364.327145,3983.696590
164.146958,-3701.029710,7105.977043,7354.516781
164.147267,1258.350101,4737.318029,919.314598
164.147576,3849.070898,9844.739029,-229.828649
164.147886,-3849.070898,11473.192101,3907.087040
164.148195,-3256.906145,13323.706956,-2298.286494
164.148505,666.185348,12213.398043,-3753.867940
164.148814,4515.256246,8290.306550,-5439.278036
164.149123,-7476.080014,10584.944971,-2068.457845
164.149433,-3182.885551,12139.377449,6052.154434
164.149742,2960.823768,10658.965565,1072.533697
164.150052,6217.729913,7105.977043,-8580.269578
164.150361,-1924.535449,8734.430116,-2451.505594
164.150671,-4885.359217,7920.203579,9882.631924
164.150980,2442.679609,8438.347739,-842.705048
164.151289,1702.473667,5181.441594,-3677.258390
164.151599,-1036.288319,11103.089130,2987.772442
164.151908,-1702.473667,8660.409521,1915.238745
164.152218,-222.061783,6809.894666,-8273.831378
164.152527,5255.462188,9474.636058,-4060.306139
164.152836,-2812.782580,6587.832884,612.876398
164.153146,-8142.265362,9548.656652,4060.306139
164.153455,-148.041188,14582.057057,1072.533697
164.153765,8438.347739,18357.107362,-12870.404366
164.154074,444.123565,11177.109724,-11874.480219
164.154383,-8734.430116,11103.089130,4903.011187
164.154693,-592.164754,12953.603985,3370.820191
164.155002,8956.491898,4663.297435,-9039.926876
164.155312,1110.308913,4441.235652,2681.334243
164.155621,-4885.359217,9326.594869,8810.098227
164.155931,2664.741391,6587.832884,-3983.696590
164.156240,4589.276840,2886.803174,-8120.612279
164.156549,2368.659014,10214.842000,-2374.896044
164.156859,-3256.906145,10807.006753,-919.314598
164.157168,1184.329507,14952.160028,-383.047749
164.157478,2664.741391,10658.965565,1455.581446
164.157787,1850.514855,9548.656652,-459.657299
164.158096,-1850.514855,14434.015869,-3753.867940
164.158406,-3997.112087,8068.244768,-1762.019645
164.158715,3330.926739,8290.306550,-4979.620737
164.159025,-74.020594,9696.697840,-2221.676944
164.159334,-222.061783,15544.324782,5132.839837
164.159644,-3627.009116,12953.603985,3753.867940
164.159953,4811.338623,4293.194464,-8120.612279
164.160262,-740.205942,5477.523971,-4979.620737
164.160572,-3256.906145,6439.791695,5056.230287
164.160881,-296.082377,4293.194464,-842.705048
164.161191,-2516.700203,6217.729913,-2451.505594
164.161500,-1850.514855,13323.706956,995.924147
164.161809,3478.967927,8068.244768,-3830.477490
164.162119,-148.041188,8882.471304,-3677.258390
164.162428,-2516.700203,9400.615463,2451.505594
164.162738,-1110.308913,6735.874072,4290.134789
164.163047,1110.308913,9104.533087,919.314598
164.163357,-962.267725,13619.789333,-2451.505594
164.163666,-1924.535449,11991.336260,-5286.058936
164.163975,888.247130,11991.336260,-5745.716235
164.164285,444.123565,8512.368333,-4519.963438
164.164595,4071.132681,7772.162391,-2221.676944
164.164904,-3923.091493,5551.544565,2681.334243
164.165214,-4515.256246,11399.171507,12104.308868
164.165523,4367.215058,11991.336260,4060.306139
164.165833,6883.915261,7994.224174,-11874.480219
164.166142,-3997.112087,2664.741391,-8580.269578
164.166452,-2664.741391,7698.141797,1915.238745
164.166762,5033.400406,11843.295072,-5286.058936
164.167071,3108.864956,8290.306550,-3524.039291
164.167381,-1998.556043,17764.942608,12410.747068
164.167690,-4441.235652,14211.954086,12027.699319
164.168000,1184.329507,11251.130318,-6818.249932
164.168309,5773.606348,3256.906145,-17313.758255
164.168619,-2294.638420,9844.739029,-11031.775171
164.168928,-7920.203579,9030.512492,2298.286494
164.169238,-5107.421000,10807.006753,5669.106685
164.169548,5921.647536,15174.221811,-3064.381992
164.169857,8956.491898,6957.935855,-4903.011187
164.170167,-4515.256246,1702.473667,5898.935335
164.170476,-3701.029710,1628.453072,9652.803275
164.170786,4219.173869,148.041188,-5898.935335
164.171095,-0.000000,3108.864956,-5362.668486
164.171405,-2738.761985,11029.068536,7660.954980
164.171714,-2072.576638,12213.398043,689.485948
164.172024,2072.576638,14730.098246,-9039.926876
164.172334,2294.638420,13767.830521,-3753.867940
164.172643,-5477.523971,15322.262999,0.000000
164.172953,-2294.638420,9178.553681,-2451.505594
164.173262,-148.041188,10584.944971,-4060.306139
164.173572,-1850.514855,12509.480420,-3524.039291
164.173881,-222.061783,10066.800811,-3830.477490
164.174191,444.123565,6291.750507,0.000000
164.174500,1480.411884,2886.803174,4366.744339
164.174810,-1036.288319,6661.853478,3447.429741
164.175120,148.041188,5255.462188,2068.457845
164.175429,1480.411884,9252.574275,1378.971896
164.175739,3701.029710,3923.091493,-3064.381992
164.176048,-3701.029710,5477.523971,-6971.469032
164.176358,222.061783,9400.615463,-4979.620737
164.176667,-0.000000,13397.727550,-2834.553343
164.176977,-666.185348,13323.706956,4290.134789
164.177286,-2072.576638,15544.324782,5056.230287
164.177596,-888.247130,17320.819043,-3217.601092
164.177906,4441.235652,12583.501014,-4749.792088
164.178215,-4367.215058,6957.935855,-4366.744339
164.178525,-5773.606348,14137.933492,-5209.449386
164.178834,2294.638420,12879.583391,-12027.699319
164.179144,6217.729913,9252.574275,-10189.070123
164.179453,-2294.638420,5995.668130,7737.564530
164.179763,-7920.203579,5551.544565,12870.404366
164.180073,4219.173869,4441.235652,-919.314598
164.180382,5995.668130,3108.864956,-8044.002729
164.180692,1702.473667,-1332.370696,-2145.067394
164.181001,-7476.080014,4589.276840,5822.325785
164.181311,444.123565,13693.809927,-383.047749
164.181620,7476.080014,14211.954086,-10342.289223
164.181930,-1480.411884,12435.459826,-306.438199
164.182239,-8364.327145,14804.118840,11108.384721
164.182549,-6735.874072,15840.407159,-4673.182538
164.182859,5477.523971,17098.757260,-18309.682402
164.183168,2590.720797,13841.851115,-13559.890315
164.183478,-1702.473667,9918.759623,-3524.039291
164.183787,-6439.791695,8734.430116,4826.401637
164.184097,-0.000000,7846.182985,5822.325785
164.184406,7550.100608,1850.514855,4749.792088
164.184716,-666.185348,1924.535449,3447.429741
164.185025,-6217.729913,3923.091493,2298.286494
164.185335,1406.391290,3404.947333,-1915.238745
164.185645,10214.842000,5329.482782,-12257.527968
164.185954,-0.000000,8956.491898,-2374.896044
164.186264,-10436.903782,13027.624579,11721.261119
164.186573,-5107.421000,16728.654289,1455.581446
164.186883,5033.400406,18579.169144,-13023.623466
164.187192,2368.659014,11843.295072,-9729.412825
164.187502,-6143.709319,14508.036463,-2834.553343
164.187811,-6957.935855,14285.974681,-6281.983084
164.188121,3330.926739,12509.480420,-7660.954980
164.188431,6069.688724,7402.059420,-5286.058936
164.188740,2294.638420,2960.823768,7124.688131
164.189050,-7179.997637,6291.750507,18003.244203
164.189359,-2072.576638,7402.059420,2451.505594
164.189669,5551.544565,-2072.576638,-9499.584175
164.189978,2960.823768,2368.659014,-6435.202183
164.190288,-4737.318029,7254.018232,0.000000
164.190598,-2516.700203,9844.739029,-6052.154434
164.190907,2146.597232,10658.965565,-6358.592633
164.191217,518.144159,16950.716072,2451.505594
164.191526,-2738.761985,15692.365970,2681.334243
164.191836,1184.329507,10288.862594,-995.924147
164.192145,-222.061783,12361.439231,2681.334243
164.192455,1702.473667,11917.315666,-3447.429741
164.192764,-222.061783,12361.439231,-7431.126331
164.193074,-2220.617826,11399.171507,-6511.811733
164.193384,-1554.432478,9992.780217,1378.971896
164.193693,-666.185348,10214.842000,1149.143247
164.194003,4293.194464,3478.967927,-4826.401637
164.194312,1110.308913,-1924.535449,-1762.019645
164.194622,-370.102971,4441.235652,4366.744339
164.194931,-592.164754,-2886.803174,9039.926876
164.195241,1924.535449,1702.473667,4826.401637
164.195550,4367.215058,9696.697840,612.876398
164.195860,-2886.803174,14211.954086,-2834.553343
164.196170,-5107.421000,16654.633695,3217.601092
164.196479,-1628.453072,20873.807564,-4749.792088
164.196789,8734.430116,18653.189738,-20761.187996
164.197098,1776.494261,16580.613101,-14402.595362
164.197408,-7550.100608,7994.224174,6435.202183
164.197717,-6365.771101,4441.235652,8810.098227
164.198027,3330.926739,5329.482782,2834.553343
164.198336,3256.906145,6735.874072,-383.047749
164.198646,1480.411884,3108.864956,0.000000
164.198956,-1702.473667,3849.070898,612.876398
164.199265,296.082377,6439.791695,-5439.278036
164.199575,814.226536,8216.285956,-5592.497135
164.199884,3182.885551,5699.585753,-4903.011187
164.200194,-4811.338623,8956.491898,3140.991542
164.200503,-2664.741391,10658.965565,6588.421283
164.200813,3182.885551,8216.285956,-2604.724693
164.201122,-0.000000,13249.686362,-6281.983084
164.201432,888.247130,15174.221811,-4136.915689
164.201742,1036.288319,14730.098246,-6665.030833
164.202051,-2368.659014,12953.603985,-2604.724693
164.202361,-2294.638420,10436.903782,2451.505594
164.202670,-1554.432478,11843.295072,1455.581446
164.202980,-888.247130,11177.109724,-5286.058936
164.203289,518.144159,4219.173869,-7967.393179
164.203599,666.185348,8364.327145,-6665.030833
164.203909,1480.411884,2294.638420,-4903.011187
164.204218,-1702.473667,3997.112087,5132.839837
164.204528,5033.400406,10510.924376,11721.261119
164.204837,370.102971,8290.306550,8656.879127
164.205147,-3627.009116,7550.100608,8197.221829
164.205456,1332.370696,7328.038826,-1225.752797
164.205766,5477.523971,13027.624579,-19458.825649
164.206075,-3552.988522,16062.468941,-14709.033562
164.206385,-11325.150913,17764.942608,3753.867940
164.206695,3330.926739,21836.075289,-6665.030833
164.207004,2886.803174,14730.098246,-11568.042020
164.207314,1036.288319,7698.141797,4443.353888
164.207623,-3108.864956,4441.235652,13789.718964
164.207933,962.267725,-0.000000,4979.620737
164.208242,-0.000000,-2442.679609,4290.134789
164.208552,1036.288319,5033.400406,1149.143247
164.208861,4811.338623,7105.977043,-7660.954980
164.209171,444.123565,7550.100608,-8120.612279
164.209481,-2442.679609,10955.047942,1991.848295
164.209790,1776.494261,10807.006753,-459.657299
164.210100,-4515.256246,12361.439231,919.314598
164.210409,-5699.585753,11621.233289,3983.696590
164.210719,3034.844362,12435.459826,-8886.707777
164.211028,4219.173869,8956.491898,-11491.432470
164.211338,-3627.009116,7550.100608,1302.362347
164.211647,2072.576638,14656.077652,6511.811733
164.211957,-74.020594,10807.006753,2221.676944
164.212267,-666.185348,11621.233289,2834.553343
164.212576,-1628.453072,12879.583391,-1149.143247
164.212886,1554.432478,5329.482782,-11261.603821
164.213195,2738.761985,4145.153275,-9882.631924
164.213505,1480.411884,7772.162391,-4443.353888
164.213814,-1184.329507,5921.647536,1455.581446
164.214124,-2960.823768,10288.862594,6358.592633
164.214434,5625.565159,9178.553681,7277.907231
164.214743,3997.112087,3108.864956,-1838.629195
164.215053,-5477.523971,10510.924376,-2681.334243
164.215362,-6661.853478,7772.162391,-1915.238745
164.215672,7698.141797,9918.759623,-10342.289223
164.215981,2516.700203,10584.944971,-11261.603821
164.216291,-4811.338623,11917.315666,-76.609550
164.216600,2294.638420,16950.716072,2451.505594
164.216910,-0.000000,10436.903782,-3677.258390
164.217220,4737.318029,8660.409521,-1532.190996
164.217529,814.226536,8068.244768,4903.011187
164.217839,-1776.494261,6513.812290,689.485948
164.218148,-1702.473667,7846.182985,383.047749
164.218458,740.205942,10288.862594,-459.657299
164.218767,5033.400406,9770.718434,-7277.907231
164.219077,-4071.132681,7994.224174,-4826.401637
164.219386,-4219.173869,11251.130318,612.876398
164.219696,296.082377,10140.821405,-3677.258390
164.220006,4293.194464,7920.203579,-10725.336972
164.220315,-2220.617826,8586.388927,0.000000
164.220625,-2220.617826,9696.697840,7890.783629
164.220934,-592.164754,8216.285956,-1302.362347
164.221244,1924.535449,6809.894666,-1685.410096
164.221553,3034.844362,11843.295072,-842.705048
164.221863,1258.350101,4293.194464,-536.266849
164.222172,-3182.885551,11695.253884,1991.848295
164.222482,592.164754,9252.574275,689.485948
164.222792,740.205942,13323.706956,-7584.345430
164.223101,-2812.782580,13397.727550,-5898.935335
164.223411,-5107.421000,10807.006753,-306.438199
164.223720,1332.370696,10807.006753,-4903.011187
164.224030,2072.576638,11399.171507,-10955.165621
164.224339,2738.761985,6809.894666,-3600.648841
164.224649,1184.329507,5329.482782,6741.640382
164.224958,-1258.350101,4293.194464,11568.042020
164.225268,-0.000000,7476.080014,3217.601092
164.225578,6365.771101,9474.636058,-2757.943793
164.225887,2368.659014,5995.668130,-2068.457845
164.226197,-3256.906145,7846.182985,1608.800546
164.226506,592.164754,13323.706956,-5592.497135
164.226816,2294.638420,14508.036463,-10801.946522
164.227125,-4885.359217,14211.954086,919.314598
164.227435,-6365.771101,15174.221811,6511.811733
164.227745,74.020594,16136.489536,-12257.527968
164.228054,3182.885551,13619.789333,-14096.157163
164.228364,3034.844362,2886.803174,-2451.505594
164.228673,1406.391290,2516.700203,1072.533697
164.228983,-5625.565159,1628.453072,9422.974625
164.229292,-0.000000,3775.050304,17313.758255
164.229602,2590.720797,6809.894666,153.219100
164.229911,4219.173869,9104.533087,-9116.536426
164.230221,-0.000000,6809.894666,-3370.820191
164.230531,518.144159,7105.977043,-5286.058936
164.230840,1998.556043,5477.523971,-6128.763984
164.231150,-2072.576638,11103.089130,4903.011187
164.231459,-3034.844362,17838.963202,8350.440928
164.231769,-148.041188,13323.706956,-1302.362347
164.232078,296.082377,19393.395680,-1532.190996
164.232388,1036.288319,13397.727550,-3447.429741
164.232697,3997.112087,11473.192101,-7507.735880
164.233007,-2442.679609,7846.182985,-5745.716235
164.233317,-4885.359217,9326.594869,2528.115143
164.233626,7031.956449,13915.871710,0.000000
164.233936,1776.494261,5921.647536,-995.924147
164.234245,-0.000000,2738.761985,2451.505594
164.234555,-0.000000,-518.144159,2987.772442
164.234864,-2442.679609,1110.308913,3447.429741
164.235174,-888.247130,2072.576638,4749.792088
164.235483,2220.617826,12731.542202,153.219100
164.235793,1924.535449,17394.839637,-8273.831378
164.236103,-1110.308913,18727.210333,-4903.011187
164.236412,444.123565,15248.242405,-2451.505594
164.236722,4219.173869,11843.295072,-9116.536426
164.237031,-0.000000,9030.512492,-3677.258390
164.237341,-3552.988522,2294.638420,7277.907231
164.237650,-2590.720797,10732.986159,5056.230287
164.237960,-0.000000,8586.388927,306.438199
164.238270,3330.926739,7772.162391,-2834.553343
164.238579,1776.494261,10658.965565,-6435.202183
164.238889,1850.514855,11843.295072,-7277.907231
164.239198,1924.535449,3552.988522,-3370.820191
164.239508,-2072.576638,6439.791695,4060.306139
164.239817,-1332.370696,14656.077652,5745.716235
164.240127,666.185348,10584.944971,0.000000
164.240436,4663.297435,10362.883188,-4366.744339
164.240746,-1628.453072,6291.750507,-3370.820191
164.241056,-5329.482782,13249.686362,-2757.943793
164.241365,1702.473667,10807.006753,-4366.744339
164.241675,4515.256246,12657.521608,-7354.516781
164.241984,-1184.329507,9474.636058,2068.457845
164.242294,-5699.585753,10066.800811,7584.345430
164.242603,2738.761985,11177.109724,-1225.752797
164.242913,2960.823768,8216.285956,-5669.106685
164.243222,1332.370696,888.247130,-689.485948
164.243532,-4293.194464,9030.512492,-2451.505594
164.243842,-666.185348,10658.965565,-2987.772442
164.244151,3108.864956,11177.109724,-2757.943793
164.244461,3701.029710,15174.221811,306.438199
164.244770,-3108.864956,12065.356855,2681.334243
164.245080,-4367.215058,6809.894666,3983.696590
164.245389,1406.391290,8438.347739,-1149.143247
164.245699,4885.359217,4737.318029,-7890.783629
164.246008,-3552.988522,9992.780217,459.657299
164.246318,-5699.585753,13323.706956,11874.480219
164.246628,888.247130,15174.221811,-7124.688131
164.246937,4145.153275,11843.295072,-14479.204912
164.247247,3108.864956,10436.903782,-5362.668486
164.247556,-1628.453072,3182.885551,3983.696590
164.247866,-5625.565159,3849.070898,4366.744339
164.248175,2442.679609,6587.832884,6894.859482
164.248485,5995.668130,8290.306550,612.876398
164.248794,-2294.638420,5921.647536,766.095498
164.249104,-2664.741391,10955.047942,2604.724693
164.249414,1036.288319,13545.768739,-5745.716235
164.249723,5921.647536,11029.068536,-11414.822920
164.250033,-3849.070898,13767.830521,76.609550
164.250342,-6957.935855,10658.965565,8120.612279
164.250652,3627.009116,13693.809927,-2757.943793
164.250961,1554.432478,7550.100608,-7967.393179
164.251271,-4071.132681,9770.718434,459.657299
164.251581,518.144159,6957.935855,1225.752797
164.251890,370.102971,5551.544565,-2681.334243
164.252200,-518.144159,14359.995275,2374.896044
164.252509,2664.741391,12583.501014,3064.381992
164.252819,814.226536,10955.047942,-536.266849
164.253128,-1628.453072,11621.233289,1685.410096
164.253438,-518.144159,5995.668130,-2604.724693
164.253747,2738.761985,-0.000000,-11644.651570
164.254057,-3627.009116,5847.626942,-3830.477490
164.254367,-2442.679609,8882.471304,6741.640382
164.254676,3627.009116,5995.668130,-1225.752797
164.254986,-2368.659014,14434.015869,-3294.210641
164.255295,-3997.112087,12953.603985,3830.477490
164.255605,5033.400406,9548.656652,-4366.744339
164.255914,1850.514855,7179.997637,-10265.679673
164.256224,-222.061783,11695.253884,536.266849
164.256533,3404.947333,14285.974681,3524.039291
164.256843,-0.000000,11621.233289,2451.505594
164.257153,222.061783,15026.180623,7048.078582
164.257462,-3775.050304,12953.603985,2145.067394
164.257772,1480.411884,9844.739029,-13866.328514
164.258081,666.185348,6439.791695,-9806.022374
164.258391,-3627.009116,8364.327145,-1991.848295
164.258700,-1332.370696,3552.988522,-919.314598
164.259010,-814.226536,8660.409521,-766.095498
164.259319,-2072.576638,9474.636058,5822.325785
164.259629,3182.885551,6291.750507,6741.640382
164.259939,2812.782580,6439.791695,1608.800546
164.260248,-2368.659014,6883.915261,0.000000
164.260558,2368.659014,13101.645173,-1685.410096
164.260867,-1406.391290,13915.871710,-3830.477490
164.261177,-1258.350101,15322.262999,-1762.019645
164.261486,-518.144159,19689.478057,-2757.943793
164.261796,-1776.494261,10881.027347,-9116.536426
164.262105,814.226536,7624.121203,-2068.457845
164.262415,-1998.556043,6365.771101,3600.648841
164.262725,-2072.576638,2442.679609,-2374.896044
164.263034,-3775.050304,4367.215058,-1608.800546
164.263344,-1258.350101,11325.150913,3217.601092
164.263653,5699.585753,9844.739029,-3064.381992
164.263963,3478.967927,8142.265362,-7354.516781
164.264273,1110.308913,5625.565159,-919.314598
164.264582,-0.000000,6069.688724,3753.867940
164.264892,592.164754,6587.832884,7660.954980
164.265201,-1184.329507,9030.512492,9652.803275
164.265511,-2146.597232,20577.725188,0.000000
164.265820,2072.576638,14508.036463,-12563.966167
164.266130,1776.494261,11103.089130,-12487.356617
164.266440,-296.082377,13175.665768,-6435.202183
164.266749,-5477.523971,7624.121203,-1991.848295
164.267059,-2368.659014,13101.645173,0.000000
164.267368,-1332.370696,6883.915261,3753.867940
164.267678,4219.173869,10214.842000,1455.581446
164.267988,1776.494261,2664.741391,919.314598
164.268297,1332.370696,814.226536,1378.971896
164.268607,1776.494261,4663.297435,459.657299
164.268916,-0.000000,11325.150913,1608.800546
164.269226,370.102971,12435.459826,3677.258390
164.269535,1036.288319,16580.613101,-1532.190996
164.269845,-0.000000,13027.624579,-4366.744339
164.270155,-1036.288319,9474.636058,-3524.039291
164.270464,-1332.370696,9918.759623,-3907.087040
164.270774,-2368.659014,6513.812290,-5898.935335
164.271083,-888.247130,9474.636058,-3217.601092
164.271393,-592.164754,12657.521608,-766.095498
