#time,accel_x,accel_y,accel_z
63.149938,2368.659014,7846.182985,5822.325785
63.150248,-666.185348,9400.615463,8580.269578
63.150557,-2664.741391,6069.688724,8273.831378
63.150867,-148.041188,5847.626942,5745.716235
63.151176,-2664.741391,9252.574275,3294.210641
63.151486,-740.205942,10658.965565,0.000000
63.151795,3923.091493,11843.295072,612.876398
63.152105,-814.226536,12657.521608,5362.668486
63.152414,666.185348,10955.047942,10035.851024
63.152724,3627.009116,7550.100608,7890.783629
63.153033,4293.194464,5477.523971,7967.393179
63.153343,2664.741391,4145.153275,9499.584175
63.153652,1332.370696,5625.565159,11338.213370
63.153961,3478.967927,8364.327145,7354.516781
63.154271,5477.523971,8956.491898,5822.325785
63.154580,6217.729913,7179.997637,3600.648841
63.154890,3108.864956,5995.668130,8197.221829
63.155199,962.267725,5181.441594,10955.165621
63.155509,1110.308913,5773.606348,12104.308868
63.155818,2812.782580,6661.853478,8273.831378
63.156128,4293.194464,8068.244768,7890.783629
63.156437,740.205942,10955.047942,10725.336972
63.156747,-0.000000,13693.809927,11797.870669
63.157056,1184.329507,14211.954086,9652.803275
63.157366,-0.000000,14508.036463,4060.306139
63.157675,1258.350101,11399.171507,9116.536426
63.157985,-2664.741391,11103.089130,9959.241474
63.158294,-2368.659014,13249.686362,7967.393179
63.158603,148.041188,14063.912898,4903.011187
63.158913,-8734.430116,17394.839637,2911.162892
63.159222,7624.121203,15470.304188,383.047749
63.159532,-5181.441594,8586.388927,5132.839837
63.159841,-8512.368333,13175.665768,8886.707777
63.160151,-3552.988522,12139.377449,6052.154434
63.160460,-296.082377,8512.368333,-2834.553343
63.160770,6143.709319,7105.977043,-4290.134789
63.161079,-2812.782580,1998.556043,8656.879127
63.161389,5403.503377,6735.874072,13866.328514
63.161698,3034.844362,-1480.411884,11797.870669
63.162008,2146.597232,2294.638420,14709.033562
63.162317,2812.782580,1258.350101,15704.957709
63.162626,-222.061783,3330.926739,5669.106685
63.162936,1924.535449,6069.688724,-1838.629195
63.163245,-814.226536,9400.615463,-76.609550
63.163555,518.144159,11843.295072,-6435.202183
63.163864,-1776.494261,11621.233289,-3753.867940
63.164174,-444.123565,17098.757260,5209.449386
63.164483,-1924.535449,15174.221811,7431.126331
63.164793,-148.041188,15914.427753,4903.011187
63.165102,-888.247130,13693.809927,1455.581446
63.165412,2886.803174,12213.398043,-7431.126331
63.165721,5477.523971,12213.398043,-11644.651570
63.166031,1480.411884,12435.459826,1838.629195
63.166340,2960.823768,11325.150913,9959.241474
63.166649,5403.503377,5773.606348,11338.213370
63.166959,1776.494261,3256.906145,12027.699319
63.167268,-740.205942,1036.288319,11874.480219
63.167578,1036.288319,1850.514855,-383.047749
63.167887,3997.112087,3478.967927,-13713.109414
63.168197,5033.400406,11843.295072,-10725.336972
63.168506,-296.082377,13545.768739,-1991.848295
63.168816,-7179.997637,13101.645173,4136.915689
63.169125,-592.164754,15470.304188,6128.763984
63.169435,-296.082377,12435.459826,-3447.429741
63.169744,-3701.029710,10955.047942,-6358.592633
63.170054,3034.844362,12953.603985,-6894.859482
63.170363,3182.885551,14359.995275,-11031.775171
63.170672,3849.070898,15174.221811,-3217.601092
63.170982,-962.267725,12509.480420,9116.536426
63.171291,-3256.906145,6809.894666,7124.688131
63.171601,148.041188,6217.729913,-3600.648841
63.171910,148.041188,5403.503377,-7277.907231
63.172220,-3256.906145,4293.194464,-6741.640382
63.172529,2738.761985,8586.388927,-4903.011187
63.172839,1184.329507,8290.306550,-2145.067394
63.173148,-3627.009116,6439.791695,766.095498
63.173458,-0.000000,9622.677246,3217.601092
63.173767,2146.597232,9474.636058,-4136.915689
63.174077,3330.926739,10140.821405,-5822.325785
63.174386,3701.029710,10362.883188,2374.896044
63.174695,3775.050304,8216.285956,4596.572988
63.175005,-0.000000,5107.421000,2834.553343
63.175314,-148.041188,4663.297435,4979.620737
63.175624,-3182.885551,5551.544565,-612.876398
63.175933,1776.494261,9474.636058,-8427.050478
63.176243,2590.720797,14211.954086,-9882.631924
63.176552,-592.164754,14804.118840,-1608.800546
63.176862,-814.226536,13915.871710,536.266849
63.177171,-1998.556043,10362.883188,2298.286494
63.177481,-2664.741391,7772.162391,2145.067394
63.177790,1628.453072,9696.697840,-3907.087040
63.178100,6735.874072,11103.089130,-7507.735880
63.178409,2886.803174,12953.603985,919.314598
63.178719,74.020594,13027.624579,13559.890315
63.179028,3775.050304,11473.192101,7660.954980
63.179337,-148.041188,6365.771101,1991.848295
63.179647,-1184.329507,5995.668130,-612.876398
63.179956,-518.144159,7105.977043,-7354.516781
63.180266,666.185348,5329.482782,-11721.261119
63.180575,-1332.370696,12583.501014,-3677.258390
63.180885,-5033.400406,12065.356855,6511.811733
63.181194,-2442.679609,10214.842000,2221.676944
63.181504,-888.247130,7179.997637,-5132.839837
63.181813,370.102971,6883.915261,-7048.078582
63.182123,222.061783,6439.791695,-3447.429741
63.182432,2516.700203,8586.388927,-689.485948
63.182742,2738.761985,8068.244768,5056.230287
63.183051,-2294.638420,5995.668130,11951.089769
63.183360,-1036.288319,5477.523971,7048.078582
63.183670,-814.226536,4219.173869,-2987.772442
63.183979,-1406.391290,7772.162391,-8580.269578
63.184289,-444.123565,10214.842000,-10342.289223
63.184598,-1332.370696,11473.192101,-5132.839837
63.184908,-1924.535449,12879.583391,153.219100
63.185217,-5921.647536,12139.377449,6205.373534
63.185527,-2812.782580,11547.212695,842.705048
63.185836,-222.061783,9400.615463,-5515.887586
63.186146,2294.638420,12139.377449,-5362.668486
63.186455,3034.844362,13619.789333,-2221.676944
63.186765,2146.597232,12805.562797,1762.019645
63.187074,-148.041188,9918.759623,6741.640382
63.187383,-4589.276840,5921.647536,7584.345430
63.187693,-592.164754,4071.132681,-2374.896044
63.188002,-1110.308913,6513.812290,-8580.269578
63.188312,-3182.885551,9474.636058,-8120.612279
63.188621,-1628.453072,11473.192101,-5515.887586
63.188931,-1924.535449,11991.336260,-5286.058936
63.189240,-2220.617826,8438.347739,-4060.306139
63.189550,-3108.864956,7031.956449,-2528.115143
63.189859,-74.020594,7920.203579,-5286.058936
63.190169,3330.926739,8290.306550,-3600.648841
63.190478,4663.297435,10510.924376,536.266849
63.190788,5255.462188,8586.388927,4903.011187
63.191097,2368.659014,5699.585753,5898.935335
63.191406,-1406.391290,4441.235652,4826.401637
63.191716,-444.123565,5477.523971,-459.657299
63.192025,4219.173869,8068.244768,-14019.547613
63.192335,1258.350101,11473.192101,-13713.109414
63.192644,-1258.350101,14730.098246,-2145.067394
63.192954,-2072.576638,13693.809927,2681.334243
63.193263,-444.123565,9252.574275,-1302.362347
63.193573,-0.000000,8660.409521,-4136.915689
63.193882,1110.308913,7994.224174,-3447.429741
63.194192,3552.988522,11843.295072,-3524.039291
63.194501,5329.482782,12879.583391,-1608.800546
63.194811,3849.070898,13767.830521,2911.162892
63.195120,-666.185348,7624.121203,8503.660028
63.195429,-2294.638420,4737.318029,7048.078582
63.195739,-2590.720797,4737.318029,-3447.429741
63.196048,370.102971,8290.306550,-11568.042020
63.196358,-1776.494261,9474.636058,-9806.022374
63.196667,-3701.029710,11843.295072,-4136.915689
63.196977,-4589.276840,11399.171507,-459.657299
63.197286,-5847.626942,10066.800811,-3600.648841
63.197596,-5033.400406,8882.471304,-4749.792088
63.197905,-2368.659014,9104.533087,-4749.792088
63.198215,-0.000000,11029.068536,-3217.601092
63.198524,3034.844362,11399.171507,0.000000
63.198834,3182.885551,9696.697840,4443.353888
63.199143,-2886.803174,6069.688724,9806.022374
63.199452,-2812.782580,5921.647536,6741.640382
63.199762,222.061783,4811.338623,-4749.792088
63.200071,1332.370696,7624.121203,-12717.185267
63.200381,-3775.050304,12731.542202,-8886.707777
63.200690,-3627.009116,13693.809927,-689.485948
63.201000,-1406.391290,10436.903782,-1455.581446
63.201309,-4145.153275,7920.203579,-1455.581446
63.201619,-2664.741391,9696.697840,459.657299
63.201928,-1110.308913,9548.656652,-2757.943793
63.202238,4219.173869,14063.912898,-6128.763984
63.202547,5403.503377,14730.098246,-459.657299
63.202857,2516.700203,12657.521608,6281.983084
63.203166,2220.617826,7476.080014,10648.727422
63.203476,-2886.803174,5995.668130,5898.935335
63.203785,-1628.453072,5329.482782,-2068.457845
63.204094,-592.164754,9770.718434,-10495.508323
63.204404,-74.020594,13027.624579,-10189.070123
63.204713,-2590.720797,13693.809927,-5822.325785
63.205023,-3256.906145,11843.295072,-3447.429741
63.205332,-3182.885551,9104.533087,-2298.286494
63.205642,-5107.421000,8660.409521,-1685.410096
63.205951,518.144159,10214.842000,-4366.744339
63.206261,2368.659014,9992.780217,-5286.058936
63.206570,3997.112087,12287.418637,-766.095498
63.206880,2590.720797,8808.450710,5975.544884
63.207189,-888.247130,5699.585753,7890.783629
63.207499,-3108.864956,4441.235652,6052.154434
63.207808,-1998.556043,4811.338623,-4290.134789
63.208117,962.267725,10140.821405,-11414.822920
63.208427,-444.123565,11251.130318,-10572.117872
63.208736,-1480.411884,13397.727550,-2451.505594
63.209046,-4219.173869,10955.047942,-1455.581446
63.209355,-5329.482782,8438.347739,-612.876398
63.209665,-2072.576638,8142.265362,-1838.629195
63.209974,-0.000000,9770.718434,-4749.792088
63.210284,2812.782580,13323.706956,-2451.505594
63.210593,5625.565159,11917.315666,1378.971896
63.210903,4515.256246,11177.109724,5515.887586
63.211212,1406.391290,7402.059420,8273.831378
63.211522,-2590.720797,5847.626942,5592.497135
63.211831,-1184.329507,5329.482782,-2911.162892
63.212140,-0.000000,10214.842000,-12027.699319
63.212450,148.041188,12361.439231,-11108.384721
63.212759,-2886.803174,13841.851115,-4519.963438
63.213069,-3330.926739,12879.583391,-306.438199
63.213378,-5255.462188,8290.306550,-3217.601092
63.213688,-3923.091493,8438.347739,-5515.887586
63.213997,370.102971,8586.388927,-7277.907231
63.214307,3034.844362,10584.944971,-4136.915689
63.214616,3108.864956,11251.130318,4596.572988
63.214926,1036.288319,7550.100608,9269.755526
63.215235,370.102971,3552.988522,7354.516781
63.215545,-2072.576638,1998.556043,3600.648841
63.215854,-3478.967927,4737.318029,-3217.601092
63.216163,-962.267725,8808.450710,-11031.775171
63.216473,-1184.329507,14137.933492,-10955.165621
63.216782,-3108.864956,14952.160028,-4060.306139
63.217092,-4441.235652,10510.924376,-1685.410096
63.217401,-6883.915261,9770.718434,842.705048
63.217711,-3552.988522,8660.409521,-3294.210641
63.218020,1554.432478,11029.068536,-5822.325785
63.218330,6439.791695,13545.768739,-4826.401637
63.218639,4885.359217,13767.830521,2451.505594
63.218949,2072.576638,9548.656652,9959.241474
63.219258,-296.082377,5477.523971,9193.145976
63.219568,-296.082377,5107.421000,3677.258390
63.219877,-740.205942,5329.482782,-5132.839837
63.220186,-148.041188,9104.533087,-15934.786358
63.220496,-2146.597232,12287.418637,-9806.022374
63.220805,-3404.947333,13619.789333,-5592.497135
63.221115,-4515.256246,11177.109724,-5286.058936
63.221424,-5403.503377,9326.594869,-5515.887586
63.221734,-1776.494261,10066.800811,-3600.648841
63.222043,814.226536,8956.491898,-5439.278036
63.222353,5107.421000,10510.924376,-2298.286494
63.222662,4811.338623,10066.800811,6128.763984
63.222972,2368.659014,8808.450710,9576.193725
63.223281,-222.061783,2738.761985,7507.735880
63.223591,-2294.638420,5477.523971,2451.505594
63.223900,-222.061783,5847.626942,-8580.269578
63.224210,740.205942,10288.862594,-14709.033562
63.224519,-3256.906145,15544.324782,-11031.775171
63.224828,-6217.729913,14211.954086,-1915.238745
63.225138,-3997.112087,10584.944971,-1302.362347
63.225447,-4145.153275,7624.121203,-2451.505594
63.225757,-2516.700203,7772.162391,-3677.258390
63.226066,296.082377,9030.512492,-4443.353888
63.226376,4885.359217,13027.624579,-2451.505594
63.226685,7254.018232,12657.521608,2604.724693
63.226995,3182.885551,9770.718434,8427.050478
63.227304,-2072.576638,4737.318029,12793.794817
63.227614,-2294.638420,5033.400406,5822.325785
63.227923,148.041188,5403.503377,-6741.640382
63.228233,148.041188,10066.800811,-12027.699319
63.228542,-2664.741391,13767.830521,-9193.145976
63.228851,-1924.535449,11473.192101,-4826.401637
63.229161,-2960.823768,11103.089130,-6741.640382
63.229470,-6809.894666,9622.677246,-2528.115143
63.229780,-3182.885551,10066.800811,-2451.505594
63.230089,3182.885551,9548.656652,-6588.421283
63.230399,4589.276840,10066.800811,-2451.505594
63.230708,6439.791695,9474.636058,6128.763984
63.231018,4663.297435,7772.162391,8503.660028
63.231327,-296.082377,5477.523971,8044.002729
63.231637,-592.164754,2812.782580,1225.752797
63.231946,-1184.329507,7328.038826,-5362.668486
63.232256,1998.556043,10584.944971,-15015.471761
63.232565,-2960.823768,12139.377449,-11031.775171
63.232874,-4737.318029,13397.727550,-2451.505594
63.233184,-3997.112087,10955.047942,-1915.238745
63.233493,-4071.132681,8586.388927,-2834.553343
63.233803,-2664.741391,9252.574275,-229.828649
63.234112,3478.967927,8734.430116,-2374.896044
63.234422,4219.173869,13545.768739,-2298.286494
63.234731,5847.626942,11251.130318,6511.811733
63.235041,1702.473667,8882.471304,11644.651570
63.235350,-444.123565,5625.565159,8427.050478
63.235660,-0.000000,5477.523971,1838.629195
63.235969,-3478.967927,8512.368333,-5822.325785
63.236279,-2072.576638,9696.697840,-9729.412825
63.236588,-2072.576638,13027.624579,-8350.440928
63.236897,-2812.782580,14211.954086,-5745.716235
63.237207,-4737.318029,10732.986159,-6894.859482
63.237516,-5921.647536,7031.956449,-5439.278036
63.237826,-74.020594,9252.574275,-4060.306139
63.238135,2442.679609,9844.739029,-4290.134789
63.238445,4737.318029,9474.636058,3294.210641
63.238754,2738.761985,10955.047942,16700.881856
63.239064,2516.700203,6587.832884,10112.460574
63.239373,444.123565,3478.967927,6128.763984
63.239683,-2368.659014,5921.647536,1455.581446
63.239992,1258.350101,7402.059420,-11951.089769
63.240302,592.164754,12731.542202,-16930.710506
63.240611,-1998.556043,15618.345376,-6818.249932
63.240920,-3478.967927,11621.233289,-1762.019645
63.241230,-4145.153275,10436.903782,-2451.505594
63.241539,-5625.565159,7920.203579,-1072.533697
63.241849,-888.247130,9548.656652,-536.266849
63.242158,5847.626942,10881.027347,-6971.469032
63.242468,8512.368333,13101.645173,-2451.505594
63.242777,5107.421000,11917.315666,9882.631924
63.243087,4293.194464,7328.038826,14172.766713
63.243396,-370.102971,4885.359217,9193.145976
63.243706,-2294.638420,5551.544565,3217.601092
63.244015,-370.102971,6957.935855,-5362.668486
63.244325,-1036.288319,9992.780217,-13100.233016
63.244634,-592.164754,14211.954086,-11797.870669
63.244944,-2220.617826,13249.686362,-7967.393179
63.245253,-3775.050304,9622.677246,-6358.592633
63.245562,-5477.523971,9770.718434,-1915.238745
63.245872,-3034.844362,7476.080014,-2451.505594
63.246181,4367.215058,8438.347739,-2221.676944
63.246491,6513.812290,8660.409521,2757.943793
63.246800,5773.606348,9252.574275,10878.556072
63.247110,3108.864956,6217.729913,9576.193725
63.247419,-2072.576638,3034.844362,2451.505594
63.247729,-296.082377,6883.915261,-689.485948
63.248038,518.144159,9252.574275,-10418.898773
63.248348,1332.370696,12879.583391,-14172.766713
63.248657,-1850.514855,15174.221811,-5745.716235
63.248967,-4441.235652,13471.748144,-229.828649
63.249276,-3034.844362,10510.924376,153.219100
63.249585,-2072.576638,7550.100608,842.705048
63.249895,-740.205942,9030.512492,-1762.019645
63.250204,7994.224174,10955.047942,-6281.983084
63.250514,8882.471304,14211.954086,153.219100
63.250823,4959.379811,12213.398043,10418.898773
63.251133,1258.350101,8512.368333,15781.567259
63.251442,-962.267725,2812.782580,9806.022374
63.251752,-1702.473667,2886.803174,1991.848295
63.252061,-0.000000,6809.894666,-6971.469032
63.252371,-2368.659014,9770.718434,-11951.089769
63.252680,-1406.391290,13323.706956,-11108.384721
63.252990,-1184.329507,13175.665768,-4826.401637
63.253299,-6809.894666,10955.047942,-2451.505594
63.253608,-6513.812290,8068.244768,1302.362347
63.253918,-74.020594,6069.688724,0.000000
63.254227,4367.215058,8956.491898,-2451.505594
63.254537,5255.462188,12657.521608,3064.381992
63.254846,4737.318029,8882.471304,10572.117872
63.255156,2368.659014,6513.812290,10112.460574
63.255465,740.205942,5033.400406,5286.058936
63.255775,-0.000000,4663.297435,-919.314598
63.256084,-1924.535449,9548.656652,-7890.783629
63.256394,-1036.288319,12657.521608,-10801.946522
63.256703,-962.267725,16358.551318,-7124.688131
63.257013,-3552.988522,14730.098246,-3064.381992
63.257322,-1924.535449,10140.821405,-7660.954980
63.257631,-2664.741391,8438.347739,1455.581446
63.257941,2072.576638,8808.450710,-995.924147
63.258250,6587.832884,11621.233289,-2911.162892
63.258560,6291.750507,14285.974681,4290.134789
63.258869,3701.029710,10510.924376,13100.233016
63.259179,2146.597232,6883.915261,9806.022374
63.259488,-0.000000,4959.379811,3907.087040
63.259798,-1332.370696,5255.462188,-2068.457845
63.260107,-1998.556043,8660.409521,-7354.516781
63.260417,-888.247130,11621.233289,-12104.308868
63.260726,962.267725,11991.336260,-10035.851024
63.261036,-3404.947333,10584.944971,-4979.620737
63.261345,-5033.400406,8364.327145,-1378.971896
63.261654,-4959.379811,8142.265362,1072.533697
63.261964,2146.597232,7402.059420,-3294.210641
63.262273,4737.318029,8586.388927,-842.705048
63.262583,6587.832884,10140.821405,6205.373534
63.262892,5255.462188,9178.553681,9193.145976
63.263201,592.164754,7105.977043,7431.126331
63.263511,-518.144159,5773.606348,4366.744339
63.263820,-962.267725,6735.874072,-5209.449386
63.264130,888.247130,8660.409521,-14402.595362
63.264439,-1184.329507,13767.830521,-15858.176809
63.264748,-1480.411884,16432.571912,-4519.963438
63.265058,-1258.350101,13101.645173,-919.314598
63.265367,-2368.659014,9770.718434,1225.752797
63.265677,-2368.659014,8216.285956,2298.286494
63.265986,4071.132681,9918.759623,-5898.935335
63.266295,7624.121203,11695.253884,-4060.306139
63.266605,8808.450710,13323.706956,3294.210641
63.266914,5181.441594,10140.821405,8503.660028
63.267224,2368.659014,6513.812290,11108.384721
63.267533,-3849.070898,4737.318029,10189.070123
63.267842,-1776.494261,3775.050304,0.000000
63.268152,592.164754,7772.162391,-12180.918418
63.268461,-1036.288319,10510.924376,-13866.328514
63.268771,-3997.112087,12435.459826,-7660.954980
63.269080,-1406.391290,13101.645173,-5286.058936
63.269389,-4737.318029,10140.821405,-536.266849
63.269699,-4737.318029,6809.894666,3370.820191
63.270008,2146.597232,6883.915261,0.000000
63.270318,4663.297435,7328.038826,-2374.896044
63.270627,6365.771101,10066.800811,4826.401637
63.270936,3849.070898,9770.718434,9039.926876
63.271246,666.185348,6661.853478,6971.469032
63.271555,1406.391290,5995.668130,3370.820191
63.271865,-2886.803174,5551.544565,-4749.792088
63.272174,592.164754,9992.780217,-10801.946522
63.272483,-1554.432478,13619.789333,-10342.289223
63.272793,-1036.288319,13915.871710,-3600.648841
63.273102,-962.267725,11917.315666,1378.971896
63.273412,-3108.864956,7994.224174,3600.648841
63.273721,296.082377,8956.491898,383.047749
63.274030,1406.391290,7994.224174,-1378.971896
63.274340,7031.956449,10807.006753,-1532.190996
63.274649,6513.812290,13989.892304,1838.629195
63.274959,4441.235652,12657.521608,9422.974625
63.275268,-0.000000,8956.491898,11184.994271
63.275577,-2960.823768,3478.967927,6281.983084
63.275887,-1776.494261,4515.256246,2834.553343
63.276196,-740.205942,8586.388927,-10342.289223
63.276506,370.102971,11843.295072,-11338.213370
63.276815,-1110.308913,15840.407159,-5362.668486
63.277124,-1924.535449,13027.624579,-2528.115143
63.277434,-2960.823768,9326.594869,-3140.991542
63.277743,-2368.659014,6735.874072,-153.219100
63.278053,1110.308913,6661.853478,-1378.971896
63.278362,4071.132681,8734.430116,1072.533697
63.278671,5551.544565,11547.212695,8197.221829
63.278981,4441.235652,8512.368333,5822.325785
63.279290,962.267725,5551.544565,4903.011187
63.279600,-1628.453072,3627.009116,1608.800546
63.279909,-814.226536,5847.626942,-7814.174080
63.280218,-74.020594,12657.521608,-14785.643111
63.280528,-222.061783,14063.912898,-7431.126331
63.280837,-2294.638420,13027.624579,-2298.286494
63.281147,-1332.370696,10807.006753,-459.657299
63.281456,-1998.556043,8808.450710,536.266849
63.281765,-1406.391290,7772.162391,-229.828649
63.282075,5329.482782,9326.594869,-5056.230287
63.282384,6735.874072,12583.501014,-3370.820191
63.282694,6883.915261,14137.933492,6205.373534
63.283003,3923.091493,8808.450710,12563.966167
63.283312,-518.144159,6217.729913,10342.289223
63.283622,-1480.411884,4885.359217,5515.887586
63.283931,-1258.350101,5847.626942,-5439.278036
63.284241,1332.370696,10807.006753,-13559.890315
63.284550,-1110.308913,15470.304188,-11338.213370
63.284859,-0.000000,14656.077652,-7277.907231
63.285169,-3034.844362,11695.253884,-2528.115143
63.285478,-5847.626942,8586.388927,3294.210641
63.285788,-1850.514855,7179.997637,2834.553343
63.286097,2368.659014,7772.162391,-3983.696590
63.286406,5181.441594,8882.471304,-2374.896044
63.286716,4589.276840,10362.883188,4903.011187
63.287025,2368.659014,8586.388927,6435.202183
63.287335,518.144159,5329.482782,8044.002729
63.287644,-2812.782580,4293.194464,995.924147
63.287953,-2294.638420,7254.018232,-5592.497135
63.288263,-296.082377,10140.821405,-12104.308868
63.288572,518.144159,13619.789333,-9729.412825
63.288882,-1702.473667,13619.789333,-2757.943793
63.289191,-1850.514855,10066.800811,1072.533697
63.289500,-3256.906145,9400.615463,1302.362347
63.289810,-148.041188,8808.450710,-766.095498
63.290119,5255.462188,9252.574275,-4826.401637
63.290429,5551.544565,12139.377449,-1685.410096
63.290738,5551.544565,15322.262999,7737.564530
63.291047,3701.029710,10510.924376,11184.994271
63.291357,-1110.308913,6883.915261,9422.974625
63.291666,-5329.482782,3256.906145,7048.078582
63.291976,222.061783,5773.606348,-5209.449386
63.292285,1332.370696,10584.944971,-14325.985813
63.292594,-1554.432478,14359.995275,-8886.707777
63.292904,-1924.535449,14656.077652,-1685.410096
63.293213,-5773.606348,11029.068536,-2834.553343
63.293523,-3627.009116,8512.368333,-3217.601092
63.293832,-4145.153275,7179.997637,-1072.533697
63.294141,1850.514855,6661.853478,-2068.457845
63.294451,4515.256246,9326.594869,1302.362347
63.294760,4737.318029,9474.636058,7584.345430
63.295070,2738.761985,5995.668130,8044.002729
63.295379,-2146.597232,3108.864956,5975.544884
63.295688,-2886.803174,3330.926739,1302.362347
63.295998,444.123565,6439.791695,-8810.098227
63.296307,-518.144159,11473.192101,-13713.109414
63.296617,-1332.370696,15840.407159,-6358.592633
63.296926,-1850.514855,14137.933492,-1149.143247
63.297235,-2368.659014,10066.800811,-2298.286494
63.297545,-2664.741391,9770.718434,-1072.533697
63.297854,-0.000000,9622.677246,-1762.019645
63.298164,4145.153275,11991.336260,-4290.134789
63.298473,6439.791695,14211.954086,0.000000
63.298782,4145.153275,14137.933492,7048.078582
63.299092,1998.556043,8142.265362,9806.022374
63.299401,-2590.720797,7105.977043,7890.783629
63.299711,-1554.432478,4737.318029,1455.581446
63.300020,-0.000000,8216.285956,-9806.022374
63.300329,962.267725,10140.821405,-12947.013916
63.300639,888.247130,11843.295072,-8120.612279
63.300948,-2738.761985,12213.398043,-3830.477490
63.301258,-4145.153275,9030.512492,-2451.505594
63.301567,-5551.544565,7402.059420,0.000000
63.301876,-1110.308913,6661.853478,-2528.115143
63.302186,3552.988522,7624.121203,-5286.058936
63.302495,3478.967927,9696.697840,842.705048
63.302805,4589.276840,8586.388927,6128.763984
63.303114,2368.659014,2368.659014,2911.162892
63.303423,-1258.350101,3997.112087,3447.429741
63.303733,-2294.638420,4811.338623,-689.485948
63.304042,-1258.350101,8586.388927,-10572.117872
63.304352,1850.514855,13397.727550,-12717.185267
63.304661,-1332.370696,15988.448347,-6511.811733
63.304970,-2368.659014,13101.645173,-3064.381992
63.305280,-3256.906145,9030.512492,-2374.896044
63.305589,-3256.906145,7994.224174,-459.657299
63.305899,-962.267725,11251.130318,-306.438199
63.306208,4885.359217,11399.171507,-6205.373534
63.306517,6957.935855,15322.262999,153.219100
63.306827,3775.050304,13249.686362,8427.050478
63.307136,3034.844362,7772.162391,9039.926876
63.307446,-1406.391290,6809.894666,9422.974625
63.307755,-3404.947333,5403.503377,1838.629195
63.308064,814.226536,8956.491898,-11031.775171
63.308374,962.267725,9696.697840,-15092.081311
63.308683,296.082377,12139.377449,-9193.145976
63.308993,-4219.173869,11399.171507,-3524.039291
63.309302,-6143.709319,9400.615463,-1532.190996
63.309611,-5551.544565,8512.368333,-612.876398
63.309921,-74.020594,6735.874072,-3064.381992
63.310230,740.205942,7105.977043,-3600.648841
63.310540,3701.029710,9992.780217,2528.115143
63.310849,4293.194464,8586.388927,6511.811733
63.311159,666.185348,4219.173869,5209.449386
63.311468,-2812.782580,4663.297435,4979.620737
63.311777,-3256.906145,5477.523971,-306.438199
63.312087,-444.123565,9400.615463,-11184.994271
63.312396,-148.041188,13323.706956,-12870.404366
63.312706,-3404.947333,15100.201217,-4903.011187
63.313015,-3256.906145,12731.542202,-4596.572988
63.313324,-2590.720797,8956.491898,-3217.601092
63.313634,-4589.276840,9326.594869,-2681.334243
63.313943,592.164754,10288.862594,-3447.429741
63.314253,4219.173869,13323.706956,-3217.601092
63.314562,6809.894666,11547.212695,2528.115143
63.314871,4219.173869,11621.233289,9499.584175
63.315181,296.082377,8364.327145,11261.603821
63.315490,-1924.535449,3330.926739,8886.707777
63.315800,-3034.844362,6217.729913,-3064.381992
63.316109,3108.864956,8808.450710,-12870.404366
63.316418,1406.391290,14211.954086,-13789.718964
63.316728,-2886.803174,13471.748144,-6818.249932
63.317037,-5699.585753,11769.274478,-2221.676944
63.317347,-6291.750507,10658.965565,-1225.752797
63.317656,-3330.926739,7920.203579,-2451.505594
63.317965,-1480.411884,8734.430116,-2145.067394
63.318275,2590.720797,8808.450710,-1149.143247
63.318584,5477.523971,9400.615463,995.924147
63.318894,3627.009116,6217.729913,6894.859482
63.319203,-1776.494261,4293.194464,8273.831378
63.319512,-1036.288319,3627.009116,4213.525239
63.319822,-1628.453072,4885.359217,-3907.087040
63.320131,-1036.288319,9918.759623,-12487.356617
63.320441,-1184.329507,12435.459826,-11108.384721
63.320750,-2368.659014,14211.954086,-7584.345430
63.321059,-3330.926739,12361.439231,-4519.963438
63.321369,-4441.235652,8808.450710,-3983.696590
63.321678,-3627.009116,6587.832884,-4366.744339
63.321988,1332.370696,9400.615463,-4290.134789
63.322297,5181.441594,12879.583391,-1608.800546
63.322606,6809.894666,13989.892304,5286.058936
63.322916,4293.194464,10955.047942,8733.488677
63.323225,1332.370696,5255.462188,10342.289223
63.323535,-3330.926739,4811.338623,6435.202183
63.323844,-0.000000,4367.215058,-4903.011187
63.324153,1184.329507,11029.068536,-13713.109414
63.324463,-592.164754,13027.624579,-11874.480219
63.324772,-3404.947333,13693.809927,-6281.983084
63.325082,-5255.462188,13323.706956,-4903.011187
63.325391,-5995.668130,8882.471304,-4366.744339
63.325700,-3404.947333,6809.894666,-2757.943793
63.326010,-148.041188,8438.347739,-3217.601092
63.326319,4293.194464,9548.656652,-1378.971896
63.326629,5255.462188,9326.594869,4673.182538
63.326938,3552.988522,5033.400406,7431.126331
63.327247,-518.144159,1258.350101,3753.867940
63.327557,-1776.494261,3701.029710,4213.525239
63.327866,-3404.947333,6439.791695,-3983.696590
63.328176,2516.700203,10436.903782,-14019.547613
63.328485,-1628.453072,14508.036463,-12563.966167
63.328794,-5033.400406,14285.974681,-6358.592633
63.329104,-3627.009116,11769.274478,-4826.401637
63.329413,-3330.926739,8216.285956,-4519.963438
63.329723,-4293.194464,9992.780217,-2221.676944
63.330032,2294.638420,11103.089130,-2681.334243
63.330341,4441.235652,11843.295072,-766.095498
63.330651,7031.956449,13471.748144,5669.106685
63.330960,3997.112087,9178.553681,10572.117872
63.331270,-1110.308913,5403.503377,11797.870669
63.331579,-2664.741391,4145.153275,10035.851024
63.331888,222.061783,6217.729913,-5745.716235
63.332198,1702.473667,11547.212695,-16547.662757
63.332507,-3108.864956,14878.139434,-11721.261119
63.332817,-4737.318029,16136.489536,-4673.182538
63.333126,-4145.153275,12731.542202,-4673.182538
63.333435,-5107.421000,8956.491898,-4136.915689
63.333745,-4589.276840,8216.285956,689.485948
63.334054,666.185348,6957.935855,-919.314598
63.334364,5847.626942,8438.347739,-2221.676944
63.334673,5477.523971,9622.677246,6128.763984
63.334982,3108.864956,5033.400406,10648.727422
63.335292,-296.082377,2294.638420,7660.954980
63.335601,-2368.659014,3404.947333,3600.648841
63.335911,-4145.153275,6809.894666,-5975.544884
63.336220,-1184.329507,11103.089130,-12487.356617
63.336529,-2368.659014,15544.324782,-11797.870669
63.336839,-2590.720797,15692.365970,-7507.735880
63.337148,-2590.720797,12435.459826,-5822.325785
63.337458,-6143.709319,8364.327145,-3830.477490
63.337767,-3182.885551,8216.285956,-1225.752797
63.338076,4441.235652,11029.068536,-2987.772442
63.338386,5255.462188,12805.562797,76.609550
63.338695,7254.018232,12509.480420,8503.660028
63.339005,2812.782580,8068.244768,12487.356617
63.339314,370.102971,5847.626942,9882.631924
63.339623,-1110.308913,6069.688724,2757.943793
63.339933,592.164754,6217.729913,-8963.317327
63.340242,888.247130,8290.306550,-17007.320056
63.340552,-2886.803174,14359.995275,-9806.022374
63.340861,-1924.535449,15248.242405,-5056.230287
63.341170,-5329.482782,11177.109724,-5515.887586
63.341480,-7031.956449,9326.594869,-5362.668486
63.341789,-1776.494261,7772.162391,-2528.115143
63.342099,2442.679609,7994.224174,-5362.668486
63.342408,6365.771101,9474.636058,-153.219100
63.342717,3627.009116,9548.656652,10112.460574
63.343027,962.267725,6957.935855,9729.412825
63.343336,-0.000000,2368.659014,6128.763984
63.343646,-2664.741391,4071.132681,153.219100
63.343955,-1702.473667,6069.688724,-8120.612279
63.344264,-814.226536,12509.480420,-14019.547613
63.344574,-2220.617826,15100.201217,-12334.137518
63.344883,-2294.638420,14285.974681,-8810.098227
63.345193,-3478.967927,10140.821405,-5975.544884
63.345502,-6735.874072,7698.141797,-153.219100
63.345811,-2590.720797,10436.903782,2145.067394
63.346121,5181.441594,9918.759623,-4136.915689
63.346430,9104.533087,12213.398043,-1532.190996
63.346740,6809.894666,11991.336260,9806.022374
63.347049,3330.926739,8734.430116,11797.870669
63.347358,-2146.597232,5033.400406,8656.879127
63.347668,-1480.411884,7105.977043,3677.258390
63.347977,-1110.308913,8142.265362,-8656.879127
63.348287,1036.288319,10584.944971,-17237.148705
63.348596,-2220.617826,15470.304188,-14325.985813
63.348905,-3404.947333,16506.592507,-5286.058936
63.349215,-5699.585753,10436.903782,-3294.210641
63.349524,-5995.668130,8068.244768,-306.438199
63.349834,-74.020594,6439.791695,-383.047749
63.350143,4737.318029,5477.523971,-3830.477490
63.350452,5477.523971,9178.553681,2068.457845
63.350762,4071.132681,8734.430116,11031.775171
63.351071,4293.194464,4959.379811,9576.193725
63.351381,592.164754,2516.700203,6894.859482
63.351690,-5995.668130,4737.318029,3447.429741
63.351999,-1998.556043,8438.347739,-7660.954980
63.352309,814.226536,11769.274478,-16700.881856
63.352618,-1628.453072,15618.345376,-12180.918418
63.352928,-3108.864956,13175.665768,-4519.963438
63.353237,-3923.091493,10510.924376,-4366.744339
63.353546,-5255.462188,8734.430116,229.828649
63.353856,-962.267725,8808.450710,1838.629195
63.354165,5033.400406,10955.047942,-2911.162892
63.354475,6513.812290,13101.645173,2911.162892
63.354784,6587.832884,13693.809927,11721.261119
63.355093,2368.659014,6883.915261,12563.966167
63.355403,370.102971,3775.050304,7354.516781
63.355712,-2368.659014,6217.729913,2145.067394
63.356022,-814.226536,7179.997637,-8963.317327
63.356331,370.102971,13767.830521,-14249.376263
63.356640,-1924.535449,15470.304188,-10342.289223
63.356950,-2812.782580,14434.015869,-5056.230287
63.357259,-3775.050304,10362.883188,-4519.963438
63.357569,-5847.626942,8364.327145,-536.266849
63.357878,-74.020594,8364.327145,0.000000
63.358187,4737.318029,8512.368333,-459.657299
63.358497,5181.441594,9548.656652,4290.134789
63.358806,2812.782580,8734.430116,10801.946522
63.359116,2368.659014,4737.318029,8656.879127
63.359425,-2368.659014,1850.514855,4673.182538
63.359734,-3775.050304,5551.544565,-842.705048
63.360044,-518.144159,9104.533087,-10342.289223
63.360353,-814.226536,13471.748144,-15628.348159
63.360663,-1628.453072,15396.283594,-10342.289223
63.360972,-3182.885551,12731.542202,-4060.306139
63.361282,-3849.070898,8660.409521,-2604.724693
63.361591,-4145.153275,9104.533087,-1685.410096
63.361901,1850.514855,8142.265362,-306.438199
63.362210,3330.926739,10510.924376,383.047749
63.362520,9770.718434,12435.459826,5439.278036
63.362829,5329.482782,13175.665768,9576.193725
63.363138,1702.473667,7698.141797,8427.050478
63.363448,-1184.329507,6291.750507,6435.202183
63.363757,-2590.720797,6291.750507,-1378.971896
63.364067,1480.411884,10807.006753,-12334.137518
63.364376,-1850.514855,12213.398043,-14785.643111
63.364686,-1332.370696,17987.004391,-8120.612279
63.364995,-3404.947333,12435.459826,-4749.792088
63.365305,-3478.967927,8808.450710,-1532.190996
63.365614,-3034.844362,7772.162391,3370.820191
63.365924,666.185348,7105.977043,0.000000
63.366233,7105.977043,8364.327145,-2834.553343
63.366543,5255.462188,8438.347739,4673.182538
63.366852,3330.926739,8660.409521,9806.022374
63.367162,1332.370696,3627.009116,7124.688131
63.367471,-2368.659014,3923.091493,4290.134789
63.367780,-3034.844362,4663.297435,-1685.410096
63.368090,-2886.803174,9844.739029,-10801.946522
63.368399,962.267725,12879.583391,-15015.471761
63.368709,-1258.350101,13027.624579,-11874.480219
63.369018,-1702.473667,13841.851115,-3600.648841
63.369328,-5033.400406,9770.718434,2068.457845
63.369637,-2368.659014,7179.997637,2987.772442
63.369947,1554.432478,8142.265362,-536.266849
63.370256,6513.812290,10658.965565,-1455.581446
63.370566,7179.997637,12953.603985,4136.915689
63.370875,3997.112087,13027.624579,10342.289223
63.371185,1554.432478,7920.203579,9346.365076
63.371494,592.164754,5107.421000,5439.278036
63.371804,-1406.391290,7179.997637,-2221.676944
63.372113,-1480.411884,9474.636058,-9346.365076
63.372422,1702.473667,13619.789333,-12104.308868
63.372732,-1332.370696,15544.324782,-6205.373534
63.373041,-370.102971,13915.871710,459.657299
63.373351,-6069.688724,9178.553681,536.266849
63.373660,-3182.885551,8882.471304,612.876398
63.373970,3256.906145,6587.832884,-1685.410096
63.374279,5181.441594,8808.450710,-4826.401637
63.374589,5625.565159,12065.356855,6205.373534
63.374898,3627.009116,8438.347739,11108.384721
63.375208,-592.164754,3627.009116,8273.831378
63.375517,-2442.679609,3701.029710,4443.353888
63.375827,-5477.523971,4145.153275,1302.362347
63.376136,-666.185348,8586.388927,-11338.213370
63.376445,1110.308913,14434.015869,-14402.595362
63.376755,-1184.329507,14211.954086,-8886.707777
63.377064,-2368.659014,13323.706956,-1838.629195
63.377374,-4737.318029,9992.780217,-306.438199
63.377683,-1702.473667,8068.244768,306.438199
63.377993,3182.885551,9104.533087,-306.438199
63.378302,5329.482782,10214.842000,2451.505594
63.378612,6587.832884,12361.439231,6128.763984
63.378921,5107.421000,10288.862594,6741.640382
63.379231,148.041188,8882.471304,5669.106685
63.379540,-2368.659014,6291.750507,2757.943793
63.379850,-888.247130,7476.080014,-6281.983084
63.380159,1036.288319,9918.759623,-10265.679673
63.380469,-74.020594,14211.954086,-8427.050478
63.380778,-148.041188,13471.748144,-4826.401637
63.381087,-2220.617826,11103.089130,-3140.991542
63.381397,-4219.173869,7920.203579,-612.876398
63.381706,-296.082377,5403.503377,-2451.505594
63.382016,3478.967927,8216.285956,-4060.306139
63.382325,4367.215058,10955.047942,919.314598
63.382635,6143.709319,9622.677246,7890.783629
63.382944,4293.194464,7105.977043,4290.134789
63.383254,-814.226536,2812.782580,7277.907231
63.383563,-2442.679609,4663.297435,4596.572988
63.383873,-2664.741391,6365.771101,-5592.497135
63.384182,2590.720797,10658.965565,-13330.061665
63.384492,1702.473667,16580.613101,-10572.117872
63.384801,-2220.617826,14211.954086,-6281.983084
63.385111,-1924.535449,12435.459826,-2451.505594
63.385420,-5551.544565,8438.347739,0.000000
63.385729,222.061783,9178.553681,-3370.820191
63.386039,3701.029710,9696.697840,-1378.971896
63.386348,5699.585753,10066.800811,1608.800546
63.386658,6513.812290,11251.130318,6665.030833
63.386967,3849.070898,8734.430116,7584.345430
63.387277,888.247130,5329.482782,9806.022374
63.387586,-1776.494261,4071.132681,3830.477490
63.387896,-1184.329507,7179.997637,-7431.126331
63.388205,1924.535449,11917.315666,-13023.623466
63.388515,-222.061783,14656.077652,-9806.022374
63.388824,-666.185348,13101.645173,-4060.306139
63.389134,-3775.050304,8438.347739,-689.485948
63.389443,-4293.194464,8142.265362,1302.362347
63.389752,-1480.411884,8068.244768,536.266849
63.390062,3330.926739,11251.130318,-4596.572988
63.390371,5403.503377,11177.109724,-1608.800546
63.390681,5255.462188,11177.109724,5515.887586
63.390990,2738.761985,7105.977043,9116.536426
63.391300,-2738.761985,2960.823768,9116.536426
63.391609,-1998.556043,4441.235652,1455.581446
63.391919,-2072.576638,6069.688724,-5975.544884
63.392228,1184.329507,11103.089130,-11951.089769
63.392538,370.102971,14137.933492,-10418.898773
63.392847,-370.102971,12731.542202,-6511.811733
63.393157,-3849.070898,13767.830521,-2221.676944
63.393466,-4219.173869,9696.697840,2757.943793
63.393776,-0.000000,8142.265362,0.000000
63.394085,3182.885551,9030.512492,-3370.820191
63.394394,7772.162391,8882.471304,2374.896044
63.394704,4737.318029,11103.089130,8427.050478
63.395013,3256.906145,7846.182985,7507.735880
63.395323,-370.102971,7031.956449,5669.106685
63.395632,-666.185348,3701.029710,2681.334243
63.395942,-1850.514855,9178.553681,-6665.030833
63.396251,1702.473667,11029.068536,-10801.946522
63.396561,1998.556043,14952.160028,-9116.536426
63.396870,-2886.803174,12805.562797,-5132.839837
63.397180,-5329.482782,9104.533087,689.485948
63.397489,-4293.194464,9178.553681,76.609550
63.397799,888.247130,8808.450710,-4903.011187
63.398108,4737.318029,10955.047942,-5515.887586
63.398418,2590.720797,12583.501014,3370.820191
63.398727,5181.441594,7254.018232,5745.716235
63.399036,3256.906145,6217.729913,5975.544884
63.399346,-2368.659014,3552.988522,8503.660028
63.399655,-2442.679609,3182.885551,4596.572988
63.399965,-0.000000,5921.647536,-9882.631924
63.400274,2368.659014,11769.274478,-15628.348159
63.400584,1110.308913,15544.324782,-8963.317327
63.400893,-3330.926739,13175.665768,-4290.134789
63.401203,-3627.009116,11621.233289,-2681.334243
63.401512,-3478.967927,6069.688724,-2145.067394
63.401822,-962.267725,9622.677246,-766.095498
63.402131,4367.215058,8142.265362,-3064.381992
63.402441,6439.791695,11843.295072,1072.533697
63.402750,3923.091493,10881.027347,7124.688131
63.403060,4071.132681,8808.450710,5669.106685
63.403369,-1924.535449,6365.771101,5898.935335
63.403678,-3182.885551,4885.359217,2528.115143
63.403988,1258.350101,8882.471304,-9193.145976
63.404297,888.247130,11399.171507,-14172.766713
63.404607,-370.102971,13841.851115,-7737.564530
63.404916,-3552.988522,12361.439231,-1072.533697
63.405226,-2368.659014,9770.718434,-1915.238745
63.405535,-3701.029710,8438.347739,-2298.286494
63.405845,-2294.638420,9104.533087,-2604.724693
63.406154,3330.926739,11621.233289,-4136.915689
63.406464,6513.812290,11473.192101,-1685.410096
63.406773,5181.441594,9622.677246,5745.716235
63.407083,1924.535449,3923.091493,9882.631924
63.407392,-1628.453072,4293.194464,8273.831378
63.407701,-1776.494261,5033.400406,2911.162892
63.408011,-666.185348,7624.121203,-7277.907231
63.408320,2738.761985,12435.459826,-14172.766713
63.408630,1258.350101,15618.345376,-13330.061665
63.408939,-3997.112087,13545.768739,-4903.011187
63.409249,-3775.050304,10658.965565,-2374.896044
63.409558,-5403.503377,8734.430116,-1455.581446
63.409868,-370.102971,7550.100608,-1455.581446
63.410177,4515.256246,8734.430116,-919.314598
63.410487,6439.791695,11621.233289,3140.991542
63.410796,6069.688724,10436.903782,7277.907231
63.411106,222.061783,6513.812290,8886.707777
63.411415,-2516.700203,4219.173869,7507.735880
63.411725,-1332.370696,4959.379811,-1915.238745
63.412034,-814.226536,7846.182985,-11184.994271
63.412343,-0.000000,12435.459826,-9806.022374
63.412653,-2294.638420,14582.057057,-4903.011187
63.412962,-0.000000,12435.459826,-2528.115143
63.413272,-5995.668130,9326.594869,-2451.505594
63.413581,-4663.297435,8290.306550,-2451.505594
63.413891,1184.329507,10066.800811,-6358.592633
63.414200,3182.885551,11991.336260,-5362.668486
63.414510,6291.750507,11769.274478,4673.182538
63.414819,3404.947333,7772.162391,10189.070123
63.415129,1332.370696,3404.947333,11261.603821
63.415438,-2146.597232,1776.494261,10725.336972
63.415748,-1110.308913,2442.679609,-229.828649
63.416057,444.123565,9622.677246,-13713.109414
63.416367,962.267725,14582.057057,-14479.204912
63.416676,-888.247130,15692.365970,-8886.707777
63.416985,-1480.411884,13471.748144,-5515.887586
63.417295,-4737.318029,11473.192101,459.657299
63.417604,-6513.812290,8364.327145,1915.238745
63.417914,-0.000000,9030.512492,-1532.190996
63.418223,6291.750507,9474.636058,-4903.011187
63.418533,5033.400406,11843.295072,2681.334243
63.418842,4663.297435,11547.212695,8503.660028
63.419152,2738.761985,5033.400406,8350.440928
63.419461,-2368.659014,5995.668130,5975.544884
63.419771,-3182.885551,6439.791695,-459.657299
63.420080,888.247130,7105.977043,-9576.193725
63.420390,-1776.494261,12879.583391,-11031.775171
63.420699,-962.267725,13101.645173,-7507.735880
63.421008,-2146.597232,11695.253884,-8197.221829
63.421318,-4885.359217,8734.430116,-4979.620737
63.421627,-4441.235652,9844.739029,-2528.115143
63.421937,-296.082377,9844.739029,-4903.011187
63.422246,6513.812290,10881.027347,-4213.525239
63.422556,4737.318029,12139.377449,4749.792088
63.422865,2072.576638,5995.668130,9499.584175
63.423175,1406.391290,4293.194464,8044.002729
63.423484,-1406.391290,888.247130,3907.087040
63.423794,-2072.576638,6587.832884,-2145.067394
63.424103,-1036.288319,10066.800811,-10189.070123
63.424413,-148.041188,14878.139434,-13942.938064
63.424722,-1184.329507,18061.024985,-11031.775171
63.425032,-2664.741391,12953.603985,-5209.449386
63.425341,-6217.729913,9030.512492,-919.314598
63.425650,-4959.379811,6957.935855,612.876398
63.425960,3849.070898,8882.471304,-4443.353888
63.426269,4515.256246,10214.842000,-2834.553343
63.426579,6069.688724,11029.068536,7814.174080
63.426888,3034.844362,7698.141797,10265.679673
63.427198,814.226536,8142.265362,6358.592633
63.427507,-2220.617826,3849.070898,6128.763984
63.427817,-3330.926739,5403.503377,-1685.410096
63.428126,-0.000000,9696.697840,-12640.575717
63.428436,370.102971,13767.830521,-13330.061665
63.428745,-5477.523971,14137.933492,-7277.907231
63.429055,-4515.256246,13767.830521,-5132.839837
63.429364,-5773.606348,9400.615463,-6281.983084
63.429674,-4293.194464,7772.162391,-4749.792088
63.429983,2664.741391,8734.430116,-5975.544884
63.430292,4811.338623,8216.285956,-1532.190996
63.430602,4515.256246,9104.533087,6511.811733
63.430911,4959.379811,4145.153275,13713.109414
63.431221,296.082377,1184.329507,11261.603821
63.431530,-2664.741391,2886.803174,7048.078582
63.431840,-1628.453072,4663.297435,-2221.676944
63.432149,-1332.370696,14211.954086,-16624.272307
63.432459,888.247130,18875.251521,-18156.463303
63.432768,-518.144159,15840.407159,-9269.755526
63.433078,-4589.276840,13175.665768,-4519.963438
63.433387,-5699.585753,11325.150913,-919.314598
63.433697,-2738.761985,9918.759623,2068.457845
63.434006,592.164754,7772.162391,0.000000
63.434315,5625.565159,11177.109724,842.705048
63.434625,5847.626942,12509.480420,6511.811733
63.434934,3849.070898,9696.697840,10725.336972
63.435244,370.102971,4515.256246,9269.755526
63.435553,-2812.782580,2738.761985,4519.963438
63.435863,962.267725,3404.947333,-5056.230287
63.436172,-2072.576638,11325.150913,-10112.460574
63.436482,-370.102971,13323.706956,-11184.994271
63.436791,-4441.235652,15026.180623,-7507.735880
63.437101,-5255.462188,13989.892304,-5745.716235
63.437410,-4663.297435,10066.800811,-7124.688131
63.437720,-2812.782580,8808.450710,-6435.202183
63.438029,1480.411884,10362.883188,-2145.067394
63.438339,3478.967927,9622.677246,3830.477490
63.438648,4663.297435,9252.574275,8656.879127
63.438957,2738.761985,4441.235652,12104.308868
63.439267,518.144159,592.164754,8963.317327
63.439576,-3182.885551,2442.679609,3907.087040
63.439886,-814.226536,6291.750507,-7048.078582
63.440195,1554.432478,12435.459826,-16164.615008
63.440505,-518.144159,16876.695478,-14402.595362
63.440814,-3478.967927,17394.839637,-7814.174080
63.441124,-3923.091493,11843.295072,-6894.859482
63.441433,-3552.988522,7772.162391,-1378.971896
63.441743,-3182.885551,9622.677246,3753.867940
63.442052,3108.864956,9178.553681,-919.314598
63.442362,9178.553681,11325.150913,-2451.505594
63.442671,6957.935855,11991.336260,7507.735880
63.442981,666.185348,7550.100608,10418.898773
63.443290,-0.000000,3552.988522,8810.098227
63.443599,-2294.638420,5699.585753,2987.772442
63.443909,-2072.576638,7476.080014,-6511.811733
63.444218,-888.247130,10955.047942,-14709.033562
63.444528,-3775.050304,12731.542202,-12180.918418
63.444837,-3256.906145,12213.398043,-8656.879127
63.445147,-3775.050304,11843.295072,-7124.688131
63.445456,-6217.729913,9474.636058,-2528.115143
63.445766,-962.267725,8216.285956,3907.087040
63.446075,2442.679609,7624.121203,-3217.601092
63.446385,4959.379811,8512.368333,612.876398
63.446694,4367.215058,8068.244768,10572.117872
63.447004,4367.215058,3108.864956,11491.432470
63.447313,962.267725,4515.256246,5822.325785
63.447622,-2368.659014,6069.688724,2681.334243
63.447932,-1998.556043,7254.018232,-6741.640382
63.448241,-1184.329507,13323.706956,-16394.443657
63.448551,148.041188,16950.716072,-14709.033562
63.448860,-1702.473667,16432.571912,-7660.954980
63.449170,-5033.400406,13915.871710,-4979.620737
63.449479,-4589.276840,8660.409521,-1915.238745
63.449789,-1924.535449,8216.285956,1225.752797
63.450098,1850.514855,8586.388927,1915.238745
63.450408,8512.368333,13619.789333,2834.553343
63.450717,8290.306550,9548.656652,8733.488677
63.451027,1776.494261,7698.141797,11108.384721
63.451336,-1776.494261,4071.132681,9193.145976
63.451646,-3034.844362,2738.761985,2757.943793
63.451955,-2664.741391,6587.832884,-10035.851024
63.452264,-1924.535449,10140.821405,-13253.452115
63.452574,-2146.597232,16580.613101,-9729.412825
63.452883,-2960.823768,16284.530724,-5898.935335
63.453193,-2220.617826,10807.006753,-7354.516781
63.453502,-7846.182985,7994.224174,766.095498
63.453812,-740.205942,7698.141797,612.876398
63.454121,5033.400406,6143.709319,-3600.648841
63.454431,2812.782580,9770.718434,383.047749
63.454740,4737.318029,8142.265362,11951.089769
63.455050,1850.514855,4811.338623,13866.328514
63.455359,-222.061783,4219.173869,7737.564530
63.455669,-2368.659014,5995.668130,1149.143247
63.455978,-1776.494261,8290.306550,-8963.317327
63.456288,-1480.411884,13101.645173,-16011.395908
63.456597,-74.020594,15248.242405,-14785.643111
63.456906,-74.020594,15840.407159,-7584.345430
63.457216,-5255.462188,11843.295072,-4979.620737
63.457525,-4145.153275,8956.491898,4136.915689
63.457835,-888.247130,9400.615463,4596.572988
63.458144,4885.359217,9252.574275,-536.266849
63.458454,8290.306550,11695.253884,-229.828649
63.458763,4663.297435,11177.109724,7814.174080
63.459073,3404.947333,7254.018232,9039.926876
63.459382,-1776.494261,5699.585753,4903.011187
63.459692,-2516.700203,6217.729913,919.314598
63.460001,-4219.173869,7179.997637,-4979.620737
63.460311,-3404.947333,12435.459826,-12793.794817
63.460620,-1332.370696,12805.562797,-11644.651570
63.460930,-2146.597232,12287.418637,-9116.536426
63.461239,-4737.318029,9474.636058,-5898.935335
63.461548,-4515.256246,8734.430116,-2221.676944
63.461858,740.205942,7328.038826,-2221.676944
63.462167,3108.864956,6587.832884,-2834.553343
63.462497,4959.379811,7550.100608,7354.516781
63.462806,4737.318029,7846.182985,14632.424012
63.463115,3182.885551,5329.482782,8656.879127
63.463425,-0.000000,2886.803174,3600.648841
63.463734,-3997.112087,6957.935855,-2528.115143
63.464044,-2442.679609,9622.677246,-13100.233016
63.464353,-3108.864956,14211.954086,-15628.348159
63.464663,1258.350101,18357.107362,-12180.918418
63.464972,-740.205942,15248.242405,-5286.058936
63.465282,-5181.441594,12213.398043,2451.505594
63.465591,-4145.153275,6809.894666,6665.030833
63.465900,-148.041188,9252.574275,383.047749
63.466210,7179.997637,10881.027347,-4903.011187
63.466519,6809.894666,10362.883188,2068.457845
63.466829,3775.050304,12731.542202,8963.317327
63.467138,1110.308913,6217.729913,10342.289223
63.467448,-1702.473667,5847.626942,6435.202183
63.467757,-3182.885551,5699.585753,1608.800546
63.468067,-3849.070898,8512.368333,-7354.516781
63.468376,962.267725,11251.130318,-12640.575717
63.468686,-1850.514855,14211.954086,-9499.584175
63.468995,-740.205942,11621.233289,-7431.126331
63.469304,-5477.523971,10510.924376,-3983.696590
63.469614,-3849.070898,10066.800811,0.000000
63.469923,-0.000000,7402.059420,-919.314598
63.470233,2738.761985,9326.594869,-2145.067394
63.470542,5477.523971,9400.615463,6358.592633
63.470852,4367.215058,5403.503377,11568.042020
63.471161,1258.350101,4811.338623,8427.050478
63.471471,740.205942,4737.318029,2221.676944
63.471780,-4219.173869,5773.606348,-919.314598
63.472089,-814.226536,13249.686362,-11261.603821
63.472399,1924.535449,14804.118840,-16777.491406
63.472708,2146.597232,16062.468941,-12104.308868
63.473018,-4441.235652,13619.789333,-3447.429741
63.473327,-4145.153275,9178.553681,3907.087040
63.473637,-3997.112087,7550.100608,6894.859482
63.473946,3701.029710,7254.018232,459.657299
63.474256,5773.606348,11917.315666,-2451.505594
63.474565,7254.018232,14508.036463,5056.230287
63.474875,3034.844362,9844.739029,7890.783629
63.475184,1332.370696,7031.956449,6358.592633
63.475493,-666.185348,5329.482782,4979.620737
63.475803,-2738.761985,6217.729913,383.047749
63.476112,-3552.988522,8956.491898,-7584.345430
63.476422,-1406.391290,10807.006753,-8963.317327
63.476731,592.164754,12805.562797,-8427.050478
63.477041,-3182.885551,12953.603985,-6052.154434
63.477350,-4071.132681,8586.388927,-1685.410096
63.477660,-3849.070898,8364.327145,-995.924147
63.477969,1480.411884,7254.018232,-3677.258390
63.478278,4219.173869,9400.615463,0.000000
63.478588,4737.318029,9030.512492,6205.373534
63.478897,3108.864956,7031.956449,10265.679673
63.479207,-1036.288319,5181.441594,7584.345430
63.479516,-296.082377,5921.647536,1991.848295
63.479826,-1554.432478,5995.668130,-6358.592633
63.480135,-0.000000,11473.192101,-13330.061665
63.480445,1628.453072,15174.221811,-13559.890315
63.480754,2368.659014,13767.830521,-9269.755526
63.481064,-3552.988522,13027.624579,-995.924147
63.481373,-5181.441594,8882.471304,7814.174080
63.481682,-2590.720797,8808.450710,3217.601092
63.481992,4367.215058,8956.491898,-5056.230287
63.482301,6365.771101,12287.418637,-4366.744339
63.482611,6291.750507,14359.995275,2604.724693
63.482920,6439.791695,10140.821405,3370.820191
63.483230,888.247130,7846.182985,8350.440928
63.483539,-2442.679609,5255.462188,7354.516781
63.483849,-2516.700203,5403.503377,-1072.533697
63.484158,-592.164754,9252.574275,-7431.126331
63.484468,296.082377,11325.150913,-10572.117872
63.484777,-0.000000,13397.727550,-11874.480219
63.485086,-1406.391290,11547.212695,-7584.345430
63.485396,-6661.853478,8956.491898,919.314598
63.485705,-3256.906145,9326.594869,3217.601092
63.486015,1554.432478,8364.327145,-3064.381992
63.486324,3923.091493,7698.141797,306.438199
63.486634,2738.761985,7772.162391,6894.859482
63.486943,3701.029710,5921.647536,6741.640382
63.487253,-2146.597232,4441.235652,3217.601092
63.487562,-2072.576638,6217.729913,1915.238745
63.487871,-1628.453072,7031.956449,-6205.373534
63.488181,666.185348,10436.903782,-12027.699319
63.488490,518.144159,14730.098246,-11338.213370
63.488800,888.247130,12879.583391,-7201.297681
63.489109,-740.205942,11621.233289,-1991.848295
63.489419,-5255.462188,6513.812290,4673.182538
63.489728,-1332.370696,9030.512492,4136.915689
63.490038,3997.112087,12213.398043,-7048.078582
63.490347,7105.977043,13101.645173,-5056.230287
63.490657,7254.018232,15100.201217,3830.477490
63.490966,2960.823768,10140.821405,7507.735880
63.491275,-0.000000,6513.812290,7967.393179
63.491585,-2294.638420,5033.400406,6281.983084
63.491894,-2072.576638,4811.338623,-995.924147
63.492204,-444.123565,10140.821405,-9806.022374
63.492513,1850.514855,13397.727550,-9269.755526
63.492823,-2664.741391,13027.624579,-9806.022374
63.493132,-2590.720797,12805.562797,-4826.401637
63.493442,-3775.050304,9474.636058,-2221.676944
63.493751,-3997.112087,6809.894666,-1455.581446
63.494060,1110.308913,6365.771101,-2528.115143
63.494370,4737.318029,7328.038826,7584.345430
63.494679,3997.112087,9696.697840,8810.098227
63.494989,4219.173869,5329.482782,10112.460574
63.495298,-444.123565,2664.741391,7277.907231
63.495608,-2516.700203,2664.741391,4060.306139
63.495917,-2368.659014,6883.915261,-6894.859482
63.496227,-0.000000,10584.944971,-14938.862211
63.496536,2664.741391,14730.098246,-12640.575717
63.496846,-1110.308913,15174.221811,-5056.230287
63.497155,-2590.720797,12657.521608,689.485948
63.497464,-4219.173869,9030.512492,4213.525239
63.497774,-1184.329507,8660.409521,2604.724693
63.498083,4737.318029,11177.109724,-3524.039291
63.498393,6587.832884,13767.830521,-4443.353888
63.498702,7550.100608,14508.036463,383.047749
63.499012,3552.988522,9918.759623,4979.620737
63.499321,-518.144159,7254.018232,8350.440928
63.499631,-3108.864956,3627.009116,7890.783629
63.499940,-1332.370696,4663.297435,2145.067394
63.500249,-148.041188,10436.903782,-7431.126331
63.500559,-0.000000,13323.706956,-8503.660028
63.500868,1184.329507,11473.192101,-9039.926876
63.501178,-3404.947333,9918.759623,-7890.783629
63.501487,-4367.215058,8956.491898,76.609550
63.501797,-3034.844362,7772.162391,-229.828649
63.502106,2220.617826,7624.121203,-2604.724693
63.502416,3330.926739,7624.121203,1302.362347
63.502725,3034.844362,7550.100608,8503.660028
63.503035,1406.391290,8068.244768,9729.412825
63.503344,740.205942,3849.070898,2987.772442
63.503653,-2368.659014,5107.421000,689.485948
63.503963,-296.082377,6809.894666,-5975.544884
63.504272,1776.494261,10140.821405,-12257.527968
63.504582,518.144159,15248.242405,-10265.679673
63.504891,-74.020594,13841.851115,-2528.115143
63.505201,-2812.782580,11843.295072,-689.485948
63.505510,-3108.864956,8734.430116,-383.047749
63.505820,1480.411884,9770.718434,-612.876398
63.506129,3478.967927,11177.109724,-4903.011187
63.506438,8512.368333,13175.665768,-4136.915689
63.506748,7402.059420,13101.645173,3677.258390
63.507057,1110.308913,11325.150913,12104.308868
63.507367,888.247130,5477.523971,10265.679673
63.507676,-3701.029710,5107.421000,4979.620737
63.507986,-592.164754,7550.100608,-2834.553343
63.508295,1406.391290,10288.862594,-11338.213370
63.508605,-1110.308913,16950.716072,-14555.814462
63.508914,-740.205942,13619.789333,-7967.393179
63.509224,-4737.318029,11695.253884,-4519.963438
63.509533,-5033.400406,8808.450710,-3447.429741
63.509842,-1776.494261,6587.832884,-1838.629195
63.510152,1406.391290,7179.997637,-689.485948
63.510461,1924.535449,7105.977043,3677.258390
63.510771,5625.565159,7179.997637,8044.002729
63.511080,4515.256246,5329.482782,8273.831378
63.511390,-1998.556043,3108.864956,6511.811733
63.511699,-1850.514855,4589.276840,1455.581446
63.512009,-1850.514855,7328.038826,-7048.078582
63.512318,3478.967927,12435.459826,-13406.671215
63.512628,-222.061783,16580.613101,-10035.851024
63.512937,-2220.617826,13841.851115,1532.190996
63.513246,-3923.091493,10510.924376,766.095498
63.513556,-3404.947333,10584.944971,0.000000
63.513865,-74.020594,11029.068536,-2987.772442
63.514175,3330.926739,12731.542202,-5056.230287
63.514484,6587.832884,14952.160028,-1608.800546
63.514794,7179.997637,13841.851115,4596.572988
63.515103,4219.173869,7772.162391,10035.851024
63.515413,-1480.411884,4145.153275,13100.233016
63.515722,-1924.535449,4145.153275,10342.289223
63.516031,-1776.494261,7031.956449,-3600.648841
63.516341,1184.329507,11621.233289,-13559.890315
63.516650,-370.102971,13545.768739,-12027.699319
63.516960,-2368.659014,16284.530724,-8427.050478
63.517269,-4737.318029,12879.583391,-3983.696590
63.517579,-5329.482782,8586.388927,-4060.306139
63.517888,-2886.803174,8364.327145,459.657299
63.518198,148.041188,7624.121203,383.047749
63.518507,4515.256246,7254.018232,1302.362347
63.518817,3997.112087,6735.874072,8656.879127
63.519126,2368.659014,4811.338623,9269.755526
63.519435,518.144159,3182.885551,4366.744339
63.519745,-1850.514855,3478.967927,-919.314598
63.520054,-1184.329507,7031.956449,-9652.803275
63.520364,592.164754,11769.274478,-13253.452115
63.520673,-666.185348,16062.468941,-8733.488677
63.520983,-3108.864956,15396.283594,-3064.381992
63.521292,-3701.029710,12287.418637,-3677.258390
63.521602,-2072.576638,7624.121203,-2604.724693
63.521911,-444.123565,10807.006753,-3677.258390
63.522220,5551.544565,12213.398043,-4290.134789
63.522530,9400.615463,11251.130318,-306.438199
63.522839,6365.771101,13175.665768,9806.022374
63.523149,2368.659014,6883.915261,14709.033562
63.523458,-2072.576638,4367.215058,12793.794817
63.523768,-2072.576638,5033.400406,2451.505594
63.524077,592.164754,8068.244768,-10035.851024
63.524387,592.164754,12287.418637,-12180.918418
63.524696,-1258.350101,14804.118840,-11491.432470
63.525006,-2368.659014,13323.706956,-9269.755526
63.525315,-4959.379811,11843.295072,-6281.983084
63.525624,-4959.379811,8216.285956,1532.190996
63.525934,-2886.803174,6809.894666,766.095498
63.526243,2368.659014,6809.894666,0.000000
63.526553,7179.997637,6883.915261,3217.601092
63.526862,4293.194464,6735.874072,9116.536426
63.527172,740.205942,5181.441594,15245.300410
63.527481,-888.247130,3552.988522,5898.935335
63.527791,-1554.432478,4737.318029,-4290.134789
63.528100,-0.000000,7920.203579,-10495.508323
63.528409,-1258.350101,13101.645173,-11568.042020
63.528719,-2368.659014,15914.427753,-9116.536426
63.529028,-1998.556043,14285.974681,-7660.954980
63.529338,-5477.523971,10362.883188,-3064.381992
63.529647,-3997.112087,8956.491898,-766.095498
63.529957,444.123565,11029.068536,-4443.353888
63.530266,7772.162391,11029.068536,-5056.230287
63.530576,8068.244768,11917.315666,2068.457845
63.530885,4441.235652,9548.656652,10725.336972
63.531195,1924.535449,4663.297435,14325.985813
63.531504,-4589.276840,2886.803174,9346.365076
63.531813,-1258.350101,4811.338623,842.705048
63.532123,-1406.391290,10214.842000,-9806.022374
63.532432,592.164754,16358.551318,-15704.957709
63.532742,222.061783,14211.954086,-13942.938064
63.533051,-3034.844362,13989.892304,-7814.174080
63.533361,-7402.059420,11325.150913,-1532.190996
63.533670,-5477.523971,8808.450710,0.000000
63.533980,1776.494261,6143.709319,-536.266849
63.534289,2442.679609,7550.100608,2145.067394
63.534598,5699.585753,9400.615463,5439.278036
63.534908,4515.256246,6661.853478,9116.536426
63.535217,2664.741391,2738.761985,7584.345430
63.535527,-2368.659014,3923.091493,6511.811733
63.535836,-3997.112087,5255.462188,-995.924147
63.536146,-3478.967927,8290.306550,-10189.070123
63.536455,-444.123565,14359.995275,-13023.623466
63.536765,-2368.659014,14508.036463,-9729.412825
63.537074,-2960.823768,13693.809927,-7584.345430
63.537384,-2738.761985,10288.862594,-4903.011187
63.537693,-3552.988522,9844.739029,-2145.067394
63.538002,1258.350101,10362.883188,-1302.362347
63.538312,5921.647536,12509.480420,-459.657299
63.538621,7031.956449,8660.409521,3294.210641
63.538931,6735.874072,7105.977043,10955.165621
63.539240,-592.164754,5921.647536,12717.185267
63.539550,-740.205942,3849.070898,7431.126331
63.539859,-1924.535449,8586.388927,-3677.258390
63.540169,592.164754,11399.171507,-13483.280765
63.540478,-1184.329507,15322.262999,-13942.938064
63.540787,-2590.720797,16358.551318,-10878.556072
63.541097,-2368.659014,13915.871710,-8580.269578
63.541406,-7179.997637,9918.759623,-6128.763984
63.541716,-4737.318029,7698.141797,0.000000
63.542025,444.123565,8586.388927,-689.485948
63.542335,5181.441594,8216.285956,0.000000
63.542644,6661.853478,8882.471304,6205.373534
63.542954,3849.070898,4515.256246,15704.957709
63.543263,962.267725,2368.659014,11108.384721
63.543573,-1776.494261,4293.194464,3447.429741
63.543882,-2590.720797,4737.318029,-6435.202183
63.544191,-2590.720797,11325.150913,-11491.432470
63.544501,-2146.597232,14656.077652,-13023.623466
63.544810,-740.205942,15766.386565,-11491.432470
63.545120,-2812.782580,14359.995275,-7737.564530
63.545429,-4959.379811,10510.924376,-2604.724693
63.545739,-4219.173869,6661.853478,0.000000
63.546048,2516.700203,9770.718434,-919.314598
63.546358,7846.182985,8438.347739,-1455.581446
63.546667,7402.059420,9252.574275,6052.154434
63.546977,4515.256246,5847.626942,13559.890315
63.547286,-1406.391290,4515.256246,13559.890315
63.547595,-296.082377,5773.606348,4596.572988
63.547905,-3182.885551,9992.780217,-5745.716235
63.548214,296.082377,13767.830521,-13483.280765
63.548524,-2220.617826,15914.427753,-13483.280765
63.548833,-962.267725,16284.530724,-13483.280765
63.549143,-5033.400406,13471.748144,-8810.098227
63.549452,-6957.935855,8290.306550,-1072.533697
63.549762,-3478.967927,6661.853478,2374.896044
63.550071,2738.761985,8364.327145,-3677.258390
63.550380,7254.018232,8142.265362,689.485948
63.550690,3330.926739,8956.491898,9806.022374
63.550999,4071.132681,2368.659014,11874.480219
63.551309,-1702.473667,4663.297435,6894.859482
63.551618,-666.185348,4441.235652,2221.676944
63.551928,-4589.276840,7105.977043,-6511.811733
63.552237,-740.205942,9844.739029,-12793.794817
63.552547,-444.123565,15100.201217,-12027.699319
63.552856,1850.514855,13767.830521,-9959.241474
63.553166,-3404.947333,12583.501014,-6281.983084
63.553475,-7772.162391,10066.800811,689.485948
63.553784,-222.061783,7550.100608,689.485948
63.554094,2960.823768,9252.574275,-3983.696590
63.554403,7402.059420,10658.965565,2451.505594
63.554713,5477.523971,11843.295072,9959.241474
63.555022,4737.318029,8734.430116,10725.336972
63.555332,-148.041188,4737.318029,9652.803275
63.555641,-2664.741391,6291.750507,2451.505594
63.555951,-2072.576638,9326.594869,-7967.393179
63.556260,1406.391290,11991.336260,-15321.909960
63.556569,-2220.617826,17172.777854,-12870.404366
63.556879,-1850.514855,15840.407159,-9193.145976
63.557188,222.061783,10732.986159,-8733.488677
63.557498,-8956.491898,8438.347739,0.000000
63.557807,-2516.700203,7402.059420,1762.019645
63.558117,2886.803174,7105.977043,-1455.581446
63.558426,6439.791695,7179.997637,2221.676944
63.558736,3923.091493,9178.553681,10725.336972
63.559045,2220.617826,4589.276840,11261.603821
63.559355,-74.020594,3997.112087,5822.325785
63.559664,-5329.482782,6439.791695,1838.629195
63.559973,-2294.638420,7476.080014,-9959.241474
63.560283,-1776.494261,12657.521608,-15781.567259
63.560592,-1110.308913,15322.262999,-14249.376263
63.560902,-1258.350101,14359.995275,-8886.707777
63.561211,-2664.741391,11325.150913,-4213.525239
63.561521,-6809.894666,9770.718434,1378.971896
63.561830,-1628.453072,7846.182985,3524.039291
63.562140,7105.977043,8734.430116,-1838.629195
63.562449,8290.306550,9770.718434,76.609550
63.562758,4959.379811,10881.027347,10035.851024
63.563068,1998.556043,7179.997637,11951.089769
63.563377,-888.247130,4959.379811,7277.907231
63.563687,-3182.885551,7698.141797,1532.190996
63.563996,-1776.494261,9104.533087,-7431.126331
63.564306,-2294.638420,13545.768739,-11338.213370
63.564615,-1406.391290,15544.324782,-13713.109414
63.564925,518.144159,13619.789333,-8886.707777
63.565234,-4811.338623,10214.842000,-3524.039291
63.565544,-5625.565159,8290.306550,1685.410096
63.565853,-2294.638420,7105.977043,2451.505594
63.566163,3404.947333,7772.162391,-2068.457845
63.566472,6735.874072,8586.388927,2145.067394
63.566782,4071.132681,7846.182985,7660.954980
63.567091,1628.453072,5551.544565,8503.660028
63.567401,-370.102971,4071.132681,6894.859482
63.567710,-5107.421000,3997.112087,1685.410096
63.568020,-3552.988522,8290.306550,-8580.269578
63.568329,-0.000000,13101.645173,-14249.376263
63.568639,740.205942,13619.789333,-14862.252661
63.568948,-2886.803174,15396.283594,-10495.508323
63.569258,-2960.823768,8882.471304,-2298.286494
63.569567,-5773.606348,8586.388927,1991.848295
63.569877,962.267725,7772.162391,919.314598
63.570186,5847.626942,10140.821405,-306.438199
63.570496,4293.194464,10955.047942,3677.258390
63.570805,6735.874072,9622.677246,8733.488677
63.571115,2664.741391,7550.100608,7814.174080
63.571424,-2368.659014,6735.874072,536.266849
63.571734,-1628.453072,7920.203579,919.314598
63.572043,-1998.556043,7846.182985,-7814.174080
63.572353,-2220.617826,14582.057057,-13176.842566
63.572662,888.247130,15544.324782,-11797.870669
63.572972,-3775.050304,14211.954086,-7737.564530
63.573281,-6217.729913,9696.697840,-306.438199
63.573591,-4293.194464,6291.750507,1915.238745
63.573900,518.144159,8364.327145,-1225.752797
63.574210,3775.050304,8216.285956,-2987.772442
63.574519,5995.668130,8660.409521,4060.306139
63.574829,3108.864956,8586.388927,8197.221829
63.575138,2368.659014,6291.750507,8197.221829
63.575448,-740.205942,3478.967927,6741.640382
63.575757,-5551.544565,3330.926739,459.657299
63.576067,-666.185348,8808.450710,-7737.564530
63.576376,-1258.350101,11325.150913,-12640.575717
63.576686,-740.205942,14508.036463,-12180.918418
63.576995,-1184.329507,14211.954086,-8350.440928
63.577305,-3775.050304,11177.109724,-2145.067394
63.577614,-3923.091493,10807.006753,1149.143247
63.577924,-666.185348,8216.285956,919.314598
63.578233,5625.565159,8068.244768,536.266849
63.578543,6735.874072,7994.224174,5056.230287
63.578852,6143.709319,9252.574275,9652.803275
63.579162,-0.000000,7772.162391,9193.145976
63.579471,-1702.473667,7328.038826,4749.792088
63.579781,-888.247130,8290.306550,-4903.011187
63.580090,-1776.494261,8882.471304,-11031.775171
63.580400,-370.102971,14804.118840,-12563.966167
63.580709,-592.164754,12879.583391,-9806.022374
63.581019,-962.267725,11769.274478,-5132.839837
63.581328,-4959.379811,7846.182985,1685.410096
63.581638,-5403.503377,6439.791695,3140.991542
63.581947,2812.782580,7179.997637,-689.485948
63.582257,4219.173869,7920.203579,-2681.334243
63.582566,6513.812290,9992.780217,2298.286494
63.582876,3478.967927,7624.121203,7584.345430
63.583185,666.185348,5995.668130,7967.393179
63.583495,-1628.453072,6365.771101,4366.744339
63.583804,-2960.823768,7179.997637,-2681.334243
63.584114,-1776.494261,9400.615463,-9959.241474
63.584423,-0.000000,13545.768739,-11338.213370
63.584733,-74.020594,13545.768739,-9576.193725
63.585042,-1184.329507,12731.542202,-4290.134789
63.585352,-3404.947333,8882.471304,919.314598
63.585661,-3404.947333,8364.327145,3217.601092
63.585971,518.144159,7994.224174,306.438199
63.586280,5107.421000,10436.903782,-1608.800546
63.586590,6217.729913,10881.027347,2528.115143
63.586899,4515.256246,9844.739029,7354.516781
63.587208,962.267725,6735.874072,6435.202183
63.587518,-3182.885551,7624.121203,4979.620737
63.587827,-1554.432478,8142.265362,-1455.581446
63.588137,-1036.288319,9844.739029,-9576.193725
63.588446,592.164754,12805.562797,-12180.918418
63.588756,-592.164754,13989.892304,-7890.783629
63.589065,-2664.741391,11991.336260,-5362.668486
63.589375,-4663.297435,8512.368333,-1915.238745
63.589684,-3182.885551,8290.306550,459.657299
63.589994,3256.906145,8734.430116,-842.705048
63.590303,5477.523971,7772.162391,-1532.190996
63.590613,6069.688724,9474.636058,6281.983084
63.590922,2886.803174,6365.771101,10418.898773
63.591232,444.123565,4515.256246,8656.879127
63.591541,-4145.153275,5181.441594,6052.154434
63.591851,-3256.906145,6143.709319,-1762.019645
63.592160,1702.473667,10288.862594,-12257.527968
63.592470,1776.494261,14952.160028,-13866.328514
63.592779,74.020594,15174.221811,-10801.946522
63.593089,-1850.514855,12731.542202,-2145.067394
63.593398,-4885.359217,8586.388927,1991.848295
63.593708,-3552.988522,7772.162391,3600.648841
63.594017,1628.453072,10881.027347,229.828649
63.594327,7402.059420,9030.512492,-2298.286494
63.594636,6069.688724,10658.965565,3524.039291
63.594946,3701.029710,10584.944971,8656.879127
63.595255,-148.041188,7031.956449,7277.907231
63.595565,-1850.514855,5699.585753,4519.963438
63.595874,-2146.597232,7031.956449,-1532.190996
63.596184,-1776.494261,8586.388927,-7354.516781
63.596493,2146.597232,11843.295072,-9422.974625
63.596803,-1184.329507,10955.047942,-7354.516781
63.597112,-1036.288319,11547.212695,-5822.325785
63.597422,-4737.318029,8290.306550,0.000000
63.597731,-2664.741391,8956.491898,-1762.019645
63.598041,2664.741391,11399.171507,-5056.230287
63.598350,4219.173869,11991.336260,-1685.410096
63.598660,4145.153275,11843.295072,4826.401637
63.598969,1924.535449,7328.038826,9806.022374
63.599279,962.267725,5255.462188,8810.098227
63.599588,-1776.494261,4811.338623,4903.011187
63.599898,-2590.720797,6883.915261,-766.095498
63.600207,1258.350101,9918.759623,-10878.556072
63.600517,1850.514855,12139.377449,-12180.918418
63.600826,-0.000000,13471.748144,-9729.412825
63.601136,-2664.741391,11399.171507,-3370.820191
63.601445,-6069.688724,10214.842000,-2221.676944
63.601755,-1776.494261,8956.491898,0.000000
63.602064,3627.009116,8882.471304,-4596.572988
63.602374,5181.441594,10584.944971,-612.876398
63.602683,5773.606348,11399.171507,5822.325785
63.602993,4885.359217,9770.718434,5439.278036
63.603302,-0.000000,6439.791695,6818.249932
63.603612,-2886.803174,6069.688724,4903.011187
63.603921,-1628.453072,6365.771101,-2911.162892
63.604231,-2072.576638,11029.068536,-8810.098227
63.604540,1258.350101,12805.562797,-10265.679673
63.604850,-2146.597232,13175.665768,-8120.612279
63.605159,-3256.906145,11621.233289,-4366.744339
63.605469,-4663.297435,7698.141797,-1608.800546
63.605778,-2220.617826,7624.121203,-2911.162892
63.606088,2294.638420,10510.924376,-4136.915689
63.606397,5995.668130,10214.842000,76.609550
63.606707,5477.523971,11177.109724,5056.230287
63.607016,3923.091493,7328.038826,8350.440928
63.607326,-148.041188,2812.782580,8810.098227
63.607635,-2368.659014,3701.029710,6281.983084
63.607945,-1776.494261,6513.812290,-2987.772442
63.608254,1702.473667,10436.903782,-12640.575717
63.608564,2516.700203,13693.809927,-16700.881856
63.608873,-2368.659014,14211.954086,-8120.612279
63.609183,-3923.091493,11029.068536,-3140.991542
63.609492,-4959.379811,10140.821405,-689.485948
63.609802,-2072.576638,10140.821405,-1532.190996
63.610111,3108.864956,11325.150913,-3983.696590
63.610421,4811.338623,12361.439231,-229.828649
63.610730,6957.935855,10140.821405,5362.668486
63.611040,4293.194464,7476.080014,9269.755526
63.611349,-888.247130,4811.338623,10112.460574
63.611659,-2886.803174,4737.318029,6205.373534
63.611968,444.123565,6217.729913,-5056.230287
63.612278,-0.000000,9918.759623,-10725.336972
63.612587,-1110.308913,11621.233289,-8197.221829
63.612897,-3627.009116,14804.118840,-5439.278036
63.613206,-3552.988522,11695.253884,-6128.763984
63.613516,-4589.276840,9474.636058,-3830.477490
63.613825,-2294.638420,11029.068536,-3677.258390
63.614135,1184.329507,10584.944971,-2987.772442
63.614444,5921.647536,10140.821405,1378.971896
63.614754,6661.853478,9400.615463,8273.831378
63.615063,2812.782580,6365.771101,11644.651570
63.615373,-74.020594,3034.844362,11108.384721
63.615682,-2516.700203,2738.761985,8580.269578
63.615992,-666.185348,7920.203579,-5898.935335
63.616301,2368.659014,9622.677246,-13176.842566
63.616611,-0.000000,14211.954086,-11951.089769
63.616920,-1850.514855,15322.262999,-6818.249932
63.617230,-2146.597232,9400.615463,-2834.553343
63.617539,-5477.523971,10732.986159,0.000000
63.617849,-1406.391290,10140.821405,-1149.143247
63.618158,3478.967927,11621.233289,-2987.772442
63.618468,7402.059420,12805.562797,-2681.334243
63.618777,6439.791695,11325.150913,6435.202183
63.619087,1776.494261,7105.977043,10418.898773
63.619396,-444.123565,5107.421000,9806.022374
63.619706,-1702.473667,5181.441594,3753.867940
63.620015,-1628.453072,7254.018232,-6894.859482
63.620325,-1480.411884,8956.491898,-9576.193725
63.620634,-518.144159,11917.315666,-10189.070123
63.620944,-1554.432478,12065.356855,-10418.898773
63.621253,-4663.297435,9918.759623,-7354.516781
63.621563,-5921.647536,8956.491898,-2987.772442
63.621872,-1258.350101,9770.718434,-3217.601092
63.622182,5255.462188,9548.656652,-5056.230287
63.622491,5403.503377,10807.006753,1455.581446
63.622801,5181.441594,9104.533087,10648.727422
63.623110,3552.988522,5921.647536,11797.870669
63.623420,-296.082377,3775.050304,7354.516781
63.623729,-1628.453072,4441.235652,2757.943793
63.624039,-666.185348,8364.327145,-9269.755526
63.624348,888.247130,13915.871710,-17926.634653
63.624658,1554.432478,15248.242405,-12410.747068
63.624967,-1776.494261,14656.077652,-5898.935335
63.625277,-5773.606348,11769.274478,-3370.820191
63.625586,-4589.276840,10510.924376,689.485948
63.625896,-444.123565,8956.491898,306.438199
63.626205,4145.153275,9400.615463,-4366.744339
63.626515,8586.388927,11695.253884,-1225.752797
63.626824,5995.668130,10066.800811,7354.516781
63.627134,-148.041188,8364.327145,10035.851024
63.627443,-148.041188,5255.462188,9039.926876
63.627753,-2590.720797,5625.565159,3370.820191
63.628062,-222.061783,6291.750507,-6205.373534
63.628372,-888.247130,10584.944971,-11031.775171
63.628681,-1702.473667,11843.295072,-11108.384721
63.628991,-3034.844362,12287.418637,-10342.289223
63.629300,-5107.421000,11843.295072,-8197.221829
63.629610,-5477.523971,10140.821405,-3064.381992
63.629919,-2146.597232,10584.944971,-1838.629195
63.630229,5847.626942,10214.842000,-3983.696590
63.630538,5181.441594,9104.533087,2834.553343
63.630848,3108.864956,7031.956449,12717.185267
63.631157,2886.803174,3627.009116,13176.842566
63.631467,-444.123565,3182.885551,6358.592633
63.631776,-2368.659014,4071.132681,2221.676944
63.632086,-296.082377,9030.512492,-7967.393179
63.632395,1110.308913,12065.356855,-15168.690860
63.632705,296.082377,16136.489536,-12640.575717
63.633014,-2516.700203,15840.407159,-7660.954980
63.633324,-6513.812290,11843.295072,-3677.258390
63.633633,-3478.967927,11917.315666,995.924147
63.633943,1258.350101,10658.965565,1149.143247
63.634252,5625.565159,11399.171507,1225.752797
63.634562,7402.059420,10288.862594,3830.477490
63.634871,3256.906145,9770.718434,11184.994271
63.635181,1554.432478,4811.338623,11644.651570
63.635490,-0.000000,3627.009116,7507.735880
63.635800,-3330.926739,6809.894666,2681.334243
63.636109,-1554.432478,7772.162391,-4749.792088
63.636419,-962.267725,10881.027347,-10725.336972
63.636728,-2960.823768,12139.377449,-11338.213370
63.637037,-2738.761985,12731.542202,-14709.033562
63.637347,-6513.812290,11103.089130,-7124.688131
63.637656,-5551.544565,9992.780217,-4443.353888
63.637966,518.144159,10732.986159,-4519.963438
63.638275,5181.441594,9770.718434,-3217.601092
63.638585,6587.832884,9918.759623,3983.696590
63.638894,3478.967927,5995.668130,15475.129060
63.639204,2886.803174,1184.329507,13100.233016
63.639513,-1110.308913,2960.823768,5592.497135
63.639823,-1924.535449,7179.997637,-1072.533697
63.640132,148.041188,7920.203579,-10878.556072
63.640442,666.185348,14211.954086,-16624.272307
63.640751,1184.329507,17838.963202,-12640.575717
63.641061,-3627.009116,14063.912898,-7814.174080
63.641370,-7698.141797,12509.480420,-2451.505594
63.641680,-4737.318029,10436.903782,842.705048
63.641989,2146.597232,10732.986159,-1915.238745
63.642299,7105.977043,10288.862594,-4519.963438
63.642608,7328.038826,10140.821405,3370.820191
63.642918,4293.194464,10510.924376,9269.755526
63.643227,1554.432478,5255.462188,11261.603821
63.643537,-1036.288319,5847.626942,6741.640382
63.643846,-3775.050304,6587.832884,-306.438199
63.644156,-370.102971,6587.832884,-5592.497135
63.644465,-3330.926739,15248.242405,-12410.747068
63.644775,-888.247130,13989.892304,-12870.404366
63.645084,-1332.370696,11843.295072,-11797.870669
63.645394,-7031.956449,10362.883188,-7431.126331
63.645703,-3182.885551,7846.182985,459.657299
63.646013,1332.370696,9030.512492,-1532.190996
63.646322,5477.523971,8142.265362,-1455.581446
63.646632,4737.318029,7698.141797,8580.269578
63.646941,2368.659014,5995.668130,14785.643111
63.647251,2146.597232,3182.885551,9422.974625
63.647560,-1628.453072,3108.864956,2451.505594
63.647870,-740.205942,6957.935855,-2911.162892
63.648179,-666.185348,11695.253884,-13023.623466
63.648489,1554.432478,14359.995275,-15628.348159
63.648798,-1998.556043,16580.613101,-9193.145976
63.649108,-3108.864956,14285.974681,-6511.811733
63.649417,-5033.400406,12805.562797,-2681.334243
63.649727,-2368.659014,9474.636058,2221.676944
63.650036,1924.535449,10066.800811,-3064.381992
63.650346,7772.162391,10362.883188,-3677.258390
63.650655,10881.027347,7698.141797,4596.572988
63.650965,1480.411884,6957.935855,12257.527968
63.651274,148.041188,5699.585753,9576.193725
63.651584,-2664.741391,4515.256246,9039.926876
63.651893,-3552.988522,6587.832884,-2757.943793
63.652203,888.247130,8142.265362,-10648.727422
63.652512,-5699.585753,14359.995275,-11031.775171
63.652822,-2368.659014,14211.954086,-16854.100956
63.653131,-3775.050304,12509.480420,-13866.328514
63.653441,-5403.503377,9696.697840,-4749.792088
63.653750,-5403.503377,9918.759623,2528.115143
63.654060,2220.617826,8956.491898,-383.047749
63.654369,7254.018232,7402.059420,2834.553343
63.654679,4885.359217,6513.812290,11568.042020
63.654988,2738.761985,4589.276840,13330.061665
63.655298,2738.761985,1924.535449,8044.002729
63.655607,-1184.329507,5033.400406,5056.230287
63.655917,-2812.782580,8142.265362,-4213.525239
63.656226,-740.205942,12435.459826,-13100.233016
63.656536,-1258.350101,17098.757260,-13713.109414
63.656845,-0.000000,15840.407159,-10112.460574
63.657155,-5033.400406,12879.583391,-7048.078582
63.657464,-5551.544565,11917.315666,2528.115143
63.657774,-2442.679609,9696.697840,3983.696590
63.658083,6143.709319,10362.883188,-3753.867940
63.658393,7772.162391,11399.171507,-919.314598
63.658702,3478.967927,11991.336260,10648.727422
63.659012,1924.535449,7994.224174,11644.651570
63.659321,-444.123565,5477.523971,5822.325785
63.659631,-1998.556043,8068.244768,2451.505594
63.659940,-5255.462188,9104.533087,-6205.373534
63.660250,-2294.638420,9474.636058,-11108.384721
63.660559,-1998.556043,10955.047942,-11951.089769
63.660869,-2146.597232,11695.253884,-10495.508323
63.661178,-4663.297435,9326.594869,-7890.783629
63.661488,-7105.977043,10510.924376,-3447.429741
63.661797,-222.061783,9400.615463,-2604.724693
63.662107,3034.844362,7994.224174,-3830.477490
63.662416,5921.647536,8068.244768,2528.115143
63.662726,2960.823768,6069.688724,15475.129060
63.663035,3923.091493,3775.050304,11414.822920
63.663345,296.082377,3849.070898,4749.792088
63.663654,-3182.885551,5033.400406,1225.752797
63.663964,1850.514855,11399.171507,-9729.412825
63.664273,-4737.318029,17172.777854,-16088.005458
63.664583,1332.370696,18061.024985,-13253.452115
63.664892,-2738.761985,13767.830521,-7048.078582
63.665202,-5551.544565,11547.212695,-3830.477490
63.665511,-3404.947333,11325.150913,383.047749
63.665820,-2516.700203,11251.130318,-1302.362347
63.666130,7624.121203,9030.512492,-4290.134789
63.666439,6587.832884,8068.244768,1072.533697
63.666749,5477.523971,10214.842000,10035.851024
63.667058,2960.823768,5477.523971,7660.954980
63.667368,-518.144159,5107.421000,6741.640382
63.667677,-2368.659014,5107.421000,2987.772442
63.667987,-2220.617826,11769.274478,-7354.516781
63.668296,1258.350101,11103.089130,-13942.938064
63.668606,-5921.647536,14211.954086,-11568.042020
63.668915,-2886.803174,13989.892304,-8810.098227
63.669225,-3478.967927,9918.759623,-8427.050478
63.669534,-5107.421000,8512.368333,-3370.820191
63.669844,-2442.679609,8364.327145,4290.134789
63.670153,4885.359217,7994.224174,-1072.533697
63.670463,5033.400406,4811.338623,4290.134789
63.670772,2294.638420,5033.400406,12870.404366
63.671081,1480.411884,6069.688724,9806.022374
63.671391,-0.000000,4367.215058,6281.983084
63.671700,-3997.112087,7698.141797,-536.266849
63.672010,-888.247130,10288.862594,-7967.393179
63.672319,518.144159,14211.954086,-14709.033562
63.672629,888.247130,15692.365970,-12180.918418
63.672938,-2072.576638,11991.336260,-5132.839837
63.673248,-7179.997637,9992.780217,2528.115143
63.673557,-4145.153275,10214.842000,3753.867940
63.673867,1480.411884,10066.800811,0.000000
63.674176,7846.182985,12139.377449,-7354.516781
63.674486,7846.182985,9992.780217,-1072.533697
63.674795,4219.173869,9548.656652,7048.078582
63.675105,-592.164754,8068.244768,11414.822920
63.675414,-2368.659014,6587.832884,10265.679673
63.675723,-4737.318029,9030.512492,6281.983084
63.676033,-3849.070898,8216.285956,-4903.011187
63.676342,1702.473667,9474.636058,-11184.994271
63.676652,-2664.741391,11843.295072,-9729.412825
63.676961,-3256.906145,13027.624579,-5975.544884
63.677271,-6439.791695,8956.491898,-4366.744339
63.677580,-4145.153275,10288.862594,-1455.581446
63.677890,-444.123565,8956.491898,-1072.533697
63.678199,3552.988522,8068.244768,153.219100
63.678509,3478.967927,8882.471304,5669.106685
63.678818,2516.700203,6587.832884,10035.851024
63.679128,3478.967927,3701.029710,7507.735880
63.679437,-1850.514855,5107.421000,3524.039291
63.679747,-1480.411884,7105.977043,-1378.971896
63.680056,-1554.432478,8734.430116,-9806.022374
63.680365,2146.597232,13989.892304,-14938.862211
63.680675,518.144159,14137.933492,-11031.775171
63.680984,-3552.988522,10658.965565,-2221.676944
63.681294,-7698.141797,11177.109724,3600.648841
63.681603,-2812.782580,9474.636058,1762.019645
63.681913,5847.626942,11843.295072,-4903.011187
63.682222,3478.967927,9770.718434,-4826.401637
63.682532,7179.997637,13101.645173,1838.629195
63.682841,7105.977043,9992.780217,6358.592633
63.683151,-370.102971,7920.203579,8580.269578
63.683460,-2072.576638,8660.409521,8733.488677
63.683770,-2812.782580,6513.812290,1762.019645
63.684079,-1036.288319,8512.368333,-8656.879127
63.684389,-370.102971,10658.965565,-10342.289223
63.684698,-1480.411884,12065.356855,-10035.851024
63.685008,-2738.761985,10436.903782,-8273.831378
63.685317,-5403.503377,10140.821405,-4060.306139
63.685626,-5181.441594,12361.439231,3064.381992
63.685936,962.267725,8882.471304,-2451.505594
63.686245,3256.906145,9622.677246,-229.828649
63.686555,3034.844362,7402.059420,7048.078582
63.686864,2220.617826,4441.235652,8580.269578
63.687174,2960.823768,4589.276840,6128.763984
63.687483,-1332.370696,3627.009116,1762.019645
63.687793,-1332.370696,6809.894666,-2528.115143
63.688102,-1332.370696,9992.780217,-10418.898773
63.688412,-740.205942,13619.789333,-12410.747068
63.688721,222.061783,12287.418637,-6894.859482
63.689031,-3034.844362,10955.047942,-3217.601092
63.689340,-4811.338623,11769.274478,689.485948
63.689650,-1776.494261,11399.171507,919.314598
63.689959,-148.041188,15840.407159,-5822.325785
63.690268,7031.956449,11029.068536,-6435.202183
63.690578,5625.565159,12213.398043,2374.896044
63.690887,4663.297435,11029.068536,8503.660028
63.691197,222.061783,7846.182985,11261.603821
63.691506,-2220.617826,8216.285956,10878.556072
63.691816,-2146.597232,6513.812290,2528.115143
63.692125,962.267725,9178.553681,-9652.803275
63.692435,666.185348,11621.233289,-12257.527968
63.692744,-2664.741391,9400.615463,-7048.078582
63.693054,-3256.906145,11547.212695,-5745.716235
63.693363,-6291.750507,11177.109724,-2451.505594
63.693673,-4737.318029,9326.594869,-919.314598
63.693982,1110.308913,7920.203579,-229.828649
63.694292,2812.782580,7105.977043,1149.143247
63.694601,3108.864956,7476.080014,5745.716235
63.694910,3997.112087,5551.544565,9269.755526
63.695220,1110.308913,3108.864956,7277.907231
63.695529,-1998.556043,4219.173869,4366.744339
63.695839,-2886.803174,4885.359217,-536.266849
63.696148,444.123565,10140.821405,-9652.803275
63.696458,518.144159,12657.521608,-11261.603821
63.696767,-1258.350101,13175.665768,-4749.792088
63.697077,-3923.091493,13323.706956,919.314598
63.697386,-2886.803174,9030.512492,0.000000
63.697696,-1184.329507,12361.439231,-2068.457845
63.698005,1184.329507,12879.583391,-4519.963438
63.698315,5625.565159,13841.851115,-4749.792088
63.698624,8586.388927,11695.253884,3370.820191
63.698934,3552.988522,10732.986159,9269.755526
63.699243,-518.144159,9252.574275,12410.747068
63.699553,-3552.988522,7179.997637,10955.165621
63.699862,2220.617826,7698.141797,1915.238745
63.700171,666.185348,7254.018232,-12410.747068
63.700481,-2072.576638,11399.171507,-11261.603821
63.700790,296.082377,9696.697840,-6588.421283
63.701100,-3701.029710,11621.233289,-7431.126331
63.701409,-4441.235652,12435.459826,-5592.497135
63.701719,-4737.318029,7698.141797,1378.971896
63.702028,1258.350101,8364.327145,-2911.162892
63.702338,4515.256246,7179.997637,-1838.629195
63.702647,3923.091493,6809.894666,5439.278036
63.702957,1628.453072,5181.441594,7890.783629
63.703266,1184.329507,3849.070898,5515.887586
63.703576,-1702.473667,5329.482782,2604.724693
63.703885,-1702.473667,6661.853478,-3753.867940
63.704195,444.123565,9474.636058,-9039.926876
63.704504,-444.123565,12731.542202,-9269.755526
63.704813,-444.123565,14063.912898,-5439.278036
63.705123,-3478.967927,12287.418637,-4136.915689
63.705432,-4219.173869,11251.130318,-2374.896044
63.705742,-1850.514855,10436.903782,-3064.381992
63.706051,5107.421000,10807.006753,-7124.688131
63.706361,7031.956449,12287.418637,-3830.477490
63.706670,4219.173869,10807.006753,6894.859482
63.706980,2368.659014,9104.533087,10955.165621
63.707289,1258.350101,7179.997637,10878.556072
63.707599,-3404.947333,7328.038826,8656.879127
63.707908,370.102971,6809.894666,-2068.457845
63.708218,1480.411884,10584.944971,-13100.233016
63.708527,-962.267725,13619.789333,-14249.376263
63.708837,-3034.844362,13471.748144,-8886.707777
63.709146,-3552.988522,12139.377449,-7048.078582
63.709456,-5995.668130,10288.862594,-2757.943793
63.709765,-3182.885551,10436.903782,383.047749
63.710074,2368.659014,7772.162391,-2604.724693
63.710384,3849.070898,6661.853478,-383.047749
63.710693,3256.906145,6957.935855,6971.469032
63.711003,2812.782580,3034.844362,9193.145976
63.711312,-74.020594,1480.411884,10495.508323
63.711622,-888.247130,5255.462188,4519.963438
63.711931,-2294.638420,7698.141797,-1532.190996
63.712241,666.185348,9844.739029,-10265.679673
63.712550,-222.061783,13767.830521,-11874.480219
63.712860,-2738.761985,16284.530724,-6588.421283
63.713169,-1702.473667,12139.377449,-2987.772442
63.713479,-5255.462188,11399.171507,-2834.553343
63.713788,296.082377,12435.459826,-2987.772442
63.714098,4071.132681,11843.295072,-3983.696590
63.714407,4367.215058,11325.150913,229.828649
63.714716,6365.771101,10881.027347,8733.488677
63.715026,4219.173869,8734.430116,11951.089769
63.715335,222.061783,5625.565159,11644.651570
63.715645,-1332.370696,5403.503377,7890.783629
63.715954,370.102971,6587.832884,-2987.772442
63.716264,1332.370696,11843.295072,-14172.766713
63.716573,-74.020594,12657.521608,-10801.946522
63.716883,-4293.194464,11917.315666,-5669.106685
63.717192,-5033.400406,10881.027347,-6588.421283
63.717502,-5477.523971,10658.965565,-3447.429741
63.717811,-2812.782580,11325.150913,-2374.896044
63.718121,1332.370696,8364.327145,-2834.553343
63.718430,3034.844362,9548.656652,612.876398
63.718740,3108.864956,6217.729913,8427.050478
63.719049,3108.864956,4589.276840,9346.365076
63.719358,-592.164754,2664.741391,7814.174080
63.719668,-1332.370696,4219.173869,4060.306139
63.719977,-3775.050304,7698.141797,-7354.516781
63.720287,1702.473667,9326.594869,-12563.966167
63.720596,-2368.659014,13915.871710,-9959.241474
63.720906,-3552.988522,13323.706956,-5745.716235
63.721215,-2516.700203,12287.418637,-7431.126331
63.721525,-4589.276840,11103.089130,-5745.716235
63.721834,1332.370696,11695.253884,-2451.505594
63.722144,6365.771101,11251.130318,-4903.011187
63.722453,7402.059420,9844.739029,612.876398
63.722763,2664.741391,9548.656652,10112.460574
63.723072,3034.844362,6809.894666,13100.233016
63.723382,1554.432478,6513.812290,9346.365076
63.723691,-1110.308913,9178.553681,2757.943793
63.724001,814.226536,9844.739029,-8810.098227
63.724310,-518.144159,12805.562797,-13789.718964
63.724619,-2294.638420,14137.933492,-11491.432470
63.724929,-3775.050304,13027.624579,-8886.707777
63.725238,-4071.132681,12583.501014,-8350.440928
63.725548,-4293.194464,8586.388927,-1378.971896
63.725857,-592.164754,8290.306550,612.876398
63.726167,5625.565159,7846.182985,-2145.067394
63.726476,5921.647536,5699.585753,2221.676944
63.726786,1924.535449,4367.215058,10725.336972
63.727095,-370.102971,3997.112087,9806.022374
63.727405,-222.061783,5255.462188,4366.744339
63.727714,370.102971,6735.874072,-1455.581446
63.728024,-888.247130,8438.347739,-6665.030833
63.728333,-1480.411884,11473.192101,-11644.651570
63.728643,-2146.597232,13619.789333,-9806.022374
63.728952,-2220.617826,13175.665768,-7967.393179
63.729261,-3256.906145,11917.315666,-8120.612279
63.729571,-5181.441594,10955.047942,-3600.648841
63.729880,1184.329507,9696.697840,-4673.182538
63.730190,7846.182985,11029.068536,-4136.915689
63.730499,6735.874072,9622.677246,1608.800546
63.730809,5477.523971,7179.997637,12257.527968
63.731118,2220.617826,5699.585753,14709.033562
63.731428,2220.617826,4737.318029,12257.527968
63.731737,-1554.432478,8586.388927,3907.087040
63.732047,-0.000000,8438.347739,-7507.735880
63.732356,-74.020594,12657.521608,-15092.081311
63.732666,-2442.679609,14285.974681,-13866.328514
63.732975,-4367.215058,14878.139434,-9806.022374
63.733285,-5847.626942,13915.871710,-6588.421283
63.733594,-4515.256246,12657.521608,-1762.019645
63.733904,-962.267725,10288.862594,1072.533697
63.734213,2590.720797,9770.718434,-3907.087040
63.734522,6513.812290,5625.565159,4290.134789
63.734832,2590.720797,5255.462188,11184.994271
63.735141,2590.720797,2738.761985,12180.918418
63.735451,-1258.350101,3330.926739,6128.763984
63.735760,-1480.411884,5921.647536,1991.848295
63.736070,-3182.885551,8438.347739,-6665.030833
63.736379,-518.144159,9696.697840,-12717.185267
63.736689,-2960.823768,14211.954086,-10878.556072
63.736998,-740.205942,14952.160028,-4290.134789
63.737308,-6661.853478,13175.665768,-5056.230287
63.737617,-2368.659014,12361.439231,-2298.286494
63.737927,1332.370696,11177.109724,-3217.601092
63.738236,7105.977043,11029.068536,-2528.115143
63.738546,7105.977043,8142.265362,4903.011187
63.738855,5477.523971,7328.038826,13023.623466
63.739164,962.267725,6661.853478,16011.395908
63.739474,-518.144159,5181.441594,11491.432470
63.739783,148.041188,9622.677246,-4290.134789
63.740093,-740.205942,9400.615463,-14096.157163
63.740402,-0.000000,11325.150913,-14709.033562
63.740712,-3627.009116,14730.098246,-12027.699319
63.741021,-962.267725,14434.015869,-10189.070123
63.741331,-7994.224174,11399.171507,-1762.019645
63.741640,-4737.318029,11473.192101,1762.019645
63.741950,2812.782580,8882.471304,-995.924147
63.742259,5773.606348,7031.956449,-1608.800546
63.742569,6883.915261,6439.791695,6894.859482
63.742878,1628.453072,6883.915261,10955.165621
63.743188,1480.411884,2664.741391,8886.707777
63.743497,-1702.473667,3256.906145,6052.154434
63.743806,-2368.659014,7476.080014,-2528.115143
63.744116,-1406.391290,6291.750507,-10342.289223
63.744425,-2072.576638,11843.295072,-12793.794817
63.744735,-2516.700203,14211.954086,-10265.679673
63.745044,-2738.761985,13101.645173,-11108.384721
63.745354,-5625.565159,12879.583391,-5975.544884
63.745663,-3849.070898,8956.491898,-306.438199
63.745973,2516.700203,12435.459826,-2221.676944
63.746282,9178.553681,7920.203579,-1991.848295
63.746592,7105.977043,8586.388927,6511.811733
63.746901,3627.009116,7476.080014,13866.328514
63.747211,1110.308913,6291.750507,12104.308868
63.747520,-1110.308913,6143.709319,6894.859482
63.747830,-222.061783,9400.615463,-3983.696590
63.748139,888.247130,10955.047942,-13789.718964
63.748449,-2886.803174,13989.892304,-12104.308868
63.748758,-2738.761985,14804.118840,-11797.870669
63.749067,-3404.947333,14063.912898,-10878.556072
63.749377,-6587.832884,12213.398043,-3830.477490
63.749686,-4071.132681,10584.944971,1685.410096
63.749996,4959.379811,9252.574275,-2604.724693
63.750305,6957.935855,6587.832884,-766.095498
63.750615,6365.771101,5625.565159,8733.488677
63.750924,2072.576638,2294.638420,12334.137518
63.751234,1184.329507,2590.720797,9576.193725
63.751543,-1702.473667,5477.523971,5362.668486
63.751853,-2146.597232,5551.544565,-3294.210641
63.752162,-1110.308913,11621.233289,-12793.794817
63.752472,-2812.782580,13249.686362,-14019.547613
63.752781,-1628.453072,10658.965565,-13023.623466
63.753091,-5329.482782,13323.706956,-9269.755526
63.753400,-5625.565159,11769.274478,-3447.429741
63.753709,-1036.288319,9918.759623,2298.286494
63.754019,3330.926739,10584.944971,306.438199
63.754328,8438.347739,8956.491898,-766.095498
63.754638,5477.523971,8512.368333,8656.879127
63.754947,3923.091493,7624.121203,15934.786358
63.755257,1776.494261,4515.256246,11644.651570
63.755566,-3256.906145,11177.109724,2068.457845
63.755876,-2368.659014,10362.883188,-3677.258390
63.756185,-0.000000,15026.180623,-12793.794817
63.756495,-444.123565,12731.542202,-14785.643111
63.756804,-3108.864956,12953.603985,-10955.165621
63.757114,-6217.729913,14211.954086,-5975.544884
63.757423,-6365.771101,11103.089130,-383.047749
63.757733,-1480.411884,10436.903782,766.095498
63.758042,3256.906145,8142.265362,-1991.848295
63.758352,5847.626942,6809.894666,2987.772442
63.758661,3775.050304,8142.265362,8963.317327
63.758970,2738.761985,296.082377,11108.384721
63.759280,-2368.659014,3404.947333,10418.898773
63.759589,-444.123565,5551.544565,4290.134789
63.759899,-2442.679609,8290.306550,-5822.325785
63.760208,-1702.473667,10214.842000,-12410.747068
63.760518,-1184.329507,12435.459826,-12027.699319
63.760827,-2812.782580,14804.118840,-13942.938064
63.761137,-4293.194464,11917.315666,-8656.879127
63.761446,-5107.421000,10066.800811,-919.314598
63.761756,296.082377,9548.656652,1225.752797
63.762065,6809.894666,8882.471304,-2987.772442
63.762375,8142.265362,6957.935855,2757.943793
63.762684,6143.709319,7698.141797,9652.803275
63.762994,3108.864956,6513.812290,13023.623466
63.763303,-296.082377,8142.265362,8350.440928
63.763612,-148.041188,9918.759623,-919.314598
63.763922,-518.144159,8068.244768,-10265.679673
63.764231,-962.267725,17098.757260,-14555.814462
63.764541,-0.000000,13693.809927,-12257.527968
63.764850,-1332.370696,11991.336260,-10035.851024
63.765160,-4515.256246,11177.109724,-5056.230287
63.765469,-5995.668130,9474.636058,0.000000
63.765779,814.226536,10362.883188,1838.629195
63.766088,4071.132681,8364.327145,-3677.258390
63.766398,9548.656652,6587.832884,1072.533697
63.766707,1554.432478,5995.668130,9269.755526
63.767017,2146.597232,3552.988522,11644.651570
63.767326,-888.247130,5847.626942,6128.763984
63.767636,-2886.803174,8290.306550,-1225.752797
63.767945,-888.247130,8068.244768,-8656.879127
63.768255,-2368.659014,10584.944971,-12027.699319
63.768564,-296.082377,11991.336260,-11644.651570
63.768873,-3182.885551,11325.150913,-10189.070123
63.769183,-2368.659014,12139.377449,-5362.668486
63.769492,-5329.482782,8586.388927,1532.190996
63.769802,1332.370696,9844.739029,1991.848295
63.770111,6069.688724,7476.080014,-3140.991542
63.770421,7105.977043,8586.388927,1455.581446
63.770730,6069.688724,9252.574275,9193.145976
63.771040,1184.329507,6883.915261,13100.233016
63.771349,-148.041188,8660.409521,9806.022374
63.771659,-296.082377,8808.450710,-995.924147
63.771968,-1480.411884,11473.192101,-9806.022374
63.772278,-1036.288319,13915.871710,-13713.109414
63.772587,814.226536,13767.830521,-12487.356617
63.772897,-2960.823768,14063.912898,-7277.907231
63.773206,-6513.812290,12139.377449,-383.047749
63.773516,-4071.132681,9548.656652,2681.334243
63.773825,1480.411884,8512.368333,-995.924147
63.774135,6291.750507,8364.327145,-3677.258390
63.774444,4959.379811,7254.018232,3294.210641
63.774753,2368.659014,5477.523971,9729.412825
63.775063,666.185348,4811.338623,9269.755526
63.775372,-666.185348,4515.256246,7048.078582
63.775682,-3330.926739,10214.842000,2987.772442
63.775991,-1554.432478,9104.533087,-7507.735880
63.776301,-1406.391290,11251.130318,-12257.527968
63.776610,-962.267725,12435.459826,-10495.508323
63.776920,-2812.782580,11325.150913,-9729.412825
63.777229,-6365.771101,11473.192101,-2451.505594
63.777539,-2146.597232,11843.295072,1302.362347
63.777848,2294.638420,11029.068536,-995.924147
63.778158,5107.421000,8882.471304,-2528.115143
63.778467,6069.688724,7402.059420,5822.325785
63.778777,4367.215058,7846.182985,10801.946522
63.779086,-296.082377,7550.100608,9729.412825
63.779396,-1406.391290,6513.812290,6511.811733
63.779705,-1480.411884,8882.471304,-1455.581446
63.780015,1110.308913,9104.533087,-12487.356617
63.780324,1184.329507,12435.459826,-14249.376263
63.780633,-1480.411884,12435.459826,-9806.022374
63.780943,-3182.885551,11399.171507,-4596.572988
63.781252,-7105.977043,12139.377449,-76.609550
63.781562,-2812.782580,10066.800811,995.924147
63.781871,1998.556043,8660.409521,-2604.724693
63.782181,6291.750507,7254.018232,-3524.039291
63.782490,4145.153275,8290.306550,2374.896044
63.782800,3330.926739,5329.482782,8197.221829
63.783109,-0.000000,5773.606348,9806.022374
63.783419,-2960.823768,7772.162391,6511.811733
63.783728,-1184.329507,7476.080014,-1991.848295
63.784038,-444.123565,8956.491898,-8120.612279
63.784347,-962.267725,11177.109724,-12793.794817
63.784657,-1406.391290,11029.068536,-11874.480219
63.784966,-2664.741391,11399.171507,-7584.345430
63.785276,-4515.256246,11769.274478,-1378.971896
63.785585,-5847.626942,9696.697840,459.657299
63.785895,1406.391290,10288.862594,-766.095498
63.786204,5033.400406,8586.388927,-229.828649
63.786513,6069.688724,7698.141797,3830.477490
63.786823,4293.194464,6587.832884,7814.174080
63.787132,370.102971,6957.935855,8963.317327
63.787442,-1184.329507,7772.162391,4596.572988
63.787751,-1554.432478,10732.986159,-4673.182538
63.788061,-74.020594,10732.986159,-10418.898773
63.788370,-2146.597232,13323.706956,-13100.233016
63.788680,-1924.535449,12731.542202,-9729.412825
63.788989,-1776.494261,11399.171507,-5056.230287
63.789299,-6513.812290,9548.656652,842.705048
63.789608,-3256.906145,9696.697840,612.876398
63.789918,2664.741391,11177.109724,-2834.553343
63.790227,6735.874072,8808.450710,-3370.820191
63.790537,5033.400406,8586.388927,3217.601092
63.790846,2072.576638,6661.853478,9882.631924
63.791156,-222.061783,5551.544565,11797.870669
63.791465,-2146.597232,5847.626942,5975.544884
63.791775,-740.205942,7328.038826,-2604.724693
63.792084,-1924.535449,9844.739029,-9346.365076
63.792393,296.082377,10881.027347,-12334.137518
63.792703,-2886.803174,14359.995275,-10265.679673
63.793012,-2664.741391,12731.542202,-6358.592633
63.793322,-4959.379811,11843.295072,0.000000
63.793631,-2442.679609,9770.718434,3600.648841
63.793941,2442.679609,10214.842000,153.219100
63.794250,4811.338623,7476.080014,-2834.553343
63.794560,5699.585753,7031.956449,4443.353888
63.794869,2590.720797,6439.791695,9269.755526
63.795179,-0.000000,6587.832884,9499.584175
63.795488,-3552.988522,7254.018232,6052.154434
63.795798,-2960.823768,9104.533087,-2834.553343
63.796107,-74.020594,10066.800811,-8427.050478
63.796417,814.226536,11769.274478,-9882.631924
63.796726,-2146.597232,12287.418637,-8120.612279
63.797036,-4885.359217,11029.068536,-2604.724693
63.797345,-5995.668130,10066.800811,689.485948
63.797655,-1924.535449,11399.171507,-1991.848295
63.797964,3627.009116,9918.759623,-4673.182538
63.798273,4811.338623,10214.842000,-2604.724693
63.798583,3552.988522,9252.574275,2987.772442
63.798892,3404.947333,6217.729913,10495.508323
63.799202,-444.123565,6735.874072,11644.651570
63.799511,-2590.720797,5995.668130,6205.373534
63.799821,-4737.318029,7846.182985,0.000000
63.800130,-296.082377,9992.780217,-10112.460574
63.800440,518.144159,11769.274478,-14096.157163
63.800749,-1406.391290,12139.377449,-11184.994271
63.801059,-4071.132681,12435.459826,-5362.668486
63.801368,-6143.709319,12435.459826,229.828649
63.801678,-518.144159,11399.171507,-459.657299
63.801987,4145.153275,10066.800811,-2681.334243
63.802297,4885.359217,7994.224174,-689.485948
63.802606,4811.338623,7105.977043,6894.859482
63.802916,1776.494261,7031.956449,9882.631924
63.803225,962.267725,6143.709319,7507.735880
63.803535,-370.102971,7031.956449,3140.991542
63.803844,-1406.391290,9770.718434,-3677.258390
63.804153,-1406.391290,10436.903782,-7277.907231
63.804463,-0.000000,11547.212695,-12257.527968
63.804772,-2294.638420,12435.459826,-9806.022374
63.805082,-4811.338623,11473.192101,-3983.696590
63.805391,-5255.462188,11769.274478,-1455.581446
63.805701,-740.205942,10362.883188,-2145.067394
63.806010,4441.235652,10362.883188,-4903.011187
63.806320,5773.606348,8290.306550,-536.266849
63.806629,3108.864956,7550.100608,7354.516781
63.806939,1258.350101,3404.947333,11644.651570
63.807248,-0.000000,5625.565159,9576.193725
63.807558,-592.164754,7402.059420,3830.477490
63.807867,-1110.308913,7550.100608,-4519.963438
63.808177,222.061783,10066.800811,-12257.527968
63.808486,-0.000000,11029.068536,-11721.261119
63.808796,-1554.432478,12583.501014,-9422.974625
63.809105,-4885.359217,11695.253884,-4903.011187
63.809415,-5921.647536,11251.130318,0.000000
63.809724,-1258.350101,12583.501014,-2528.115143
63.810034,4293.194464,9770.718434,-3370.820191
63.810343,5551.544565,8290.306550,-1225.752797
63.810652,4367.215058,7994.224174,6818.249932
63.810962,2368.659014,6217.729913,10572.117872
63.811271,3108.864956,6809.894666,10342.289223
63.811581,-3627.009116,8660.409521,5056.230287
63.811890,-592.164754,8438.347739,-4290.134789
63.812200,-74.020594,11103.089130,-11031.775171
63.812509,-888.247130,11769.274478,-11644.651570
63.812819,-2442.679609,13397.727550,-6588.421283
63.813128,-5329.482782,12435.459826,-3294.210641
63.813438,-5773.606348,12435.459826,-2451.505594
63.813747,296.082377,10510.924376,-3370.820191
63.814057,2812.782580,8364.327145,-5975.544884
63.814366,5181.441594,6883.915261,1762.019645
63.814676,5403.503377,6661.853478,9652.803275
63.814985,2368.659014,5255.462188,13713.109414
63.815295,-1406.391290,4737.318029,12793.794817
63.815604,-148.041188,7402.059420,3370.820191
63.815914,-1480.411884,7550.100608,-5898.935335
63.816223,888.247130,11991.336260,-12104.308868
63.816532,-592.164754,13767.830521,-12104.308868
63.816842,-1998.556043,15544.324782,-9882.631924
63.817151,-6809.894666,14508.036463,-3983.696590
63.817461,-6513.812290,12287.418637,1149.143247
63.817770,2072.576638,11843.295072,-2374.896044
63.818080,3775.050304,9252.574275,-3600.648841
63.818389,3034.844362,9030.512492,1838.629195
63.818699,4515.256246,5995.668130,8810.098227
63.819008,3552.988522,5847.626942,8886.707777
63.819318,-962.267725,5329.482782,10189.070123
63.819627,296.082377,7031.956449,5439.278036
63.819937,-2442.679609,8882.471304,-6971.469032
63.820246,-1184.329507,12139.377449,-11414.822920
63.820556,-1036.288319,11473.192101,-8656.879127
63.820865,-6587.832884,11399.171507,-8120.612279
63.821175,-3182.885551,13175.665768,-7277.907231
63.821484,-5329.482782,12361.439231,-5515.887586
63.821794,1406.391290,11251.130318,-4903.011187
63.822103,6143.709319,7550.100608,-3677.258390
63.822412,3552.988522,8734.430116,2221.676944
63.822722,4811.338623,7994.224174,13330.061665
63.823031,2368.659014,3330.926739,13330.061665
63.823341,888.247130,4441.235652,9652.803275
63.823650,-2146.597232,5699.585753,3830.477490
63.823960,2368.659014,8512.368333,-8350.440928
63.824269,-1406.391290,11695.253884,-15628.348159
63.824579,-1406.391290,14582.057057,-14172.766713
63.824888,-3404.947333,14359.995275,-9499.584175
63.825198,-4737.318029,14063.912898,-6665.030833
63.825507,-2960.823768,12509.480420,-5822.325785
63.825817,-0.000000,10214.842000,-459.657299
63.826126,5625.565159,7550.100608,-1149.143247
63.826436,6291.750507,5477.523971,3447.429741
63.826745,5033.400406,6957.935855,10725.336972
63.827055,2664.741391,7772.162391,11108.384721
63.827364,-1036.288319,7328.038826,8120.612279
63.827674,-518.144159,9104.533087,1302.362347
63.827983,1110.308913,8068.244768,-8963.317327
63.828292,-3108.864956,11769.274478,-12027.699319
63.828602,-1554.432478,12287.418637,-9499.584175
63.828911,-5625.565159,13767.830521,-8503.660028
63.829221,-5181.441594,12879.583391,-8273.831378
63.829530,-3775.050304,11177.109724,-4519.963438
63.829840,888.247130,9178.553681,-8503.660028
63.830149,5033.400406,9474.636058,-2911.162892
63.830459,7254.018232,7772.162391,4290.134789
63.830768,4219.173869,4737.318029,12947.013916
63.831078,740.205942,2886.803174,16624.272307
63.831387,-740.205942,4885.359217,11261.603821
63.831697,1554.432478,5403.503377,-383.047749
63.832006,-2072.576638,10584.944971,-11491.432470
63.832316,-0.000000,15174.221811,-15321.909960
63.832625,-0.000000,14656.077652,-11261.603821
63.832935,-4959.379811,14804.118840,-9576.193725
63.833244,-6809.894666,14508.036463,-2451.505594
63.833554,-2738.761985,12509.480420,2451.505594
63.833863,2368.659014,8956.491898,0.000000
63.834172,4737.318029,6439.791695,1455.581446
63.834482,8216.285956,6143.709319,6358.592633
63.834791,5403.503377,6513.812290,8886.707777
63.835101,518.144159,6291.750507,11721.261119
63.835410,-1110.308913,8956.491898,11261.603821
63.835720,-666.185348,8512.368333,1302.362347
63.836029,-666.185348,7402.059420,-9269.755526
63.836339,-4589.276840,11547.212695,-9116.536426
63.836648,-4367.215058,12657.521608,-9729.412825
63.836958,-2516.700203,10288.862594,-9346.365076
63.837267,-5181.441594,11621.233289,-7890.783629
63.837577,-4885.359217,13175.665768,-4136.915689
63.837886,2368.659014,9178.553681,-2604.724693
63.838196,7105.977043,9030.512492,-229.828649
63.838505,5921.647536,4885.359217,7584.345430
63.838815,5477.523971,5033.400406,15092.081311
63.839124,296.082377,3701.029710,15858.176809
63.839434,-814.226536,4811.338623,6741.640382
63.839743,-0.000000,5921.647536,-5286.058936
63.840052,-444.123565,10510.924376,-13559.890315
63.840362,-1850.514855,14434.015869,-13253.452115
63.840671,-1110.308913,16728.654289,-12563.966167
63.840981,-3552.988522,17024.736666,-11261.603821
63.841290,-5033.400406,16876.695478,-4136.915689
63.841600,-4589.276840,12509.480420,2834.553343
63.841909,5329.482782,6661.853478,-2451.505594
63.842219,6587.832884,7254.018232,-3753.867940
63.842528,8660.409521,7846.182985,7277.907231
63.842838,2516.700203,5773.606348,13559.890315
63.843147,-0.000000,6513.812290,11951.089769
63.843457,370.102971,8438.347739,5132.839837
63.843766,-3404.947333,8586.388927,-5286.058936
63.844076,1776.494261,8290.306550,-8427.050478
63.844385,-6069.688724,11547.212695,-10495.508323
63.844695,-1480.411884,11843.295072,-12870.404366
63.845004,-3108.864956,11769.274478,-13559.890315
63.845314,-5921.647536,11843.295072,-5745.716235
63.845623,-3775.050304,9474.636058,-612.876398
63.845932,3701.029710,9474.636058,-3524.039291
63.846242,8512.368333,6809.894666,0.000000
63.846551,3330.926739,5995.668130,10418.898773
63.846861,3701.029710,2368.659014,12257.527968
63.847170,1702.473667,2590.720797,10572.117872
63.847480,-0.000000,5403.503377,3600.648841
63.847789,1036.288319,8660.409521,-6281.983084
63.848099,-2146.597232,12213.398043,-14325.985813
63.848408,-2516.700203,17172.777854,-11874.480219
63.848718,-1628.453072,16210.510130,-11184.994271
63.849027,-4589.276840,15544.324782,-9346.365076
63.849337,-5255.462188,16358.551318,-2451.505594
63.849646,-518.144159,13693.809927,-306.438199
63.849956,5329.482782,7994.224174,-2834.553343
63.850265,7994.224174,4293.194464,0.000000
63.850575,3034.844362,5773.606348,10112.460574
63.850884,3404.947333,7624.121203,13483.280765
63.851194,3849.070898,3775.050304,13636.499864
63.851503,-1776.494261,7179.997637,4673.182538
63.851812,-222.061783,7920.203579,-3983.696590
63.852122,-1480.411884,8586.388927,-9269.755526
63.852431,-5847.626942,11325.150913,-10265.679673
63.852741,-1480.411884,13027.624579,-13866.328514
63.853050,-4293.194464,11029.068536,-12257.527968
63.853360,-7105.977043,12583.501014,-3524.039291
63.853669,-2442.679609,11621.233289,383.047749
63.853979,6143.709319,8808.450710,-4290.134789
63.854288,5699.585753,8364.327145,1302.362347
63.854598,4737.318029,3849.070898,12947.013916
63.854907,2368.659014,4515.256246,14479.204912
63.855217,-0.000000,3701.029710,10495.508323
63.855526,1480.411884,3775.050304,2987.772442
63.855836,-0.000000,9770.718434,-7660.954980
63.856145,-2072.576638,11769.274478,-14172.766713
63.856455,-2072.576638,12435.459826,-12104.308868
63.856764,-2146.597232,16654.633695,-11721.261119
63.857074,-2516.700203,13397.727550,-7201.297681
63.857383,-5329.482782,12509.480420,2987.772442
63.857692,-1184.329507,10584.944971,1378.971896
63.858002,8438.347739,7105.977043,-4596.572988
63.858311,6587.832884,10066.800811,2911.162892
63.858621,4737.318029,7105.977043,9959.241474
63.858930,3256.906145,8438.347739,10648.727422
63.859240,-740.205942,7179.997637,8886.707777
63.859549,-1332.370696,10214.842000,3524.039291
63.859859,-2072.576638,8808.450710,-5592.497135
63.860168,-3404.947333,10140.821405,-12334.137518
63.860478,-3034.844362,10436.903782,-10572.117872
63.860787,-518.144159,11917.315666,-12257.527968
63.861097,-4885.359217,10510.924376,-9576.193725
63.861406,-7476.080014,10658.965565,1378.971896
63.861716,962.267725,9622.677246,689.485948
63.862025,6587.832884,7624.121203,-7431.126331
63.862335,6957.935855,7031.956449,995.924147
63.862644,2072.576638,8364.327145,14709.033562
63.862954,4219.173869,4515.256246,11874.480219
63.863263,2294.638420,5181.441594,6511.811733
63.863572,-2738.761985,8882.471304,3753.867940
63.863882,-222.061783,8734.430116,-7354.516781
63.864191,-74.020594,11251.130318,-18309.682402
63.864501,-1332.370696,15248.242405,-14555.814462
63.864810,-740.205942,15026.180623,-9959.241474
63.865120,-3256.906145,13989.892304,-6052.154434
63.865429,-5403.503377,12065.356855,4979.620737
63.865739,-0.000000,9474.636058,4826.401637
63.866048,8364.327145,8512.368333,-3524.039291
63.866357,5551.544565,6513.812290,-1455.581446
63.866667,4071.132681,6439.791695,9806.022374
63.866976,2368.659014,5921.647536,11031.775171
63.867286,1480.411884,7698.141797,5362.668486
63.867595,-2590.720797,10807.006753,3524.039291
63.867905,-2442.679609,7846.182985,-3217.601092
63.868214,-2664.741391,10140.821405,-13100.233016
63.868523,-2368.659014,10807.006753,-12563.966167
63.868833,-2960.823768,12657.521608,-10265.679673
63.869142,-3849.070898,10214.842000,-8044.002729
63.869452,-4441.235652,11325.150913,-842.705048
63.869761,-888.247130,10362.883188,689.485948
63.870071,6513.812290,7105.977043,-3217.601092
63.870380,4959.379811,4959.379811,1991.848295
63.870689,1776.494261,5847.626942,12793.794817
63.870999,3552.988522,5477.523971,12793.794817
63.871308,1184.329507,5033.400406,7277.907231
63.871618,-3849.070898,8216.285956,1915.238745
63.871927,-3034.844362,9622.677246,-7814.174080
63.872237,2220.617826,11621.233289,-17850.025103
63.872546,1258.350101,14211.954086,-16777.491406
63.872855,-2960.823768,15840.407159,-6665.030833
63.873165,-5181.441594,14137.933492,0.000000
63.873474,-2886.803174,11547.212695,5132.839837
63.873784,2220.617826,9696.697840,3677.258390
63.874093,4293.194464,10362.883188,-3140.991542
63.874403,5403.503377,8512.368333,-766.095498
63.874712,5477.523971,7402.059420,7048.078582
63.875021,2368.659014,7254.018232,8886.707777
63.875331,-2220.617826,11103.089130,8963.317327
63.875640,-1110.308913,9992.780217,6205.373534
63.875950,-1628.453072,6069.688724,-4826.401637
63.876259,-4071.132681,9252.574275,-11184.994271
63.876569,-1998.556043,9844.739029,-9576.193725
63.876878,-4441.235652,11769.274478,-9806.022374
63.877187,-4071.132681,11991.336260,-6511.811733
63.877497,-4367.215058,11843.295072,-1991.848295
63.877806,-814.226536,9992.780217,-459.657299
63.878116,3627.009116,9474.636058,-1378.971896
63.878425,6143.709319,6587.832884,3907.087040
63.878735,3256.906145,4811.338623,9499.584175
63.879044,1110.308913,4663.297435,10265.679673
63.879353,-370.102971,4737.318029,6358.592633
63.879663,-592.164754,6735.874072,-229.828649
63.879972,-2146.597232,7846.182985,-9652.803275
63.880282,1184.329507,11621.233289,-14249.376263
63.880591,222.061783,13915.871710,-13406.671215
63.880901,-3775.050304,16432.571912,-7124.688131
63.881210,-2664.741391,15618.345376,-2068.457845
63.881519,-3330.926739,9844.739029,1072.533697
63.881829,740.205942,9696.697840,-919.314598
63.882138,6661.853478,6143.709319,-2834.553343
63.882448,7328.038826,7698.141797,0.000000
63.882757,4737.318029,8512.368333,8273.831378
63.883067,148.041188,10732.986159,9576.193725
63.883376,-370.102971,10510.924376,7354.516781
63.883685,-2442.679609,7550.100608,1838.629195
63.883995,-2590.720797,8808.450710,-5975.544884
63.884304,-1628.453072,9474.636058,-12027.699319
63.884614,-518.144159,9178.553681,-12487.356617
63.884923,-3330.926739,10881.027347,-8963.317327
63.885233,-4219.173869,10584.944971,-2757.943793
63.885542,-5107.421000,7698.141797,3983.696590
63.885851,-444.123565,9252.574275,0.000000
63.886161,6069.688724,7772.162391,-2911.162892
63.886470,2812.782580,7624.121203,1915.238745
63.886780,1850.514855,4293.194464,9576.193725
63.887089,1184.329507,6365.771101,9116.536426
63.887399,1184.329507,6513.812290,2451.505594
63.887708,-1628.453072,7105.977043,-229.828649
63.888017,-1332.370696,8734.430116,-6435.202183
63.888327,1924.535449,9178.553681,-14709.033562
63.888636,-296.082377,13249.686362,-10801.946522
63.888946,-2812.782580,13545.768739,-4443.353888
63.889255,-3849.070898,12139.377449,-1685.410096
63.889565,-1554.432478,11029.068536,536.266849
63.889874,1776.494261,10510.924376,383.047749
63.890183,4959.379811,9474.636058,-4903.011187
63.890493,4663.297435,9992.780217,0.000000
63.890802,5403.503377,9104.533087,8197.221829
63.891112,-740.205942,9400.615463,9269.755526
63.891421,222.061783,7179.997637,8733.488677
63.891731,-2368.659014,8956.491898,3677.258390
63.892040,-1554.432478,8142.265362,-5975.544884
63.892349,-0.000000,9918.759623,-11721.261119
63.892659,-4663.297435,8882.471304,-10265.679673
63.892968,-3701.029710,11325.150913,-6741.640382
63.893278,-4219.173869,13101.645173,-1915.238745
63.893587,-3701.029710,11251.130318,0.000000
63.893897,-1110.308913,9918.759623,-1762.019645
63.894206,3775.050304,6217.729913,-2757.943793
63.894515,4219.173869,5033.400406,3600.648841
63.894825,3330.926739,5107.421000,10648.727422
63.895134,666.185348,4737.318029,10418.898773
63.895444,666.185348,4589.276840,13100.233016
63.895753,-1998.556043,8364.327145,1072.533697
63.896063,-1258.350101,7772.162391,-8120.612279
63.896372,296.082377,11621.233289,-13023.623466
63.896681,-1036.288319,13989.892304,-10265.679673
63.896991,-666.185348,11991.336260,-6894.859482
63.897300,-6143.709319,13545.768739,-306.438199
63.897610,-1628.453072,13249.686362,1991.848295
63.897919,3404.947333,9622.677246,-3677.258390
63.898229,4811.338623,9474.636058,-4673.182538
63.898538,6661.853478,9252.574275,3753.867940
63.898847,1184.329507,9104.533087,9882.631924
63.899157,2368.659014,10510.924376,9346.365076
63.899466,-1036.288319,8142.265362,7124.688131
63.899776,-1036.288319,6661.853478,-459.657299
63.900085,-1258.350101,7920.203579,-8503.660028
63.900395,-2146.597232,8586.388927,-10648.727422
63.900704,-740.205942,10658.965565,-9652.803275
63.901013,-4367.215058,9844.739029,-6818.249932
63.901323,-5625.565159,13915.871710,-3447.429741
63.901632,-2664.741391,10066.800811,-1762.019645
63.901942,1110.308913,8660.409521,-4060.306139
63.902251,3775.050304,7402.059420,-2681.334243
63.902561,3404.947333,3627.009116,7354.516781
63.902870,2368.659014,5699.585753,9193.145976
63.903179,1554.432478,3404.947333,8350.440928
63.903489,-814.226536,7328.038826,5515.887586
63.903798,-1110.308913,7624.121203,-536.266849
63.904108,-1702.473667,8438.347739,-10572.117872
63.904417,1258.350101,11251.130318,-12870.404366
63.904727,-1850.514855,14285.974681,-9116.536426
63.905036,-3256.906145,14285.974681,-5669.106685
63.905345,-4145.153275,13915.871710,-1302.362347
63.905655,-2368.659014,12657.521608,-229.828649
63.905964,2886.803174,9474.636058,-2604.724693
63.906274,6143.709319,9030.512492,-3983.696590
63.906583,5403.503377,9104.533087,842.705048
63.906893,6291.750507,8364.327145,7507.735880
63.907202,370.102971,8660.409521,11184.994271
63.907511,-518.144159,8068.244768,9346.365076
63.907821,-1998.556043,8216.285956,1532.190996
63.908130,-1036.288319,7328.038826,-7660.954980
63.908440,-1406.391290,9770.718434,-12640.575717
63.908749,-3034.844362,10658.965565,-11338.213370
63.909059,-2886.803174,12361.439231,-8350.440928
63.909368,-6217.729913,11473.192101,-3753.867940
63.909677,-3849.070898,10881.027347,-2528.115143
63.909987,1406.391290,10140.821405,-2681.334243
63.910296,3034.844362,6513.812290,-2834.553343
63.910606,4811.338623,4959.379811,4903.011187
63.910915,1924.535449,5107.421000,10648.727422
63.911225,1702.473667,6513.812290,12104.308868
63.911534,-1702.473667,5551.544565,7507.735880
63.911843,-592.164754,6291.750507,0.000000
63.912153,-0.000000,7846.182985,-9959.241474
63.912462,518.144159,12065.356855,-12947.013916
63.912772,-814.226536,14730.098246,-7354.516781
63.913081,-4441.235652,15174.221811,-3907.087040
63.913391,-3256.906145,14582.057057,-2451.505594
63.913700,-1998.556043,12213.398043,-306.438199
63.914009,2368.659014,11251.130318,1072.533697
63.914319,7476.080014,7476.080014,-3830.477490
63.914628,6735.874072,8660.409521,3983.696590
63.914938,3478.967927,9622.677246,14479.204912
63.915247,1184.329507,7031.956449,13866.328514
63.915557,1554.432478,5477.523971,9422.974625
63.915866,-296.082377,7476.080014,1072.533697
63.916175,-1554.432478,7698.141797,-7277.907231
63.916485,-3404.947333,10584.944971,-10572.117872
63.916794,-2442.679609,11991.336260,-10725.336972
63.917104,-5107.421000,13619.789333,-7890.783629
63.917413,-5625.565159,14211.954086,-4749.792088
63.917723,-3478.967927,13249.686362,-2221.676944
63.918032,-222.061783,10066.800811,-3907.087040
63.918341,5329.482782,4811.338623,-1532.190996
63.918651,3701.029710,5107.421000,7048.078582
63.918960,4071.132681,3182.885551,10342.289223
63.919270,592.164754,3108.864956,10112.460574
63.919579,-518.144159,4663.297435,7967.393179
63.919889,-814.226536,5551.544565,-995.924147
63.920198,222.061783,9252.574275,-11184.994271
63.920508,296.082377,14063.912898,-13559.890315
63.920817,-5625.565159,14656.077652,-9882.631924
63.921126,814.226536,16506.592507,-7431.126331
63.921436,-4293.194464,13545.768739,-5132.839837
63.921745,-444.123565,12731.542202,-3907.087040
63.922055,4293.194464,11103.089130,-4213.525239
63.922364,5995.668130,9622.677246,-1991.848295
63.922674,5033.400406,6587.832884,5898.935335
63.922983,5477.523971,6957.935855,13176.842566
63.923292,592.164754,7402.059420,12640.575717
63.923602,-1184.329507,8438.347739,6971.469032
63.923911,-296.082377,9030.512492,-7737.564530
63.924221,-1258.350101,9104.533087,-11568.042020
63.924530,-1776.494261,10288.862594,-14172.766713
63.924840,-2294.638420,12657.521608,-10801.946522
63.925149,-5551.544565,11769.274478,-7048.078582
63.925458,-5921.647536,11695.253884,-5209.449386
63.925768,-888.247130,10066.800811,-1685.410096
63.926077,3923.091493,7846.182985,-5515.887586
63.926387,4885.359217,5773.606348,-1608.800546
63.926696,3404.947333,4737.318029,8963.317327
63.927006,2220.617826,4071.132681,10878.556072
63.927315,666.185348,4959.379811,9729.412825
63.927624,-1036.288319,7105.977043,7277.907231
63.927934,-814.226536,7328.038826,-2834.553343
63.928243,-888.247130,8660.409521,-13713.109414
63.928553,-1110.308913,12583.501014,-13789.718964
63.928862,-5699.585753,14656.077652,-8503.660028
63.929172,-2220.617826,15840.407159,-7737.564530
63.929481,-3552.988522,12805.562797,-5592.497135
63.929790,-2442.679609,11029.068536,-4290.134789
63.930100,4219.173869,11399.171507,-2911.162892
63.930409,8512.368333,8808.450710,-2298.286494
63.930719,7105.977043,7772.162391,7507.735880
63.931028,1110.308913,6735.874072,15551.738609
63.931338,888.247130,6291.750507,15398.519510
63.931647,444.123565,7624.121203,7277.907231
63.931956,-814.226536,9918.759623,-4443.353888
63.932266,-962.267725,9844.739029,-11951.089769
63.932575,-3923.091493,13619.789333,-14096.157163
63.932885,-2368.659014,13989.892304,-12870.404366
