#time,accel_x,accel_y,accel_z
134.446715,-296.082377,9400.615463,-229.828649
134.447025,-0.000000,10436.903782,-1455.581446
134.447334,-222.061783,8734.430116,-1378.971896
134.447644,-0.000000,9474.636058,-1991.848295
134.447954,592.164754,9474.636058,-2374.896044
134.448264,-1406.391290,9622.677246,-842.705048
134.448573,-222.061783,9770.718434,-229.828649
134.448883,-370.102971,9400.615463,-306.438199
134.449193,666.185348,9548.656652,-1838.629195
134.449502,-0.000000,8808.450710,-2528.115143
134.449812,444.123565,7698.141797,-4366.744339
134.450122,148.041188,9622.677246,-842.705048
134.450431,-222.061783,10362.883188,0.000000
134.450741,370.102971,9844.739029,-459.657299
134.451051,-148.041188,8290.306550,-2068.457845
134.451360,888.247130,8882.471304,-2757.943793
134.451670,-1110.308913,8586.388927,-1838.629195
134.451980,-0.000000,11251.130318,153.219100
134.452289,222.061783,10658.965565,536.266849
134.452599,2368.659014,7402.059420,-2068.457845
134.452909,814.226536,8438.347739,-2068.457845
134.453219,-296.082377,8512.368333,-2068.457845
134.453528,296.082377,8956.491898,-766.095498
134.453838,-0.000000,9252.574275,306.438199
134.454148,1628.453072,9178.553681,1072.533697
134.454457,1702.473667,7105.977043,995.924147
134.454767,3775.050304,6217.729913,689.485948
134.455077,1998.556043,6365.771101,6358.592633
134.455386,1406.391290,7105.977043,10418.898773
134.455696,-1184.329507,5847.626942,10878.556072
134.456006,7254.018232,9696.697840,6818.249932
134.456315,5107.421000,5551.544565,1608.800546
134.456625,148.041188,8956.491898,7814.174080
134.456935,-1850.514855,9770.718434,15781.567259
134.457244,1998.556043,11695.253884,7890.783629
134.457554,1776.494261,11177.109724,4903.011187
134.457864,-1554.432478,11991.336260,11491.432470
134.458173,-2960.823768,12361.439231,12104.308868
134.458483,-14804.118840,16950.716072,3064.381992
134.458793,17246.798449,17172.777854,-6588.421283
134.459103,-888.247130,6439.791695,10878.556072
134.459412,-13323.706956,9548.656652,32252.620466
134.459722,4959.379811,21095.869347,16547.662757
134.460032,-4737.318029,4145.153275,-3217.601092
134.460341,4219.173869,11917.315666,612.876398
134.460651,-17098.757260,-148.041188,14555.814462
134.460961,2812.782580,16136.489536,459.657299
134.461270,-740.205942,4811.338623,1302.362347
134.461580,-6217.729913,7031.956449,12870.404366
134.461890,5847.626942,5847.626942,15781.567259
134.462199,-6513.812290,-1036.288319,11568.042020
134.462509,4589.276840,6883.915261,14325.985813
134.462819,-5033.400406,4367.215058,15704.957709
134.463128,2886.803174,8438.347739,0.000000
134.463438,-3404.947333,6587.832884,5669.106685
134.463748,-444.123565,15914.427753,4136.915689
134.464058,1998.556043,12805.562797,-3753.867940
134.464367,3849.070898,14137.933492,6588.421283
134.464677,-222.061783,11917.315666,23978.789087
134.464987,-814.226536,3256.906145,23365.912689
134.465296,5033.400406,7402.059420,12257.527968
134.465606,-2738.761985,2516.700203,9806.022374
134.465916,3256.906145,15026.180623,3447.429741
134.466225,7920.203579,13397.727550,-6358.592633
134.466535,3404.947333,17024.736666,-919.314598
134.466845,-5329.482782,15026.180623,15934.786358
134.467154,-6883.915261,13841.851115,17160.539155
134.467464,370.102971,11399.171507,6358.592633
134.467774,1406.391290,8290.306550,-2298.286494
134.468083,4293.194464,8956.491898,-3524.039291
134.468393,1184.329507,8142.265362,11031.775171
134.468703,-0.000000,12509.480420,16394.443657
134.469012,-1110.308913,9622.677246,13330.061665
134.469322,5403.503377,5995.668130,3830.477490
134.469632,1850.514855,2590.720797,2068.457845
134.469942,-8290.306550,3108.864956,8733.488677
134.470251,-4589.276840,7031.956449,5745.716235
134.470561,6587.832884,8068.244768,-7584.345430
134.470871,6809.894666,7994.224174,-5592.497135
134.471180,-1702.473667,6587.832884,13253.452115
134.471490,-8068.244768,8142.265362,24974.713235
134.471800,-592.164754,11843.295072,12334.137518
134.472109,6365.771101,10066.800811,-2757.943793
134.472419,-0.000000,11251.130318,-2374.896044
134.472729,-7624.121203,11621.233289,3753.867940
134.473038,-2220.617826,13767.830521,-2528.115143
134.473348,9918.759623,15100.201217,-9193.145976
134.473658,2960.823768,11473.192101,6435.202183
134.473967,-9104.533087,8068.244768,27502.828378
134.474277,1628.453072,5329.482782,23442.522239
134.474587,7031.956449,5329.482782,3140.991542
134.474897,296.082377,4737.318029,4749.792088
134.475206,-1850.514855,5847.626942,9422.974625
134.475516,3849.070898,2516.700203,-1991.848295
134.475826,-2590.720797,-8512.368333,229.828649
134.476135,-13397.727550,14730.098246,13023.623466
134.476445,10510.924376,16432.571912,20148.311597
134.476755,-21095.869347,814.226536,19152.387450
134.477064,7772.162391,19245.354492,8733.488677
134.477374,4219.173869,3849.070898,-12870.404366
134.477684,1998.556043,12139.377449,-9576.193725
134.477993,-8808.450710,10807.006753,26277.075581
134.478303,-4737.318029,17542.880825,18309.682402
134.478613,7328.038826,13841.851115,1608.800546
134.478922,-7031.956449,10584.944971,15704.957709
134.479232,-4663.297435,11843.295072,15934.786358
134.479542,2146.597232,7402.059420,-2374.896044
134.479852,9622.677246,13027.624579,-4213.525239
134.480161,-6143.709319,10807.006753,8580.269578
134.480471,-1184.329507,14434.015869,12717.185267
134.480781,3108.864956,14508.036463,8656.879127
134.481090,370.102971,9548.656652,4136.915689
134.481400,888.247130,13027.624579,15245.300410
134.481710,-4959.379811,8068.244768,21757.112143
134.482019,962.267725,4885.359217,10725.336972
134.482329,7328.038826,4811.338623,6052.154434
134.482639,962.267725,1480.411884,9269.755526
134.482948,3330.926739,4959.379811,8427.050478
134.483258,444.123565,9622.677246,13942.938064
134.483568,-6513.812290,9400.615463,17466.977354
134.483877,3108.864956,11843.295072,11031.775171
134.484187,2146.597232,10658.965565,-689.485948
134.484497,-4811.338623,2812.782580,5975.544884
134.484806,-7550.100608,9104.533087,13559.890315
134.485116,-3552.988522,12879.583391,7354.516781
134.485426,1258.350101,12065.356855,1072.533697
134.485736,6217.729913,14730.098246,5132.839837
134.486045,-1776.494261,14508.036463,13330.061665
134.486355,-7254.018232,12139.377449,12410.747068
134.486665,-1776.494261,13693.809927,5209.449386
134.486974,1776.494261,9918.759623,-842.705048
134.487284,2812.782580,9770.718434,-3294.210641
134.487594,-6957.935855,8586.388927,3140.991542
134.487903,-2146.597232,11103.089130,7048.078582
134.488213,740.205942,9252.574275,3140.991542
134.488523,5551.544565,6661.853478,1762.019645
134.488832,-444.123565,5625.565159,9346.365076
134.489142,-9104.533087,814.226536,14325.985813
134.489452,1924.535449,9400.615463,4366.744339
134.489761,5181.441594,4663.297435,-8810.098227
134.490071,7624.121203,8364.327145,-7354.516781
134.490381,-6809.894666,11473.192101,9806.022374
134.490691,-1702.473667,7624.121203,11874.480219
134.491000,4367.215058,10510.924376,3217.601092
134.491310,4071.132681,4071.132681,612.876398
134.491620,-7328.038826,6735.874072,5822.325785
134.491929,-1184.329507,9548.656652,-1455.581446
134.492239,6661.853478,10955.047942,-14709.033562
134.492549,5773.606348,16728.654289,-15704.957709
134.492858,-4367.215058,13397.727550,8580.269578
134.493168,-0.000000,9474.636058,8963.317327
134.493478,9104.533087,5551.544565,-5362.668486
134.493787,2220.617826,8142.265362,1225.752797
134.494097,-5995.668130,7105.977043,17313.758255
134.494407,4885.359217,6957.935855,1762.019645
134.494716,12731.542202,7179.997637,-15551.738609
134.495026,5181.441594,11695.253884,-12257.527968
134.495336,-5329.482782,7179.997637,5439.278036
134.495645,-2590.720797,9770.718434,8350.440928
134.495955,6365.771101,11029.068536,-1149.143247
134.496265,5921.647536,7328.038826,-536.266849
134.496575,-7105.977043,4441.235652,9039.926876
134.496884,-6883.915261,8216.285956,6894.859482
134.497194,3627.009116,10881.027347,-9346.365076
134.497504,3256.906145,14582.057057,-15092.081311
134.497813,-5773.606348,15544.324782,1608.800546
134.498123,-7624.121203,16358.551318,7048.078582
134.498433,-1702.473667,15692.365970,-1608.800546
134.498742,2294.638420,15248.242405,-5515.887586
134.499052,-9770.718434,11177.109724,3753.867940
134.499362,-5551.544565,4737.318029,4903.011187
134.499671,4145.153275,4811.338623,-7354.516781
134.499981,6513.812290,9992.780217,-10572.117872
134.500291,-2368.659014,7179.997637,3524.039291
134.500600,-3330.926739,3404.947333,13176.842566
134.500910,518.144159,4589.276840,4290.134789
134.501220,6513.812290,3923.091493,-612.876398
134.501529,-7254.018232,2516.700203,7967.393179
134.501839,-5477.523971,3849.070898,8503.660028
134.502148,9474.636058,7994.224174,-6511.811733
134.502458,5181.441594,13767.830521,-13176.842566
134.502767,-6217.729913,10510.924376,4749.792088
134.503077,-148.041188,12657.521608,11184.994271
134.503387,3108.864956,11843.295072,3294.210641
134.503696,-2072.576638,12879.583391,306.438199
134.504006,-7994.224174,12435.459826,8197.221829
134.504315,2590.720797,12583.501014,-5592.497135
134.504625,4367.215058,17987.004391,-18462.901502
134.504934,-0.000000,20355.663405,-7890.783629
134.505244,2294.638420,15988.448347,3064.381992
134.505553,444.123565,11473.192101,2757.943793
134.505863,1850.514855,11917.315666,9422.974625
134.506172,148.041188,6513.812290,12180.918418
134.506482,-1036.288319,7476.080014,0.000000
134.506791,2294.638420,2738.761985,-4979.620737
134.507101,2072.576638,8216.285956,-9039.926876
134.507410,4145.153275,7920.203579,-10112.460574
134.507720,-2146.597232,8660.409521,1378.971896
134.508030,740.205942,4515.256246,11338.213370
134.508339,518.144159,8956.491898,3830.477490
134.508649,-1480.411884,3404.947333,4290.134789
134.508958,-7550.100608,4589.276840,6435.202183
134.509268,1628.453072,8290.306550,-6741.640382
134.509577,3404.947333,12805.562797,-18692.730151
134.509887,-3627.009116,12139.377449,-9806.022374
134.510196,-1110.308913,13249.686362,2604.724693
134.510506,-888.247130,9326.594869,1915.238745
134.510815,-666.185348,11547.212695,4290.134789
134.511125,-1036.288319,8290.306550,8427.050478
134.511434,-1036.288319,3552.988522,-229.828649
134.511744,5921.647536,6735.874072,-10495.508323
134.512053,4885.359217,9400.615463,-10572.117872
134.512363,-666.185348,10436.903782,-3753.867940
134.512673,5329.482782,8808.450710,-612.876398
134.512982,6069.688724,9474.636058,1608.800546
134.513292,-2072.576638,8290.306550,8656.879127
134.513601,-4959.379811,6291.750507,13713.109414
134.513911,-74.020594,4885.359217,3064.381992
134.514220,11769.274478,7772.162391,-15475.129060
134.514530,3997.112087,10732.986159,-12793.794817
134.514839,-6587.832884,13989.892304,-229.828649
134.515149,-518.144159,14137.933492,3524.039291
134.515458,2294.638420,16580.613101,1072.533697
134.515768,-4737.318029,10140.821405,4596.572988
134.516077,-9474.636058,8734.430116,10878.556072
134.516387,-3775.050304,9400.615463,-919.314598
134.516696,3478.967927,7179.997637,-19228.997000
134.517006,2294.638420,12657.521608,-19535.435199
134.517316,-6143.709319,11103.089130,-1762.019645
134.517625,-888.247130,10436.903782,5975.544884
134.517935,6513.812290,9622.677246,3983.696590
134.518244,-2146.597232,6587.832884,14555.814462
134.518554,-6439.791695,1702.473667,14479.204912
134.518863,1406.391290,-74.020594,-1838.629195
134.519173,4293.194464,5329.482782,-17237.148705
134.519482,3627.009116,6439.791695,-13176.842566
134.519792,-2072.576638,14952.160028,-4749.792088
134.520101,1554.432478,14656.077652,1685.410096
134.520411,1998.556043,7920.203579,4443.353888
134.520720,-1480.411884,7105.977043,10878.556072
134.521030,-10140.821405,9548.656652,12640.575717
134.521339,2664.741391,12139.377449,-1149.143247
134.521649,7105.977043,10214.842000,-19612.044749
134.521959,592.164754,15174.221811,-16164.615008
134.522268,-4737.318029,18653.189738,3600.648841
134.522578,1998.556043,15544.324782,306.438199
134.522887,1036.288319,14285.974681,-4366.744339
134.523197,-1776.494261,8956.491898,10418.898773
134.523506,-7254.018232,9030.512492,12640.575717
134.523816,1184.329507,4071.132681,-7967.393179
134.524125,5033.400406,10362.883188,-17083.929605
134.524435,-0.000000,7846.182985,-4979.620737
134.524744,-518.144159,11991.336260,1149.143247
134.525054,1406.391290,7846.182985,-1149.143247
134.525363,-1554.432478,8364.327145,6128.763984
134.525673,-1924.535449,9252.574275,11951.089769
134.525982,-5625.565159,3034.844362,4519.963438
134.526292,2738.761985,3404.947333,-6588.421283
134.526602,3627.009116,10510.924376,-10572.117872
134.526911,-296.082377,9326.594869,-4596.572988
134.527221,-1702.473667,12509.480420,1225.752797
134.527530,2368.659014,12287.418637,2068.457845
134.527840,2146.597232,10955.047942,842.705048
134.528149,-7179.997637,7698.141797,7431.126331
134.528459,-6587.832884,9252.574275,6665.030833
134.528768,4367.215058,7031.956449,-8427.050478
134.529078,8364.327145,13545.768739,-18616.120601
134.529387,-5329.482782,13545.768739,-6435.202183
134.529697,-962.267725,12731.542202,7737.564530
134.530006,9992.780217,11103.089130,-1532.190996
134.530316,2960.823768,8808.450710,1532.190996
134.530625,-6587.832884,6513.812290,17773.415554
134.530935,-1628.453072,296.082377,8656.879127
134.531245,8290.306550,222.061783,-12717.185267
134.531554,3256.906145,10658.965565,-13789.718964
134.531864,-4737.318029,13175.665768,-2145.067394
134.532173,5107.421000,11843.295072,-5209.449386
134.532483,4441.235652,11547.212695,-3600.648841
134.532792,-2812.782580,15840.407159,7048.078582
134.533102,-3775.050304,9400.615463,15475.129060
134.533411,-2368.659014,5847.626942,1149.143247
134.533721,7328.038826,10288.862594,-13559.890315
134.534030,-1554.432478,8364.327145,-10035.851024
134.534340,-3923.091493,15914.427753,-2145.067394
134.534649,2072.576638,11769.274478,-4596.572988
134.534959,4737.318029,13841.851115,-8044.002729
134.535268,-4737.318029,10658.965565,4443.353888
134.535578,-9178.553681,7328.038826,12487.356617
134.535887,2516.700203,3775.050304,-2911.162892
134.536197,3256.906145,3923.091493,-13942.938064
134.536507,592.164754,6365.771101,-6665.030833
134.536816,-6365.771101,8290.306550,-612.876398
134.537126,2738.761985,7772.162391,-2834.553343
134.537435,6365.771101,10214.842000,-3140.991542
134.537745,-148.041188,9104.533087,6971.469032
134.538054,-6661.853478,7772.162391,9422.974625
134.538364,-0.000000,2664.741391,459.657299
134.538673,5847.626942,11843.295072,-13559.890315
134.538983,518.144159,10955.047942,-10725.336972
134.539292,-4071.132681,11547.212695,-1225.752797
134.539602,1702.473667,10140.821405,1532.190996
134.539911,2738.761985,12731.542202,-612.876398
134.540221,-4811.338623,12213.398043,5592.497135
134.540530,-5921.647536,11325.150913,7277.907231
134.540840,2812.782580,9548.656652,-9193.145976
134.541150,4293.194464,10955.047942,-16241.224558
134.541459,222.061783,9252.574275,-7048.078582
134.541769,-3108.864956,8438.347739,919.314598
134.542078,1924.535449,8068.244768,3140.991542
134.542388,3923.091493,9030.512492,4903.011187
134.542697,-2516.700203,4293.194464,8427.050478
134.543007,-3627.009116,5773.606348,3217.601092
134.543316,1258.350101,5921.647536,-7507.735880
134.543626,5329.482782,8512.368333,-15934.786358
134.543935,-1480.411884,8956.491898,-9576.193725
134.544245,-4959.379811,11843.295072,1455.581446
134.544554,-1628.453072,9178.553681,2757.943793
134.544864,3923.091493,12805.562797,-842.705048
134.545173,-3627.009116,9326.594869,3677.258390
134.545483,-4367.215058,8512.368333,4443.353888
134.545793,3997.112087,11325.150913,-5822.325785
134.546102,4367.215058,11843.295072,-12947.013916
134.546412,-2590.720797,13471.748144,-4060.306139
134.546721,-2442.679609,9918.759623,3370.820191
134.547031,3478.967927,12287.418637,-2221.676944
134.547340,888.247130,13471.748144,-2834.553343
134.547650,-4663.297435,9844.739029,6205.373534
134.547959,1850.514855,7179.997637,-766.095498
134.548269,4663.297435,3108.864956,-11338.213370
134.548578,3701.029710,9030.512492,-6818.249932
134.548888,-6661.853478,8660.409521,6358.592633
134.549197,4737.318029,7254.018232,1915.238745
134.549507,8512.368333,12953.603985,-6281.983084
134.549816,-4515.256246,7105.977043,4903.011187
134.550126,-3256.906145,8956.491898,9346.365076
134.550436,1110.308913,8290.306550,-4136.915689
134.550745,8142.265362,9622.677246,-14555.814462
134.551055,-148.041188,10807.006753,-7201.297681
134.551364,-6809.894666,10881.027347,3370.820191
134.551674,3552.988522,7254.018232,-1149.143247
134.551983,1332.370696,13027.624579,-4136.915689
134.552293,-2516.700203,10140.821405,5362.668486
134.552602,-4811.338623,10658.965565,4903.011187
134.552912,4811.338623,8068.244768,-10725.336972
134.553221,1184.329507,6291.750507,-14402.595362
134.553531,-2368.659014,9696.697840,1225.752797
134.553840,-5033.400406,9696.697840,4366.744339
134.554150,4293.194464,8216.285956,-1991.848295
134.554459,6365.771101,7698.141797,153.219100
134.554769,-10066.800811,6513.812290,7890.783629
134.555079,-1406.391290,5847.626942,6511.811733
134.555388,2146.597232,5995.668130,-9882.631924
134.555698,3108.864956,11399.171507,-16241.224558
134.556007,-1998.556043,11621.233289,-4060.306139
134.556317,-3775.050304,9474.636058,2681.334243
134.556626,-296.082377,9918.759623,-995.924147
134.556936,2886.803174,10362.883188,2298.286494
134.557245,-6291.750507,10288.862594,7967.393179
134.557555,296.082377,10214.842000,2221.676944
134.557864,2812.782580,8216.285956,-10112.460574
134.558174,2294.638420,9252.574275,-10572.117872
134.558483,-4811.338623,11325.150913,-306.438199
134.558793,-0.000000,12879.583391,1532.190996
134.559102,4293.194464,9030.512492,-1302.362347
134.559412,-1776.494261,9844.739029,2987.772442
134.559722,-9474.636058,9918.759623,8733.488677
134.560031,1628.453072,6513.812290,-3524.039291
134.560341,5699.585753,5181.441594,-17926.634653
134.560650,-592.164754,11621.233289,-11721.261119
134.560960,-5551.544565,11917.315666,2681.334243
134.561269,4293.194464,9844.739029,3217.601092
134.561579,6735.874072,7031.956449,-1685.410096
134.561888,-5255.462188,9696.697840,7354.516781
134.562198,-8586.388927,5995.668130,14555.814462
134.562507,962.267725,6957.935855,-5209.449386
134.562817,12435.459826,12065.356855,-23902.179538
134.563126,-740.205942,14211.954086,-11108.384721
134.563436,-7920.203579,10436.903782,8580.269578
134.563745,2590.720797,12509.480420,1838.629195
134.564055,4737.318029,10510.924376,-5209.449386
134.564365,-6883.915261,10584.944971,9039.926876
134.564674,-8142.265362,9030.512492,9882.631924
134.564984,8290.306550,8660.409521,-13483.280765
134.565293,7846.182985,9622.677246,-21067.626195
134.565603,-3330.926739,13619.789333,-383.047749
134.565912,-2516.700203,10955.047942,9499.584175
134.566222,5773.606348,9104.533087,-459.657299
134.566531,1406.391290,7105.977043,-1455.581446
134.566841,-6735.874072,5921.647536,7890.783629
134.567150,-2294.638420,5699.585753,3140.991542
134.567460,7402.059420,6365.771101,-16777.491406
134.567769,5921.647536,9326.594869,-15398.519510
134.568079,-5847.626942,10436.903782,3294.210641
134.568388,-3034.844362,8586.388927,7354.516781
134.568698,4589.276840,7994.224174,-995.924147
134.569008,666.185348,11917.315666,2221.676944
134.569317,-5847.626942,12509.480420,8580.269578
134.569627,-740.205942,6809.894666,-4290.134789
134.569936,5625.565159,8660.409521,-15245.300410
134.570246,-0.000000,10288.862594,-9269.755526
134.570555,-1628.453072,11769.274478,-1149.143247
134.570865,-2664.741391,10436.903782,842.705048
134.571174,2590.720797,13915.871710,383.047749
134.571484,1406.391290,12805.562797,1838.629195
134.571793,-5033.400406,7994.224174,2911.162892
134.572103,-962.267725,3849.070898,-612.876398
134.572412,1776.494261,1850.514855,-9806.022374
134.572722,2220.617826,9400.615463,-13559.890315
134.573031,-1998.556043,9030.512492,459.657299
134.573341,444.123565,11769.274478,5975.544884
134.573650,2812.782580,12805.562797,1378.971896
134.573960,-1184.329507,7994.224174,5822.325785
134.574270,-7328.038826,8364.327145,6818.249932
134.574579,-2516.700203,7402.059420,-4979.620737
134.574889,10584.944971,7994.224174,-18769.339701
134.575198,-0.000000,12879.583391,-12640.575717
134.575508,-6365.771101,15322.262999,6281.983084
134.575817,3330.926739,11991.336260,4826.401637
134.576127,3849.070898,11917.315666,766.095498
134.576436,-4885.359217,11473.192101,8427.050478
134.576746,-8216.285956,5329.482782,8350.440928
134.577055,4515.256246,6069.688724,-11797.870669
134.577365,6365.771101,7179.997637,-23748.960438
134.577674,-2886.803174,12361.439231,-5669.106685
134.577984,-5181.441594,12435.459826,8044.002729
134.578293,2960.823768,9548.656652,-1838.629195
134.578603,3923.091493,6291.750507,1991.848295
134.578913,-3404.947333,6069.688724,12257.527968
134.579222,-6587.832884,6217.729913,4903.011187
134.579532,4145.153275,3478.967927,-11031.775171
134.579841,5107.421000,10436.903782,-16777.491406
134.580151,-0.000000,10955.047942,-6588.421283
134.580460,-3775.050304,13545.768739,4519.963438
134.580770,1184.329507,12287.418637,3983.696590
134.581079,1554.432478,11251.130318,0.000000
134.581389,-2812.782580,8512.368333,6281.983084
134.581698,-4959.379811,7031.956449,5592.497135
134.582008,4071.132681,7105.977043,-10878.556072
134.582317,5551.544565,7105.977043,-17160.539155
134.582627,-4145.153275,9104.533087,-1378.971896
134.582936,-4589.276840,10140.821405,7814.174080
134.583246,2516.700203,13915.871710,-1608.800546
134.583556,5329.482782,12731.542202,-2757.943793
134.583865,-5403.503377,10140.821405,9806.022374
134.584175,-962.267725,8142.265362,2834.553343
134.584484,3627.009116,1702.473667,-11108.384721
134.584794,4737.318029,5329.482782,-11568.042020
134.585103,-2590.720797,11769.274478,1991.848295
134.585413,-370.102971,13545.768739,3140.991542
134.585722,3627.009116,9474.636058,-1302.362347
134.586032,2072.576638,13767.830521,-1915.238745
134.586341,-3775.050304,6957.935855,3753.867940
134.586651,-2590.720797,5255.462188,-612.876398
134.586960,7105.977043,2812.782580,-9193.145976
134.587270,592.164754,11029.068536,-8120.612279
134.587579,-6291.750507,12065.356855,4826.401637
134.587889,-148.041188,11399.171507,4136.915689
134.588199,8734.430116,9178.553681,-5209.449386
134.588508,-1406.391290,12583.501014,-1608.800546
134.588818,-6143.709319,11843.295072,7124.688131
134.589127,1628.453072,5181.441594,-4979.620737
134.589437,7105.977043,8364.327145,-13483.280765
134.589746,-1776.494261,10881.027347,-2987.772442
134.590056,-6513.812290,8512.368333,8580.269578
134.590365,5255.462188,12805.562797,-383.047749
134.590675,5699.585753,5625.565159,-5898.935335
134.590984,-814.226536,11177.109724,2528.115143
134.591294,-4885.359217,6883.915261,5286.058936
134.591603,666.185348,6957.935855,-6052.154434
134.591913,4885.359217,10510.924376,-10955.165621
134.592222,-3997.112087,11917.315666,-4213.525239
134.592532,-7920.203579,10362.883188,5669.106685
134.592842,3108.864956,8586.388927,-306.438199
134.593151,8068.244768,7994.224174,-7584.345430
134.593461,-5255.462188,10362.883188,5822.325785
134.593770,-4071.132681,9326.594869,12410.747068
134.594080,-518.144159,4885.359217,-5669.106685
134.594389,5773.606348,8068.244768,-12410.747068
134.594699,-7031.956449,13989.892304,3830.477490
134.595008,-5847.626942,11177.109724,3753.867940
134.595318,7328.038826,13101.645173,-14249.376263
134.595627,4589.276840,13471.748144,-9193.145976
134.595937,-6587.832884,11103.089130,9039.926876
134.596246,-3478.967927,5329.482782,5822.325785
134.596556,5477.523971,4515.256246,-5975.544884
134.596865,2368.659014,9918.759623,-2145.067394
134.597175,-7254.018232,7846.182985,4443.353888
134.597485,-1998.556043,9252.574275,5286.058936
134.597794,5329.482782,12287.418637,-4673.182538
134.598104,6439.791695,11621.233289,-9193.145976
134.598413,-5995.668130,9178.553681,6281.983084
134.598723,-3552.988522,8956.491898,5898.935335
134.599032,6439.791695,5477.523971,-8503.660028
134.599342,1036.288319,10510.924376,-7890.783629
134.599651,-11769.274478,11103.089130,8963.317327
134.599961,-0.000000,9104.533087,4826.401637
134.600270,7254.018232,5699.585753,-10418.898773
134.600579,2146.597232,11473.192101,-2145.067394
134.600889,-6143.709319,10955.047942,8656.879127
134.601198,-1406.391290,10955.047942,-536.266849
134.601508,4515.256246,10658.965565,-9576.193725
134.601817,1776.494261,12731.542202,-3677.258390
134.602127,-4367.215058,8364.327145,5056.230287
134.602436,1110.308913,7476.080014,6588.421283
134.602746,5033.400406,6291.750507,-3064.381992
134.603055,2960.823768,9992.780217,-1991.848295
134.603365,-4293.194464,9844.739029,5132.839837
134.603674,-3997.112087,8216.285956,2987.772442
134.603984,6439.791695,10214.842000,-8120.612279
134.604293,3701.029710,12139.377449,-10495.508323
134.604602,-4885.359217,12509.480420,919.314598
134.604912,-666.185348,7328.038826,3907.087040
134.605221,6365.771101,10288.862594,-5209.449386
134.605531,2368.659014,12213.398043,-919.314598
134.605840,-1406.391290,7550.100608,9346.365076
134.606150,-592.164754,7846.182985,3294.210641
134.606459,3923.091493,8290.306550,-3677.258390
134.606769,-666.185348,11399.171507,4136.915689
134.607078,-1406.391290,8956.491898,-1685.410096
134.607388,-0.000000,14137.933492,-6894.859482
134.607697,592.164754,9696.697840,-7660.954980
134.608007,-1924.535449,11991.336260,-1532.190996
134.608316,-3552.988522,9992.780217,4366.744339
134.608626,-740.205942,7402.059420,3830.477490
134.608935,7402.059420,6587.832884,-4519.963438
134.609244,-1406.391290,8068.244768,-2145.067394
134.609554,-1776.494261,8290.306550,5745.716235
134.609863,-370.102971,5255.462188,1532.190996
134.610173,5329.482782,8142.265362,-9422.974625
134.610482,1110.308913,7698.141797,0.000000
134.610792,-7179.997637,5995.668130,8733.488677
134.611101,-962.267725,9474.636058,2298.286494
134.611411,6439.791695,10658.965565,-10878.556072
134.611720,-6661.853478,10362.883188,-612.876398
134.612030,-296.082377,9104.533087,2987.772442
134.612339,6439.791695,8364.327145,-4673.182538
134.612649,1702.473667,9474.636058,-306.438199
134.612958,-6809.894666,13101.645173,10878.556072
134.613267,-1480.411884,11103.089130,6128.763984
134.613577,3923.091493,11399.171507,-9729.412825
134.613886,3256.906145,13175.665768,-10342.289223
134.614196,-6809.894666,9326.594869,1762.019645
134.614505,888.247130,11917.315666,-1915.238745
134.614815,5699.585753,5699.585753,-7967.393179
134.615124,4293.194464,9030.512492,-383.047749
134.615434,-11473.192101,4959.379811,13023.623466
134.615743,-2294.638420,5181.441594,7890.783629
134.616053,5107.421000,4737.318029,-9116.536426
134.616362,4663.297435,8216.285956,-11338.213370
134.616672,-4145.153275,9178.553681,153.219100
134.616981,-0.000000,6069.688724,3830.477490
134.617291,4145.153275,10436.903782,-2221.676944
134.617600,-962.267725,10214.842000,612.876398
134.617909,-6883.915261,10955.047942,11031.775171
134.618219,1332.370696,10510.924376,2834.553343
134.618528,1924.535449,11473.192101,-11874.480219
134.618838,-148.041188,16136.489536,-7737.564530
134.619147,-4737.318029,9696.697840,1685.410096
134.619457,2442.679609,12805.562797,-2834.553343
134.619766,5921.647536,8734.430116,-6281.983084
134.620076,-6217.729913,12953.603985,3753.867940
134.620385,-5255.462188,9474.636058,9039.926876
134.620695,3997.112087,6439.791695,-4136.915689
134.621004,7031.956449,4737.318029,-6741.640382
134.621314,-3849.070898,9770.718434,-536.266849
134.621623,-1628.453072,2738.761985,7737.564530
134.621933,5403.503377,9104.533087,-995.924147
134.622242,5181.441594,5033.400406,-3677.258390
134.622551,-4737.318029,8586.388927,2145.067394
134.622861,-6143.709319,8808.450710,6052.154434
134.623170,4367.215058,9030.512492,-7814.174080
134.623480,6883.915261,13693.809927,-13789.718964
134.623789,-5551.544565,14137.933492,-2221.676944
134.624099,-740.205942,11251.130318,6511.811733
134.624408,5403.503377,7105.977043,-306.438199
134.624718,2664.741391,11177.109724,-1302.362347
134.625027,-6957.935855,13471.748144,11568.042020
134.625337,-7624.121203,9178.553681,8427.050478
134.625646,5107.421000,9252.574275,-9882.631924
134.625956,3108.864956,11843.295072,-12257.527968
134.626265,-3997.112087,12287.418637,-4366.744339
134.626574,-3034.844362,8068.244768,-919.314598
134.626884,6439.791695,7550.100608,306.438199
134.627193,5033.400406,7402.059420,-1149.143247
134.627503,-5995.668130,7772.162391,10801.946522
134.627812,-2294.638420,5773.606348,12257.527968
134.628122,1554.432478,4145.153275,-4596.572988
134.628431,5033.400406,6883.915261,-14096.157163
134.628741,-1776.494261,9474.636058,-2757.943793
134.629050,-2516.700203,10658.965565,459.657299
134.629360,4071.132681,11029.068536,-5898.935335
134.629669,4145.153275,9622.677246,-2374.896044
134.629979,-7698.141797,12509.480420,10418.898773
134.630288,-5921.647536,8290.306550,5132.839837
134.630598,4293.194464,7550.100608,-7354.516781
134.630907,592.164754,16210.510130,-11568.042020
134.631216,-1332.370696,13101.645173,-6741.640382
134.631526,3775.050304,14952.160028,-4749.792088
134.631835,1406.391290,6809.894666,-1072.533697
134.632145,-0.000000,13175.665768,4213.525239
134.632454,-7031.956449,5551.544565,12334.137518
134.632764,-1406.391290,4885.359217,3064.381992
134.633073,3478.967927,3182.885551,-7201.297681
134.633383,2072.576638,10881.027347,-8350.440928
134.633692,666.185348,8068.244768,-3370.820191
134.634002,5255.462188,10584.944971,-3600.648841
134.634311,1258.350101,5477.523971,-1762.019645
134.634621,-3627.009116,10288.862594,7201.297681
134.634930,-4441.235652,6735.874072,8810.098227
134.635240,-666.185348,7994.224174,-153.219100
134.635549,1036.288319,10510.924376,-7048.078582
134.635858,1184.329507,13101.645173,-6128.763984
134.636168,1184.329507,10584.944971,-5592.497135
134.636477,-1184.329507,10362.883188,-3370.820191
134.636787,4885.359217,8882.471304,3140.991542
134.637096,-2960.823768,12065.356855,7814.174080
134.637406,-5773.606348,12139.377449,5822.325785
134.637715,-740.205942,10362.883188,-2298.286494
134.638025,3404.947333,10584.944971,-10648.727422
134.638334,-814.226536,11917.315666,-10112.460574
134.638644,148.041188,7476.080014,-4136.915689
134.638953,4663.297435,6513.812290,-3064.381992
134.639263,3330.926739,3775.050304,1225.752797
134.639572,-6291.750507,8290.306550,12563.966167
134.639881,-3330.926739,6439.791695,13483.280765
134.640191,-444.123565,8290.306550,-2221.676944
134.640500,5033.400406,8882.471304,-12027.699319
134.640810,-444.123565,12583.501014,-8427.050478
134.641119,-3330.926739,9104.533087,-5669.106685
134.641429,3478.967927,11251.130318,-5515.887586
134.641738,3627.009116,10066.800811,306.438199
134.642048,-8364.327145,12287.418637,13100.233016
134.642357,-3330.926739,12213.398043,10035.851024
134.642667,2442.679609,6291.750507,-5056.230287
134.642976,4441.235652,11843.295072,-11108.384721
134.643286,-4737.318029,12139.377449,-5822.325785
134.643595,222.061783,9696.697840,-5745.716235
134.643905,5847.626942,13915.871710,-9346.365076
134.644214,1406.391290,10807.006753,229.828649
134.644523,-8142.265362,6291.750507,14709.033562
134.644833,-6217.729913,6883.915261,11644.651570
134.645142,5847.626942,4441.235652,-5132.839837
134.645452,7328.038826,5551.544565,-8810.098227
134.645761,-4367.215058,6809.894666,-1378.971896
134.646071,-444.123565,12657.521608,-5439.278036
134.646380,4885.359217,4737.318029,-11031.775171
134.646690,1332.370696,12953.603985,-3447.429741
134.646999,-9918.759623,12065.356855,11874.480219
134.647309,-592.164754,8808.450710,4366.744339
134.647618,3404.947333,9992.780217,-6205.373534
134.647928,-222.061783,12287.418637,-5209.449386
134.648237,-1850.514855,10066.800811,-3600.648841
134.648547,2886.803174,10510.924376,-7967.393179
134.648856,5847.626942,9844.739029,-8044.002729
134.649165,370.102971,13767.830521,3294.210641
134.649475,-8364.327145,9622.677246,13253.452115
134.649784,-3775.050304,15840.407159,4979.620737
134.650094,7105.977043,10066.800811,-9269.755526
134.650403,-1480.411884,8882.471304,-9806.022374
134.650713,-3330.926739,9992.780217,-3217.601092
134.651022,3034.844362,9770.718434,-4903.011187
134.651332,4293.194464,4515.256246,-9346.365076
134.651641,-3775.050304,10066.800811,7354.516781
134.651951,-7179.997637,7105.977043,17313.758255
134.652260,296.082377,6587.832884,4749.792088
134.652570,2590.720797,9326.594869,-8503.660028
134.652879,-1628.453072,8882.471304,-6588.421283
134.653189,-2220.617826,14434.015869,-5515.887586
134.653498,2072.576638,8438.347739,-9422.974625
134.653807,3923.091493,7920.203579,-4749.792088
134.654117,-7698.141797,11473.192101,6128.763984
134.654426,-5477.523971,8068.244768,10112.460574
134.654736,666.185348,7031.956449,3064.381992
134.655045,2368.659014,10955.047942,-6511.811733
134.655355,-0.000000,10362.883188,-4673.182538
134.655664,-2220.617826,9178.553681,-4903.011187
134.655974,4737.318029,8586.388927,-8963.317327
134.656283,3034.844362,12509.480420,-4979.620737
134.656593,-3849.070898,12213.398043,6435.202183
134.656902,-4441.235652,12139.377449,8273.831378
134.657212,2960.823768,6809.894666,536.266849
134.657521,2146.597232,6291.750507,-6665.030833
134.657830,814.226536,9252.574275,-3370.820191
134.658140,-296.082377,7846.182985,-2604.724693
134.658449,2812.782580,5625.565159,-6281.983084
134.658759,2368.659014,12435.459826,-4673.182538
134.659068,-3256.906145,9400.615463,2451.505594
134.659378,-1850.514855,12953.603985,4903.011187
134.659687,1554.432478,7624.121203,0.000000
134.659997,518.144159,9548.656652,-4519.963438
134.660306,296.082377,8956.491898,-2681.334243
134.660616,296.082377,9770.718434,-2604.724693
134.660925,592.164754,5181.441594,-3217.601092
134.661235,2664.741391,11917.315666,-842.705048
134.661544,-3997.112087,12509.480420,919.314598
134.661854,-2072.576638,10510.924376,-919.314598
134.662163,2590.720797,7328.038826,-2374.896044
134.662472,-1258.350101,11917.315666,0.000000
134.662782,222.061783,8586.388927,-536.266849
134.663091,-740.205942,9622.677246,-4290.134789
134.663401,2812.782580,6069.688724,-6205.373534
134.663710,-444.123565,8808.450710,-1532.190996
134.664020,-3182.885551,6809.894666,3753.867940
134.664329,-0.000000,9474.636058,1762.019645
134.664639,3552.988522,9030.512492,-2911.162892
134.664948,-444.123565,10214.842000,-2757.943793
134.665258,-518.144159,9622.677246,-2221.676944
134.665567,444.123565,10732.986159,-3600.648841
134.665877,2072.576638,8364.327145,-7431.126331
134.666186,-1628.453072,10732.986159,-1838.629195
134.666496,-2220.617826,11325.150913,4443.353888
134.666805,2368.659014,8438.347739,-2757.943793
134.667114,6809.894666,9178.553681,-5592.497135
134.667424,-5033.400406,11695.253884,1149.143247
134.667733,-2812.782580,11251.130318,3370.820191
134.668043,2960.823768,8216.285956,-5822.325785
134.668352,3404.947333,10584.944971,-9806.022374
134.668662,-5995.668130,11843.295072,-383.047749
134.668971,-4441.235652,9622.677246,3907.087040
134.669281,888.247130,7846.182985,-3907.087040
134.669590,4367.215058,7476.080014,-3830.477490
134.669900,-3256.906145,9474.636058,2221.676944
134.670209,-2960.823768,6661.853478,5209.449386
134.670519,2368.659014,4663.297435,-2528.115143
134.670828,3552.988522,6809.894666,-6894.859482
134.671137,-0.000000,7402.059420,3370.820191
134.671447,-4737.318029,9400.615463,4596.572988
134.671756,-0.000000,9918.759623,-3370.820191
134.672066,3701.029710,12287.418637,-7967.393179
134.672375,-3034.844362,12731.542202,-1072.533697
134.672685,-296.082377,10436.903782,1532.190996
134.672994,2812.782580,10584.944971,-1762.019645
134.673304,2294.638420,10955.047942,-2604.724693
134.673613,-5847.626942,7402.059420,3064.381992
134.673923,-2960.823768,14508.036463,536.266849
134.674232,3330.926739,7846.182985,-10265.679673
134.674542,296.082377,13027.624579,-7967.393179
134.674851,-370.102971,10955.047942,2911.162892
134.675161,-1702.473667,9696.697840,1072.533697
134.675470,5921.647536,6661.853478,-995.924147
134.675779,-814.226536,6735.874072,3447.429741
134.676089,-4441.235652,3552.988522,3983.696590
134.676398,-1924.535449,8068.244768,-3140.991542
134.676708,5847.626942,3997.112087,-7048.078582
134.677017,888.247130,9474.636058,-6128.763984
134.677327,-2812.782580,10584.944971,-1608.800546
134.677636,592.164754,10955.047942,229.828649
134.677946,1332.370696,6365.771101,0.000000
134.678255,-2664.741391,8956.491898,2528.115143
134.678565,-4959.379811,8808.450710,6665.030833
134.678874,-0.000000,11251.130318,-3447.429741
134.679184,5699.585753,10362.883188,-11721.261119
134.679493,-592.164754,9844.739029,-4903.011187
134.679803,-3552.988522,10732.986159,1532.190996
134.680112,-74.020594,12583.501014,-2451.505594
134.680421,5699.585753,6143.709319,-2374.896044
134.680731,-4293.194464,11991.336260,6358.592633
134.681040,-1332.370696,10658.965565,7584.345430
134.681350,1924.535449,5551.544565,-4903.011187
134.681659,3627.009116,8364.327145,-8350.440928
134.681969,1110.308913,9696.697840,-5056.230287
134.682278,222.061783,6513.812290,-1991.848295
134.682588,-296.082377,7254.018232,1455.581446
134.682897,2072.576638,9696.697840,4903.011187
134.683207,-4737.318029,9844.739029,3064.381992
134.683516,-4071.132681,11621.233289,0.000000
134.683826,1184.329507,5995.668130,-6971.469032
134.684135,3330.926739,12805.562797,-14479.204912
134.684444,1258.350101,16802.674883,-10648.727422
134.684754,-592.164754,9992.780217,383.047749
134.685063,-1036.288319,10214.842000,6971.469032
134.685373,4145.153275,9178.553681,9806.022374
134.685682,-3775.050304,5403.503377,4903.011187
134.685992,-666.185348,9030.512492,1608.800546
134.686301,2516.700203,8290.306550,-7967.393179
134.686611,1628.453072,7846.182985,-11414.822920
134.686920,666.185348,8142.265362,-7660.954980
134.687230,-962.267725,9252.574275,-4366.744339
134.687539,2294.638420,7328.038826,536.266849
134.687849,444.123565,9474.636058,5898.935335
134.688158,-3478.967927,5625.565159,11108.384721
134.688468,-814.226536,6957.935855,4290.134789
134.688777,1850.514855,7550.100608,-6435.202183
134.689086,962.267725,11843.295072,-13866.328514
134.689396,370.102971,9030.512492,-8656.879127
134.689705,2886.803174,12583.501014,-1302.362347
134.690015,2738.761985,12879.583391,842.705048
134.690324,962.267725,11843.295072,7814.174080
134.690634,-4811.338623,9696.697840,10418.898773
134.690943,-2442.679609,8660.409521,766.095498
134.691253,3701.029710,5033.400406,-6205.373534
134.691562,-444.123565,9992.780217,-8656.879127
134.691872,1184.329507,10066.800811,-7660.954980
134.692181,444.123565,12953.603985,-5362.668486
134.692491,-1998.556043,12213.398043,0.000000
134.692800,-148.041188,15322.262999,4903.011187
134.693110,-1850.514855,9622.677246,5132.839837
134.693419,-2146.597232,5921.647536,1378.971896
134.693728,1998.556043,5847.626942,-1455.581446
134.694038,2072.576638,6439.791695,-7124.688131
134.694347,2516.700203,4441.235652,-6894.859482
134.694657,-0.000000,9030.512492,-459.657299
134.694966,222.061783,10510.924376,3907.087040
134.695276,-0.000000,9104.533087,4596.572988
134.695585,-3182.885551,9474.636058,4903.011187
134.695895,-2960.823768,9252.574275,0.000000
134.696204,1702.473667,8068.244768,-11338.213370
134.696514,740.205942,10658.965565,-13176.842566
134.696823,2146.597232,10288.862594,-6588.421283
134.697133,370.102971,15026.180623,1915.238745
134.697442,2960.823768,10881.027347,5822.325785
134.697751,-1850.514855,10807.006753,9576.193725
134.698061,-1406.391290,11991.336260,9346.365076
134.698370,-0.000000,6513.812290,-2221.676944
134.698680,2146.597232,11547.212695,-12180.918418
134.698989,-592.164754,10362.883188,-11414.822920
134.699299,1406.391290,9844.739029,-6435.202183
134.699608,1110.308913,11325.150913,-8350.440928
134.699918,3997.112087,8216.285956,1991.848295
134.700227,-5995.668130,8142.265362,11721.261119
134.700537,-3627.009116,8586.388927,11031.775171
134.700846,222.061783,4219.173869,-2604.724693
134.701156,8142.265362,6883.915261,-11414.822920
134.701465,148.041188,8586.388927,-8197.221829
134.701775,-740.205942,11991.336260,-4979.620737
134.702084,1924.535449,7031.956449,-1608.800546
134.702393,-1480.411884,11843.295072,7507.735880
134.702703,-3627.009116,13619.789333,10648.727422
134.703013,-740.205942,12287.418637,2374.896044
134.703322,2442.679609,5181.441594,-6128.763984
134.703632,-2368.659014,11251.130318,-5056.230287
134.703941,74.020594,11843.295072,-3830.477490
134.704251,-370.102971,10955.047942,-9729.412825
134.704560,1702.473667,10066.800811,-6511.811733
134.704870,-2812.782580,11029.068536,5592.497135
134.705179,-148.041188,7846.182985,7124.688131
134.705489,1406.391290,13101.645173,-842.705048
134.705798,1480.411884,4145.153275,-153.219100
134.706108,-0.000000,3627.009116,-612.876398
134.706418,1702.473667,5847.626942,-3907.087040
134.706727,1258.350101,9326.594869,-5898.935335
134.707037,1850.514855,7994.224174,-3600.648841
134.707346,592.164754,11177.109724,919.314598
134.707656,-1184.329507,8882.471304,5132.839837
134.707965,-2368.659014,12213.398043,3294.210641
134.708275,1480.411884,9178.553681,-3524.039291
134.708584,1628.453072,9326.594869,-4519.963438
134.708894,666.185348,9770.718434,-4979.620737
134.709204,1110.308913,14211.954086,-5592.497135
134.709513,444.123565,10066.800811,383.047749
134.709823,-3256.906145,15692.365970,4903.011187
134.710132,1628.453072,16580.613101,3370.820191
134.710442,-444.123565,8956.491898,-3907.087040
134.710751,-1998.556043,9326.594869,-1838.629195
134.711061,-1184.329507,4219.173869,1991.848295
134.711370,1036.288319,5773.606348,-6128.763984
134.711680,1554.432478,4737.318029,-5362.668486
134.711989,1850.514855,4737.318029,2374.896044
134.712299,-2516.700203,6661.853478,5745.716235
134.712609,2220.617826,10288.862594,3677.258390
134.712918,-296.082377,6439.791695,1225.752797
134.713228,-0.000000,9770.718434,-2757.943793
134.713537,888.247130,9548.656652,-5745.716235
134.713847,2368.659014,8660.409521,-7354.516781
134.714156,1850.514855,12139.377449,-5669.106685
134.714466,-370.102971,12879.583391,459.657299
134.714775,-1554.432478,11029.068536,5822.325785
134.715085,148.041188,11103.089130,4903.011187
134.715394,888.247130,9252.574275,-842.705048
134.715704,1924.535449,8586.388927,-1532.190996
134.716014,-1776.494261,12065.356855,-1225.752797
134.716323,2590.720797,9918.759623,-7354.516781
134.716633,962.267725,6809.894666,-5592.497135
134.716942,-222.061783,11325.150913,536.266849
134.717252,-3552.988522,8586.388927,4673.182538
134.717561,-592.164754,11399.171507,766.095498
134.717871,3997.112087,6587.832884,-1455.581446
134.718180,-3182.885551,7105.977043,0.000000
134.718490,-1702.473667,5847.626942,0.000000
134.718799,2368.659014,5403.503377,-3983.696590
134.719109,2664.741391,5477.523971,-3983.696590
134.719419,518.144159,14582.057057,1685.410096
134.719728,-1110.308913,11103.089130,4903.011187
134.720038,1480.411884,10732.986159,-2528.115143
134.720347,1850.514855,7105.977043,-5898.935335
134.720657,-2072.576638,12583.501014,-153.219100
134.720966,-2590.720797,5995.668130,-459.657299
134.721276,2812.782580,13693.809927,-7431.126331
134.721585,-74.020594,8734.430116,-1149.143247
134.721895,-4367.215058,9548.656652,8886.707777
134.722204,3552.988522,13101.645173,-459.657299
134.722514,2442.679609,10214.842000,-8886.707777
134.722824,962.267725,10362.883188,-1762.019645
134.723133,-4737.318029,10066.800811,1455.581446
134.723443,2516.700203,8660.409521,-3830.477490
134.723752,3997.112087,8068.244768,-3370.820191
134.724062,592.164754,5921.647536,766.095498
134.724371,-1406.391290,7550.100608,4519.963438
134.724681,-2442.679609,5033.400406,4443.353888
134.724990,1406.391290,10584.944971,-3447.429741
134.725300,3256.906145,9844.739029,-5898.935335
134.725609,-1480.411884,11103.089130,-4213.525239
134.725919,-1480.411884,9252.574275,-2068.457845
134.726229,3108.864956,11621.233289,-7124.688131
134.726538,2960.823768,9918.759623,-2068.457845
134.726848,-7550.100608,10066.800811,10495.508323
134.727157,888.247130,14285.974681,6435.202183
134.727467,4811.338623,7179.997637,-6511.811733
134.727776,-1258.350101,8068.244768,-1991.848295
134.728086,-2590.720797,10584.944971,-612.876398
134.728395,3108.864956,11695.253884,-10342.289223
134.728705,-740.205942,11473.192101,-8580.269578
134.729015,-1332.370696,11029.068536,2451.505594
134.729324,-3552.988522,11029.068536,1608.800546
134.729634,2220.617826,9104.533087,1455.581446
134.729943,3627.009116,6661.853478,-1608.800546
134.730253,2886.803174,5033.400406,766.095498
134.730562,1184.329507,5847.626942,4136.915689
134.730872,-1480.411884,8512.368333,3370.820191
134.731181,888.247130,7179.997637,-4366.744339
134.731491,4811.338623,11399.171507,-2987.772442
134.731800,-7846.182985,11843.295072,4826.401637
134.732110,370.102971,16728.654289,-3064.381992
134.732420,2516.700203,4219.173869,-10418.898773
134.732729,-592.164754,12879.583391,-2681.334243
134.733039,-1554.432478,9252.574275,6205.373534
134.733348,2960.823768,11843.295072,-4443.353888
134.733658,1036.288319,8290.306550,-2911.162892
134.733967,-2664.741391,7402.059420,9269.755526
134.734277,-222.061783,10658.965565,2987.772442
134.734586,1924.535449,12287.418637,-7814.174080
134.734896,2294.638420,8734.430116,-3524.039291
134.735205,-3330.926739,13323.706956,-2757.943793
134.735515,740.205942,8808.450710,-3830.477490
134.735825,3256.906145,10362.883188,-2528.115143
134.736134,1110.308913,4441.235652,-919.314598
134.736444,-0.000000,5699.585753,4366.744339
134.736753,-4219.173869,888.247130,14096.157163
134.737063,-1110.308913,10881.027347,-383.047749
134.737372,5773.606348,2886.803174,-10495.508323
134.737682,-2664.741391,13989.892304,-2451.505594
134.737991,-222.061783,12213.398043,-1149.143247
134.738301,5181.441594,10214.842000,-9806.022374
134.738610,2220.617826,12435.459826,-3524.039291
134.738920,-6957.935855,10955.047942,13713.109414
134.739230,666.185348,13693.809927,5822.325785
134.739539,4367.215058,5625.565159,-6511.811733
134.739849,-0.000000,7328.038826,-1302.362347
134.740158,-3701.029710,7994.224174,2068.457845
134.740468,2590.720797,9918.759623,-7124.688131
134.740777,666.185348,11029.068536,-5515.887586
134.741087,-1332.370696,10807.006753,4903.011187
134.741396,-3701.029710,8808.450710,4136.915689
134.741706,-592.164754,7698.141797,-1762.019645
134.742015,4441.235652,11029.068536,-9039.926876
134.742325,-444.123565,1554.432478,-3140.991542
134.742635,-4219.173869,7476.080014,7737.564530
134.742944,370.102971,11843.295072,2528.115143
134.743254,5847.626942,5699.585753,-9039.926876
134.743563,1036.288319,9400.615463,2604.724693
134.743873,-4811.338623,7105.977043,4290.134789
134.744182,-814.226536,9030.512492,-5056.230287
134.744492,1258.350101,9400.615463,-13253.452115
134.744801,-1924.535449,10807.006753,-4060.306139
134.745111,-2368.659014,8438.347739,1991.848295
134.745420,5255.462188,9622.677246,-1915.238745
134.745730,666.185348,12435.459826,-766.095498
134.746040,-1628.453072,9548.656652,9269.755526
134.746349,-2664.741391,8734.430116,6128.763984
134.746659,-2738.761985,15174.221811,-3294.210641
134.746968,5551.544565,7624.121203,-10801.946522
134.747278,-3923.091493,11177.109724,-4903.011187
134.747587,-222.061783,12287.418637,-766.095498
134.747897,4515.256246,9548.656652,-5209.449386
134.748206,-518.144159,6217.729913,-5056.230287
134.748516,-5033.400406,9844.739029,12027.699319
134.748825,-1110.308913,3923.091493,8427.050478
134.749135,3478.967927,9030.512492,-7124.688131
134.749445,3627.009116,7550.100608,-7890.783629
134.749754,-4811.338623,10881.027347,-995.924147
134.750064,-666.185348,3923.091493,-3830.477490
134.750373,2146.597232,11991.336260,-5898.935335
134.750683,2072.576638,10658.965565,536.266849
134.750992,-5107.421000,10066.800811,12257.527968
134.751302,-1406.391290,9844.739029,8120.612279
134.751611,1850.514855,11843.295072,-4903.011187
134.751921,1776.494261,9252.574275,-11338.213370
134.752231,-2220.617826,9770.718434,-4903.011187
134.752540,518.144159,14804.118840,-4366.744339
134.752850,814.226536,11177.109724,-6665.030833
134.753159,2220.617826,9844.739029,1072.533697
134.753469,-7772.162391,8882.471304,11338.213370
134.753778,222.061783,4737.318029,9806.022374
134.754088,592.164754,3701.029710,-4443.353888
134.754397,-0.000000,8512.368333,-7431.126331
134.754707,740.205942,6883.915261,-3370.820191
134.755016,2146.597232,9918.759623,-6128.763984
134.755326,2886.803174,13323.706956,-7584.345430
134.755636,3108.864956,12657.521608,1455.581446
134.755945,-7476.080014,8438.347739,12334.137518
134.756255,-1554.432478,7624.121203,8503.660028
134.756564,3034.844362,7624.121203,-4443.353888
134.756874,-1776.494261,6587.832884,-8350.440928
134.757183,148.041188,10955.047942,-3677.258390
134.757493,1036.288319,14508.036463,-7277.907231
134.757802,3330.926739,13101.645173,-7737.564530
134.758112,-2516.700203,14878.139434,2911.162892
134.758421,-5551.544565,13915.871710,9269.755526
134.758731,-296.082377,10807.006753,1072.533697
134.759041,1628.453072,4885.359217,-9806.022374
134.759350,-0.000000,5699.585753,-6894.859482
134.759660,-5921.647536,2516.700203,459.657299
134.759969,-444.123565,8364.327145,-1225.752797
134.760279,5921.647536,11621.233289,-6358.592633
134.760588,-1332.370696,6439.791695,3677.258390
134.760898,-4737.318029,8808.450710,15551.738609
134.761207,-296.082377,9844.739029,1838.629195
134.761517,7105.977043,7031.956449,-14709.033562
134.761826,-3478.967927,8882.471304,-9729.412825
134.762136,-6883.915261,6143.709319,-459.657299
134.762446,2442.679609,10362.883188,-4596.572988
134.762755,6291.750507,11325.150913,-8886.707777
134.763065,-5033.400406,12583.501014,8120.612279
134.763374,-5551.544565,10436.903782,17390.367805
134.763684,370.102971,12435.459826,-1149.143247
134.763993,4589.276840,10807.006753,-15704.957709
134.764303,222.061783,9400.615463,-5286.058936
134.764612,-6513.812290,8142.265362,-1072.533697
134.764922,1480.411884,11547.212695,-7814.174080
134.765231,4071.132681,9474.636058,-3524.039291
134.765541,-5107.421000,8068.244768,5592.497135
134.765851,-3404.947333,7328.038826,9039.926876
134.766160,296.082377,11029.068536,0.000000
134.766470,5107.421000,6069.688724,-10265.679673
134.766779,-2294.638420,5921.647536,-1378.971896
134.767089,148.041188,9548.656652,0.000000
134.767398,3627.009116,9622.677246,-7507.735880
134.767708,5181.441594,7476.080014,-5898.935335
134.768017,-4885.359217,8068.244768,8886.707777
134.768327,-5773.606348,14656.077652,11797.870669
134.768636,4367.215058,9696.697840,-3294.210641
134.768946,1480.411884,8216.285956,-9346.365076
134.769256,-1628.453072,14211.954086,-5132.839837
134.769565,-2738.761985,9696.697840,-9116.536426
134.769875,2886.803174,11843.295072,-8656.879127
134.770184,1628.453072,12879.583391,-3753.867940
134.770494,-3775.050304,10510.924376,7967.393179
134.770803,-3775.050304,10955.047942,9116.536426
134.771113,1776.494261,10140.821405,-3140.991542
134.771422,6809.894666,5921.647536,-8350.440928
134.771732,-6661.853478,6143.709319,229.828649
134.772042,-74.020594,14582.057057,-383.047749
134.772351,3997.112087,8364.327145,-12104.308868
134.772661,444.123565,9400.615463,-6128.763984
134.772970,-5921.647536,7328.038826,8656.879127
134.773280,-1406.391290,7254.018232,6894.859482
134.773589,1850.514855,7550.100608,-3294.210641
134.773899,-1036.288319,8882.471304,-2681.334243
134.774208,-1776.494261,7846.182985,612.876398
134.774518,666.185348,7698.141797,-5592.497135
134.774827,4219.173869,12731.542202,-10648.727422
134.775137,-1554.432478,10362.883188,0.000000
134.775447,-5255.462188,10214.842000,3677.258390
134.775756,1776.494261,12139.377449,2451.505594
134.776066,666.185348,6809.894666,-766.095498
134.776375,-1110.308913,12583.501014,459.657299
134.776685,-1480.411884,7105.977043,1762.019645
134.776994,2294.638420,11991.336260,-5209.449386
134.777304,2146.597232,11325.150913,-8886.707777
134.777613,-222.061783,8734.430116,-3140.991542
134.777923,-5773.606348,9178.553681,4366.744339
134.778232,3701.029710,9474.636058,1838.629195
134.778542,5107.421000,6809.894666,-4366.744339
134.778852,-148.041188,6143.709319,-995.924147
134.779161,-3701.029710,6883.915261,3677.258390
134.779471,1850.514855,5329.482782,-1685.410096
134.779780,4071.132681,5773.606348,-6281.983084
134.780090,-148.041188,11621.233289,2451.505594
134.780399,-1998.556043,10140.821405,4136.915689
134.780709,444.123565,10955.047942,-2834.553343
134.781018,2960.823768,10658.965565,-5592.497135
134.781328,-3256.906145,8438.347739,-2451.505594
134.781637,1110.308913,10140.821405,-2834.553343
134.781947,3108.864956,11769.274478,-5056.230287
134.782257,-888.247130,7402.059420,-536.266849
134.782566,-814.226536,11103.089130,4290.134789
134.782876,-1850.514855,11769.274478,4903.011187
134.783185,1036.288319,13471.748144,-3600.648841
134.783495,2886.803174,8660.409521,-8350.440928
134.783804,-4219.173869,6735.874072,-4290.134789
134.784114,-814.226536,12287.418637,919.314598
134.784423,888.247130,8068.244768,-3600.648841
134.784733,4219.173869,10362.883188,-3677.258390
134.785042,-3997.112087,8586.388927,5439.278036
134.785352,-518.144159,5699.585753,5056.230287
134.785662,2368.659014,5773.606348,-3677.258390
134.785971,2072.576638,11621.233289,-7507.735880
134.786281,-2516.700203,2812.782580,153.219100
134.786590,-2590.720797,12879.583391,-842.705048
134.786900,3404.947333,15914.427753,-9652.803275
134.787209,1850.514855,7402.059420,-3677.258390
134.787519,-3034.844362,10288.862594,7201.297681
134.787828,-222.061783,13249.686362,4443.353888
134.788138,3330.926739,8364.327145,-8580.269578
134.788447,-74.020594,12435.459826,-4213.525239
134.788757,-3478.967927,8438.347739,3983.696590
134.789067,-2960.823768,10584.944971,-2374.896044
134.789376,3108.864956,10807.006753,-10495.508323
134.789686,-666.185348,9400.615463,-2068.457845
134.789995,-3182.885551,9474.636058,3983.696590
134.790305,-1332.370696,5921.647536,-612.876398
134.790614,4071.132681,9252.574275,-7584.345430
134.790924,1184.329507,3478.967927,-3140.991542
134.791233,-1776.494261,2442.679609,5515.887586
134.791543,-592.164754,6661.853478,2298.286494
134.791853,2738.761985,8216.285956,-2145.067394
134.792162,1998.556043,7920.203579,612.876398
134.792472,-5107.421000,12805.562797,919.314598
134.792781,-1480.411884,17468.860231,-4749.792088
134.793091,6809.894666,10955.047942,-10801.946522
134.793400,-1776.494261,12509.480420,-4826.401637
134.793710,-1036.288319,12287.418637,1838.629195
134.794019,-222.061783,6735.874072,76.609550
134.794329,3923.091493,7698.141797,-766.095498
134.794638,-1776.494261,7698.141797,2757.943793
134.794948,-2146.597232,9992.780217,3370.820191
134.795258,2072.576638,9400.615463,-4903.011187
134.795567,3330.926739,12065.356855,-7737.564530
134.795877,-2294.638420,11621.233289,-4136.915689
134.796186,-1110.308913,8438.347739,1455.581446
134.796496,1924.535449,7476.080014,-2757.943793
134.796805,4145.153275,9918.759623,-3753.867940
134.797115,888.247130,3627.009116,7354.516781
134.797424,-6957.935855,6735.874072,7201.297681
134.797734,-518.144159,10066.800811,-2834.553343
134.798043,3923.091493,6291.750507,-6741.640382
134.798353,-1332.370696,13397.727550,-4903.011187
134.798663,1406.391290,14434.015869,-1225.752797
134.798972,2590.720797,12287.418637,-4060.306139
134.799282,518.144159,10658.965565,-1149.143247
134.799591,-4145.153275,5995.668130,9116.536426
134.799901,-6217.729913,10732.986159,7201.297681
134.800210,3034.844362,9326.594869,-3753.867940
134.800520,3330.926739,10807.006753,-7507.735880
134.800829,-2072.576638,11991.336260,-3064.381992
134.801139,-0.000000,13249.686362,-536.266849
134.801448,2368.659014,11177.109724,-4826.401637
134.801758,-1998.556043,8660.409521,-1915.238745
134.802068,-4367.215058,7105.977043,7584.345430
134.802377,962.267725,6809.894666,5286.058936
134.802687,2146.597232,5847.626942,-8273.831378
134.802996,2368.659014,9474.636058,-3983.696590
134.803306,-2738.761985,5033.400406,2068.457845
134.803615,592.164754,13323.706956,76.609550
134.803925,4367.215058,12065.356855,-1685.410096
134.804234,-2738.761985,10955.047942,459.657299
134.804544,-3404.947333,5107.421000,2911.162892
134.804853,-888.247130,9326.594869,-4136.915689
134.805163,1776.494261,7772.162391,-11721.261119
134.805472,-2220.617826,8068.244768,-2451.505594
134.805782,1110.308913,11621.233289,1915.238745
134.806091,1924.535449,14211.954086,-306.438199
134.806401,2146.597232,14508.036463,3677.258390
134.806710,-0.000000,9178.553681,4979.620737
134.807020,-1554.432478,5107.421000,-612.876398
134.807329,-2072.576638,12583.501014,-5056.230287
134.807638,2442.679609,6661.853478,-9806.022374
134.807948,-148.041188,8586.388927,-6741.640382
134.808257,-740.205942,15396.283594,-1072.533697
134.808567,296.082377,8660.409521,995.924147
134.808876,3997.112087,11695.253884,766.095498
134.809186,-1036.288319,4441.235652,2757.943793
134.809495,-4589.276840,-814.226536,7277.907231
134.809805,1110.308913,5033.400406,0.000000
134.810114,962.267725,8142.265362,-10572.117872
134.810423,-74.020594,8142.265362,-5898.935335
134.810733,-1480.411884,10510.924376,0.000000
134.811042,-3404.947333,17542.880825,-3830.477490
134.811352,4145.153275,10584.944971,-995.924147
134.811661,-1406.391290,8956.491898,6281.983084
134.811971,-2368.659014,11843.295072,3294.210641
134.812280,1924.535449,9622.677246,-3370.820191
134.812590,2442.679609,12509.480420,-5286.058936
134.812899,-296.082377,8216.285956,-4826.401637
134.813208,1110.308913,12065.356855,-3524.039291
134.813518,814.226536,14137.933492,-4060.306139
134.813827,-0.000000,7698.141797,2911.162892
134.814137,-740.205942,9770.718434,5132.839837
134.814446,740.205942,5403.503377,1915.238745
134.814756,740.205942,6069.688724,-2374.896044
134.815065,1184.329507,7105.977043,-3830.477490
134.815375,-1332.370696,4293.194464,-689.485948
134.815684,-1554.432478,9992.780217,-995.924147
134.815993,3330.926739,12213.398043,-3524.039291
134.816303,1258.350101,10658.965565,-612.876398
134.816612,-3701.029710,10881.027347,4903.011187
134.816922,-3108.864956,10510.924376,2068.457845
134.817231,2886.803174,10436.903782,-7048.078582
134.817541,370.102971,7254.018232,-7660.954980
134.817850,-1036.288319,8364.327145,-1685.410096
134.818160,-1702.473667,10955.047942,306.438199
134.818469,5255.462188,11251.130318,-3524.039291
134.818779,2590.720797,7994.224174,3370.820191
134.819088,-5033.400406,10288.862594,9346.365076
134.819397,-2516.700203,9178.553681,1915.238745
134.819707,1554.432478,8142.265362,-9346.365076
134.820016,814.226536,10362.883188,-9806.022374
134.820326,-296.082377,6291.750507,-4136.915689
134.820635,592.164754,11621.233289,-1915.238745
134.820945,2590.720797,12805.562797,-1685.410096
134.821254,2516.700203,9474.636058,2911.162892
134.821564,-7846.182985,7105.977043,9882.631924
134.821873,3404.947333,5921.647536,3983.696590
134.822182,592.164754,7846.182985,-9652.803275
134.822492,1554.432478,11769.274478,-8350.440928
134.822801,-1480.411884,8290.306550,612.876398
134.823111,-1628.453072,13841.851115,-2298.286494
134.823420,6809.894666,12805.562797,-3217.601092
134.823730,-4515.256246,6143.709319,3370.820191
134.824039,-3923.091493,10140.821405,6588.421283
134.824349,3034.844362,10732.986159,-3753.867940
134.824658,3404.947333,7476.080014,-6971.469032
134.824967,-3627.009116,9104.533087,-1149.143247
134.825277,-3108.864956,10732.986159,-689.485948
134.825586,2886.803174,9992.780217,-3294.210641
134.825896,2294.638420,13989.892304,-153.219100
134.826205,-3182.885551,13767.830521,4596.572988
134.826515,-296.082377,6365.771101,3830.477490
134.826824,-444.123565,8956.491898,-3753.867940
134.827134,5107.421000,7994.224174,-7354.516781
134.827443,-3404.947333,3997.112087,-3983.696590
134.827753,-2294.638420,11695.253884,995.924147
134.828062,4219.173869,10362.883188,-3140.991542
134.828371,3108.864956,10881.027347,-1838.629195
134.828681,-1258.350101,8068.244768,5286.058936
134.828990,-4737.318029,4589.276840,7354.516781
134.829300,4737.318029,10066.800811,-5132.839837
134.829609,-592.164754,5773.606348,-5286.058936
134.829919,-1480.411884,10436.903782,76.609550
134.830228,-1924.535449,11325.150913,-1378.971896
134.830538,6735.874072,13693.809927,-8733.488677
134.830847,-1332.370696,12361.439231,-2834.553343
134.831156,-2738.761985,10881.027347,8503.660028
134.831466,-1406.391290,10510.924376,3064.381992
134.831775,2294.638420,11695.253884,-7660.954980
134.832085,1184.329507,8142.265362,-4903.011187
134.832394,-4145.153275,5921.647536,1378.971896
134.832704,-1480.411884,9622.677246,-1991.848295
134.833013,5773.606348,10288.862594,-6665.030833
134.833323,1406.391290,6883.915261,-1532.190996
134.833632,-2516.700203,4885.359217,7354.516781
134.833941,-3775.050304,9474.636058,8656.879127
134.834251,3849.070898,10807.006753,-5515.887586
134.834560,2368.659014,5403.503377,-7277.907231
134.834870,-1406.391290,11177.109724,0.000000
134.835179,-3330.926739,11991.336260,-306.438199
134.835489,5921.647536,13841.851115,-9806.022374
134.835798,-666.185348,7254.018232,76.609550
134.836108,-3256.906145,14804.118840,7048.078582
134.836417,814.226536,13619.789333,-1608.800546
134.836727,1332.370696,9326.594869,-8197.221829
134.837036,1110.308913,7772.162391,1225.752797
134.837345,-2738.761985,7105.977043,153.219100
134.837655,2664.741391,7254.018232,-4596.572988
134.837964,888.247130,10807.006753,-4213.525239
134.838274,518.144159,8068.244768,1302.362347
134.838583,-2220.617826,5847.626942,2681.334243
134.838893,-2442.679609,10732.986159,-919.314598
134.839202,4145.153275,10658.965565,-4060.306139
134.839512,2220.617826,5255.462188,-1072.533697
134.839821,-5847.626942,10362.883188,536.266849
134.840130,1480.411884,14211.954086,536.266849
134.840440,6217.729913,7698.141797,-2145.067394
134.840749,-4293.194464,10955.047942,-1915.238745
134.841059,-5699.585753,10955.047942,6511.811733
134.841368,1850.514855,12065.356855,-2374.896044
134.841678,-2146.597232,11917.315666,-7507.735880
134.841987,1702.473667,7031.956449,-1762.019645
134.842297,-2812.782580,7031.956449,3677.258390
134.842606,888.247130,13101.645173,-2068.457845
134.842915,6069.688724,6365.771101,1991.848295
134.843225,-5847.626942,3034.844362,4136.915689
134.843534,-5625.565159,11695.253884,2681.334243
134.843844,3552.988522,9474.636058,-5362.668486
134.844153,4589.276840,11547.212695,-7277.907231
134.844463,-370.102971,15396.283594,-4749.792088
134.844772,-4737.318029,8438.347739,229.828649
134.845082,2960.823768,12139.377449,-3983.696590
134.845391,-1702.473667,9696.697840,-3064.381992
134.845700,1702.473667,4219.173869,3294.210641
134.846010,-4737.318029,8364.327145,2451.505594
134.846319,2590.720797,11547.212695,-3983.696590
134.846629,3404.947333,3701.029710,-536.266849
134.846938,-2738.761985,7846.182985,0.000000
134.847248,-2516.700203,13249.686362,919.314598
134.847557,3997.112087,9400.615463,-4749.792088
134.847867,1702.473667,7846.182985,-2068.457845
134.848176,-2294.638420,14285.974681,2374.896044
134.848486,-1480.411884,9548.656652,2145.067394
134.848795,3034.844362,11103.089130,-7201.297681
134.849104,370.102971,12731.542202,-4826.401637
134.849414,-1702.473667,9030.512492,-995.924147
134.849723,-4737.318029,10288.862594,0.000000
134.850033,4515.256246,15840.407159,-5669.106685
134.850342,1702.473667,8956.491898,-1072.533697
134.850652,-5403.503377,6809.894666,4749.792088
134.850961,-3701.029710,8068.244768,-3140.991542
134.851271,2960.823768,8512.368333,-9882.631924
134.851580,3997.112087,4515.256246,-4290.134789
134.851889,-2368.659014,6439.791695,2681.334243
134.852199,-592.164754,14137.933492,-383.047749
134.852508,3701.029710,6587.832884,-229.828649
134.852818,-74.020594,4885.359217,4749.792088
134.853127,-4737.318029,12361.439231,1455.581446
134.853437,4071.132681,9400.615463,-6281.983084
134.853746,5329.482782,6661.853478,-8273.831378
134.854056,-3404.947333,14285.974681,-5439.278036
134.854365,-0.000000,14878.139434,-842.705048
134.854674,-1406.391290,10584.944971,76.609550
134.854984,4811.338623,13767.830521,842.705048
134.855293,-2294.638420,5329.482782,842.705048
134.855603,-6661.853478,6143.709319,5056.230287
134.855912,-2516.700203,12657.521608,-2221.676944
134.856222,5033.400406,5329.482782,-11951.089769
134.856531,2368.659014,8512.368333,-9499.584175
134.856841,-6439.791695,12435.459826,1378.971896
134.857150,2590.720797,8586.388927,1838.629195
134.857460,3627.009116,9104.533087,-459.657299
134.857769,2590.720797,6957.935855,5975.544884
134.858078,-7402.059420,5107.421000,5209.449386
134.858388,2442.679609,3034.844362,-3753.867940
134.858697,3404.947333,6217.729913,-7967.393179
134.859007,-666.185348,12805.562797,-5209.449386
134.859316,-2664.741391,14063.912898,-2374.896044
134.859626,-222.061783,17542.880825,-4136.915689
134.859935,3256.906145,13471.748144,919.314598
134.860245,-592.164754,7105.977043,4519.963438
134.860554,-6735.874072,8142.265362,2451.505594
134.860863,-148.041188,13249.686362,-5362.668486
134.861173,6513.812290,4737.318029,-7814.174080
134.861482,-296.082377,7254.018232,-3294.210641
134.861792,-4145.153275,15396.283594,2528.115143
134.862101,5107.421000,10658.965565,306.438199
134.862411,296.082377,8882.471304,1149.143247
134.862720,-2516.700203,11473.192101,3983.696590
134.863030,-2072.576638,5033.400406,689.485948
134.863339,1110.308913,7402.059420,-9499.584175
134.863648,1702.473667,11325.150913,-8503.660028
134.863958,-370.102971,3182.885551,766.095498
134.864267,-1998.556043,8882.471304,4060.306139
134.864577,4515.256246,16728.654289,689.485948
134.864886,1258.350101,8142.265362,1991.848295
134.865196,-3404.947333,4737.318029,7354.516781
134.865505,-4219.173869,7031.956449,-1762.019645
134.865815,4441.235652,12583.501014,-12257.527968
134.866124,2738.761985,7328.038826,-9806.022374
134.866434,-2072.576638,10362.883188,-153.219100
134.866743,-1332.370696,15396.283594,5286.058936
134.867052,1850.514855,12953.603985,2834.553343
134.867362,1110.308913,7698.141797,4366.744339
134.867671,-4293.194464,6587.832884,4136.915689
134.867981,1850.514855,7254.018232,-2451.505594
134.868290,148.041188,7254.018232,-10725.336972
134.868600,888.247130,5921.647536,-7967.393179
134.868909,-2590.720797,9992.780217,-536.266849
134.869219,444.123565,15988.448347,536.266849
134.869528,1998.556043,14656.077652,-2987.772442
134.869837,-222.061783,8142.265362,3370.820191
134.870147,-3552.988522,3849.070898,5056.230287
134.870456,3552.988522,6365.771101,-1915.238745
134.870766,-2072.576638,8808.450710,-8120.612279
134.871075,962.267725,10140.821405,-6588.421283
134.871385,-370.102971,9474.636058,-229.828649
134.871694,1258.350101,17987.004391,-1455.581446
134.872004,2960.823768,10510.924376,76.609550
134.872313,-3404.947333,8290.306550,4290.134789
134.872622,-7105.977043,8586.388927,2987.772442
134.872932,2442.679609,5033.400406,-1915.238745
134.873241,1850.514855,9474.636058,-10342.289223
134.873551,666.185348,11843.295072,-6894.859482
134.873860,-592.164754,11695.253884,-1915.238745
134.874170,148.041188,10510.924376,1608.800546
134.874479,2442.679609,11399.171507,-1302.362347
134.874789,1036.288319,7179.997637,383.047749
134.875098,-8734.430116,5625.565159,3600.648841
134.875407,3627.009116,10584.944971,-4673.182538
134.875717,2738.761985,4959.379811,-10189.070123
134.876026,-1702.473667,10807.006753,-4136.915689
134.876336,-814.226536,6439.791695,5439.278036
134.876645,-1184.329507,13397.727550,-6358.592633
134.876955,1628.453072,12435.459826,-2145.067394
134.877264,-2368.659014,6661.853478,5056.230287
134.877574,-2294.638420,9400.615463,2068.457845
134.877883,666.185348,9178.553681,-7124.688131
134.878193,3775.050304,5625.565159,-8350.440928
134.878502,-2960.823768,11177.109724,-1991.848295
134.878811,-296.082377,13989.892304,-689.485948
134.879121,1258.350101,14582.057057,612.876398
134.879430,592.164754,8512.368333,2911.162892
134.879740,-2294.638420,11769.274478,2604.724693
134.880049,-3701.029710,8808.450710,-1991.848295
134.880359,2812.782580,8438.347739,-6281.983084
134.880668,296.082377,7179.997637,-11184.994271
134.880978,-7105.977043,14063.912898,-5056.230287
134.881287,1258.350101,11695.253884,4060.306139
134.881596,3404.947333,11251.130318,919.314598
134.881906,3478.967927,7994.224174,2221.676944
134.882215,-4959.379811,6365.771101,9959.241474
134.882525,888.247130,7476.080014,1991.848295
134.882834,1184.329507,6587.832884,-9806.022374
134.883144,3775.050304,5921.647536,-6435.202183
134.883453,-2516.700203,9474.636058,-4290.134789
134.883763,-592.164754,12805.562797,-5515.887586
134.884072,-814.226536,9030.512492,8120.612279
134.884381,-2072.576638,13471.748144,5898.935335
134.884691,-3701.029710,13397.727550,-1762.019645
134.885000,4367.215058,11399.171507,-5362.668486
134.885310,-2590.720797,6143.709319,-4903.011187
134.885619,370.102971,8882.471304,-7814.174080
134.885929,-3552.988522,14211.954086,-383.047749
134.886238,1998.556043,13989.892304,459.657299
134.886548,2590.720797,11769.274478,-6205.373534
134.886857,-1850.514855,11695.253884,2221.676944
134.887167,-3108.864956,4071.132681,4903.011187
134.887476,4811.338623,3775.050304,-5975.544884
134.887785,-2960.823768,8808.450710,-9039.926876
134.888095,-0.000000,7846.182985,1685.410096
134.888404,-592.164754,7179.997637,306.438199
134.888714,6809.894666,16876.695478,-6205.373534
134.889023,2220.617826,10510.924376,1072.533697
134.889333,-3404.947333,4885.359217,5975.544884
134.889642,-3182.885551,6365.771101,3064.381992
134.889952,4663.297435,8438.347739,-5745.716235
134.890261,-740.205942,8586.388927,-7660.954980
134.890570,-592.164754,12731.542202,-3447.429741
134.890880,-4293.194464,10362.883188,4749.792088
134.891189,3404.947333,14656.077652,-3677.258390
134.891499,-1628.453072,11917.315666,-1455.581446
134.891808,-1110.308913,11843.295072,1838.629195
134.892118,-4811.338623,6513.812290,2298.286494
134.892427,-0.000000,8808.450710,-4290.134789
134.892737,-0.000000,11325.150913,-7967.393179
134.893046,-518.144159,8364.327145,-5132.839837
134.893355,370.102971,7105.977043,-612.876398
134.893665,2220.617826,12139.377449,-2987.772442
134.893974,3034.844362,8216.285956,2145.067394
134.894284,-2072.576638,6217.729913,5132.839837
134.894593,962.267725,10140.821405,1685.410096
134.894903,2812.782580,7179.997637,-3370.820191
134.895212,-74.020594,5477.523971,-919.314598
134.895522,-2886.803174,8660.409521,-2451.505594
134.895831,-370.102971,9696.697840,-4596.572988
134.896140,1554.432478,12509.480420,-1838.629195
134.896450,-1554.432478,9696.697840,0.000000
134.896759,-4737.318029,15988.448347,-306.438199
134.897069,2146.597232,11029.068536,383.047749
134.897378,-2220.617826,7846.182985,-1608.800546
134.897688,1924.535449,8586.388927,-3600.648841
134.897997,-3627.009116,9770.718434,-3217.601092
134.898307,3256.906145,9474.636058,-4213.525239
134.898616,1850.514855,8660.409521,-1762.019645
134.898926,740.205942,13841.851115,0.000000
134.899235,-6217.729913,8956.491898,5669.106685
134.899544,2368.659014,14656.077652,-1838.629195
134.899854,3775.050304,6291.750507,-7584.345430
134.900163,2738.761985,1036.288319,-5439.278036
134.900473,-5255.462188,5625.565159,1762.019645
134.900782,4367.215058,11695.253884,-1915.238745
134.901092,2664.741391,5995.668130,-306.438199
134.901401,-1998.556043,11621.233289,7354.516781
134.901711,-370.102971,10807.006753,5515.887586
134.902020,1628.453072,6513.812290,-4903.011187
134.902329,3627.009116,6587.832884,-8350.440928
134.902639,-1850.514855,13323.706956,-5132.839837
134.902948,-3108.864956,9252.574275,-5898.935335
134.903258,2886.803174,13915.871710,-2987.772442
134.903567,-2886.803174,17987.004391,2298.286494
134.903877,-296.082377,8660.409521,3370.820191
134.904186,-0.000000,7031.956449,2604.724693
134.904495,296.082377,12065.356855,-3064.381992
134.904805,1258.350101,6217.729913,-6818.249932
134.905114,-3256.906145,5255.462188,1991.848295
134.905424,-2738.761985,9918.759623,1608.800546
134.905733,5995.668130,11769.274478,-5745.716235
134.906042,1110.308913,13101.645173,-3983.696590
134.906352,-2516.700203,9548.656652,5898.935335
134.906661,2368.659014,5107.421000,0.000000
134.906970,2442.679609,9770.718434,-6741.640382
134.907280,740.205942,7402.059420,-1685.410096
134.907589,-4959.379811,1702.473667,2681.334243
134.907899,-444.123565,10214.842000,-842.705048
134.908208,4293.194464,17838.963202,-4903.011187
134.908517,3256.906145,6365.771101,-536.266849
134.908827,-6069.688724,10510.924376,3524.039291
134.909136,-1036.288319,13767.830521,-1915.238745
134.909445,-222.061783,6217.729913,-7967.393179
134.909755,1924.535449,10140.821405,-4673.182538
134.910064,-1850.514855,12139.377449,-1838.629195
134.910374,-0.000000,13027.624579,-919.314598
134.910683,740.205942,15544.324782,0.000000
134.910992,-74.020594,4737.318029,-2298.286494
134.911302,-1776.494261,4145.153275,842.705048
134.911611,2442.679609,12139.377449,-2221.676944
134.911920,2738.761985,8216.285956,-6588.421283
134.912230,740.205942,3034.844362,1838.629195
134.912539,-2664.741391,10881.027347,6435.202183
134.912849,2812.782580,7031.956449,1532.190996
134.913158,4811.338623,6291.750507,-1302.362347
134.913467,1924.535449,7328.038826,766.095498
134.913777,-6143.709319,7994.224174,-2757.943793
134.914086,592.164754,11177.109724,-3830.477490
134.914395,3330.926739,7920.203579,-9882.631924
134.914705,-2442.679609,13027.624579,-5592.497135
134.915014,-3552.988522,14137.933492,2068.457845
134.915324,4145.153275,11843.295072,-2604.724693
134.915633,2072.576638,6661.853478,-153.219100
134.915942,-0.000000,11177.109724,6358.592633
134.916252,-10955.047942,8734.430116,6281.983084
134.916561,6143.709319,8956.491898,-2911.162892
134.916870,2442.679609,7328.038826,-8197.221829
134.917180,-3404.947333,10214.842000,-5132.839837
134.917489,-962.267725,13989.892304,-4213.525239
134.917799,3404.947333,10881.027347,-6281.983084
134.918108,1554.432478,9400.615463,1455.581446
134.918417,-1776.494261,3404.947333,10648.727422
134.918727,-888.247130,7698.141797,5439.278036
134.919036,3108.864956,7402.059420,-1838.629195
134.919345,3701.029710,2368.659014,-842.705048
134.919655,-1258.350101,6439.791695,0.000000
134.919964,-444.123565,13619.789333,-1991.848295
134.920274,5477.523971,16136.489536,-4903.011187
134.920583,-2960.823768,11177.109724,-1072.533697
134.920892,-2368.659014,12879.583391,229.828649
134.921202,-3627.009116,10881.027347,-459.657299
134.921511,2220.617826,12509.480420,-7584.345430
134.921820,370.102971,6735.874072,-7124.688131
134.922130,-4293.194464,8808.450710,842.705048
134.922439,-0.000000,11103.089130,3907.087040
134.922749,1702.473667,15322.262999,-1915.238745
134.923058,2294.638420,11547.212695,306.438199
134.923367,-5255.462188,7328.038826,4749.792088
134.923677,222.061783,7994.224174,-1072.533697
134.923986,3256.906145,5921.647536,-9193.145976
134.924295,-74.020594,3478.967927,-3753.867940
134.924605,-3404.947333,5551.544565,4673.182538
134.924914,5403.503377,5773.606348,1225.752797
134.925224,2960.823768,10732.986159,-1378.971896
134.925533,-666.185348,13175.665768,6588.421283
134.925842,-4959.379811,8882.471304,4979.620737
134.926152,3923.091493,7698.141797,-6205.373534
134.926461,2738.761985,10732.986159,-12793.794817
134.926770,-666.185348,9992.780217,-7660.954980
134.927080,-4515.256246,11843.295072,0.000000
134.927389,1480.411884,14137.933492,1378.971896
134.927699,4663.297435,11843.295072,3983.696590
134.928008,-0.000000,9252.574275,5132.839837
134.928317,-6439.791695,11029.068536,4826.401637
134.928627,3701.029710,10881.027347,-8197.221829
134.928936,1554.432478,1332.370696,-14402.595362
134.929245,-2960.823768,7328.038826,-5515.887586
134.929555,-7105.977043,14656.077652,153.219100
134.929864,7254.018232,10881.027347,-3677.258390
134.930174,2886.803174,9178.553681,3524.039291
134.930483,-1184.329507,11695.253884,10418.898773
134.930792,-2368.659014,1850.514855,2298.286494
134.931102,5033.400406,5995.668130,-6281.983084
134.931411,518.144159,7402.059420,-8197.221829
134.931720,-296.082377,10140.821405,-5209.449386
134.932030,444.123565,12657.521608,-2451.505594
134.932339,2146.597232,14952.160028,-2374.896044
134.932649,1110.308913,8956.491898,2911.162892
134.932958,-2516.700203,7920.203579,5515.887586
134.933267,-6143.709319,7772.162391,2068.457845
134.933577,5477.523971,9326.594869,-5362.668486
134.933886,-3404.947333,6143.709319,-9039.926876
134.934196,-4589.276840,11473.192101,-3370.820191
134.934505,1258.350101,14656.077652,-536.266849
134.934814,5847.626942,14359.995275,-7277.907231
134.935124,-2442.679609,11621.233289,3983.696590
134.935433,-4441.235652,11917.315666,10265.679673
134.935742,-444.123565,2146.597232,-229.828649
134.936052,4071.132681,7476.080014,-8656.879127
134.936361,1406.391290,5921.647536,-4290.134789
134.936671,-2220.617826,2368.659014,153.219100
134.936980,1998.556043,11399.171507,-842.705048
134.937289,2146.597232,16876.695478,-536.266849
134.937599,3404.947333,9770.718434,2987.772442
134.937908,-222.061783,7994.224174,3370.820191
134.938217,-1036.288319,8068.244768,-2145.067394
134.938527,740.205942,10066.800811,-7737.564530
134.938836,222.061783,2812.782580,-6205.373534
134.939146,-2886.803174,8808.450710,-1838.629195
134.939455,2220.617826,14730.098246,383.047749
134.939764,3404.947333,15248.242405,-766.095498
134.940074,-0.000000,9844.739029,4213.525239
134.940383,-3923.091493,13471.748144,6511.811733
134.940692,592.164754,11843.295072,-4826.401637
134.941002,1406.391290,2812.782580,-11108.384721
134.941311,-1406.391290,6957.935855,-6205.373534
134.941621,-4441.235652,9030.512492,-1378.971896
134.941930,4811.338623,10732.986159,-3217.601092
134.942239,5551.544565,8290.306550,-383.047749
134.942549,814.226536,12953.603985,7814.174080
134.942858,-4959.379811,8660.409521,10801.946522
134.943167,4885.359217,7846.182985,-1302.362347
134.943477,2738.761985,1998.556043,-8427.050478
134.943786,-222.061783,7772.162391,-5439.278036
134.944096,-6217.729913,11917.315666,-1302.362347
134.944405,7179.997637,11769.274478,-4519.963438
134.944714,962.267725,9474.636058,612.876398
134.945024,-3256.906145,14359.995275,9806.022374
134.945333,-5995.668130,9474.636058,5132.839837
134.945642,3701.029710,10658.965565,-5822.325785
134.945952,-1036.288319,9178.553681,-8120.612279
134.946261,-2072.576638,6513.812290,-3064.381992
134.946571,1924.535449,5699.585753,689.485948
134.946880,2442.679609,19393.395680,-5975.544884
134.947189,-370.102971,12509.480420,1685.410096
134.947499,-888.247130,9030.512492,9116.536426
134.947808,-2960.823768,7179.997637,6128.763984
134.948117,2368.659014,11769.274478,-4136.915689
134.948427,2812.782580,3404.947333,-7354.516781
134.948736,-3849.070898,3108.864956,-5669.106685
134.949046,-1406.391290,8734.430116,-3064.381992
134.949355,4589.276840,10288.862594,-4826.401637
134.949664,1554.432478,10584.944971,229.828649
134.949974,-3256.906145,11029.068536,7814.174080
134.950283,518.144159,8882.471304,5362.668486
134.950592,3478.967927,6291.750507,-5209.449386
134.950902,1702.473667,6735.874072,-4443.353888
134.951211,-5847.626942,5181.441594,-2604.724693
134.951521,222.061783,10214.842000,-4290.134789
134.951830,740.205942,17987.004391,-7354.516781
134.952139,1628.453072,11399.171507,766.095498
134.952449,-5995.668130,10955.047942,8197.221829
134.952758,962.267725,11695.253884,-2298.286494
134.953067,444.123565,7624.121203,-8963.317327
134.953377,2072.576638,1776.494261,-3294.210641
134.953686,-10214.842000,10658.965565,1149.143247
134.953996,4441.235652,9992.780217,-5439.278036
134.954305,4145.153275,12879.583391,-3294.210641
134.954614,2442.679609,10955.047942,3217.601092
134.954924,-1924.535449,11177.109724,7814.174080
134.955233,3923.091493,11029.068536,1302.362347
134.955542,1702.473667,8216.285956,-5056.230287
134.955852,2886.803174,5181.441594,-5898.935335
134.956161,-5181.441594,4663.297435,-3140.991542
134.956471,1776.494261,7772.162391,-8044.002729
134.956780,-2960.823768,9770.718434,-2145.067394
134.957089,-0.000000,13249.686362,1378.971896
134.957399,-4219.173869,12213.398043,4903.011187
134.957708,4219.173869,14063.912898,-4673.182538
134.958017,1998.556043,4737.318029,-6435.202183
134.958327,-1480.411884,8882.471304,76.609550
134.958636,-4885.359217,9030.512492,-1762.019645
134.958946,6439.791695,8882.471304,-7507.735880
134.959255,518.144159,11991.336260,-1302.362347
134.959564,-4515.256246,12805.562797,5975.544884
134.959874,-2960.823768,8142.265362,4366.744339
134.960183,5107.421000,8734.430116,-6511.811733
134.960493,-592.164754,7550.100608,-7354.516781
134.960802,-148.041188,6143.709319,-229.828649
134.961111,-2664.741391,3775.050304,-612.876398
134.961421,7550.100608,12139.377449,-6435.202183
134.961730,1850.514855,8364.327145,-1302.362347
134.962039,-3478.967927,10362.883188,7354.516781
134.962349,-2072.576638,9770.718434,4749.792088
134.962658,5699.585753,8438.347739,-5362.668486
134.962968,-148.041188,10881.027347,-6281.983084
134.963277,-814.226536,9252.574275,-2604.724693
134.963586,-3923.091493,6513.812290,-2528.115143
134.963896,3775.050304,14211.954086,-3140.991542
134.964205,370.102971,8734.430116,1608.800546
134.964514,-3775.050304,11325.150913,4290.134789
134.964824,-1850.514855,8882.471304,1532.190996
134.965133,222.061783,11843.295072,-4673.182538
134.965443,-1036.288319,10436.903782,-7431.126331
134.965752,-3701.029710,8808.450710,-2757.943793
134.966061,4737.318029,11473.192101,-5439.278036
134.966371,2146.597232,11621.233289,-4213.525239
134.966680,-888.247130,9548.656652,4366.744339
134.966989,-4145.153275,9400.615463,10955.165621
134.967299,6661.853478,9252.574275,995.924147
134.967608,2812.782580,8068.244768,-4903.011187
134.967918,-1036.288319,6513.812290,-2374.896044
134.968227,-3775.050304,4589.276840,76.609550
134.968536,2442.679609,7772.162391,-8427.050478
134.968846,-370.102971,14804.118840,-6281.983084
134.969155,-0.000000,7624.121203,3370.820191
134.969464,-3997.112087,8586.388927,3907.087040
134.969774,2072.576638,13397.727550,-1762.019645
134.970083,592.164754,9992.780217,-3524.039291
134.970393,1110.308913,7476.080014,-2221.676944
134.970702,-5255.462188,4737.318029,-1991.848295
134.971011,-0.000000,15544.324782,-1225.752797
134.971321,3108.864956,12509.480420,-3983.696590
134.971630,1850.514855,10214.842000,-919.314598
134.971939,-3775.050304,13989.892304,3677.258390
134.972249,4737.318029,13027.624579,-4596.572988
134.972558,-74.020594,6069.688724,-9729.412825
134.972868,-1628.453072,6883.915261,-766.095498
134.973177,-1628.453072,6291.750507,3830.477490
134.973486,7105.977043,6439.791695,-3983.696590
134.973796,-2220.617826,4441.235652,612.876398
134.974105,-2516.700203,10732.986159,8810.098227
134.974414,-2664.741391,6513.812290,4903.011187
134.974724,6069.688724,10955.047942,-8350.440928
134.975033,888.247130,12583.501014,-9729.412825
134.975343,-2664.741391,11399.171507,-3830.477490
134.975652,-4663.297435,7846.182985,-1149.143247
134.975961,3330.926739,13027.624579,-5056.230287
134.976271,2590.720797,7698.141797,76.609550
134.976580,-4145.153275,11251.130318,8427.050478
134.976889,-9252.574275,11917.315666,5209.449386
134.977199,9104.533087,10584.944971,-9806.022374
134.977508,4515.256246,4663.297435,-12717.185267
134.977818,-5847.626942,8438.347739,-3217.601092
134.978127,-5107.421000,11843.295072,-1225.752797
134.978436,4737.318029,15544.324782,-5669.106685
134.978746,6661.853478,6069.688724,995.924147
134.979055,-3108.864956,5181.441594,11874.480219
134.979364,-74.020594,8586.388927,2298.286494
134.979674,2664.741391,8734.430116,-6128.763984
134.979983,4071.132681,1480.411884,-3830.477490
134.980293,-3627.009116,7254.018232,-2604.724693
134.980602,962.267725,8734.430116,-3830.477490
134.980911,2960.823768,12435.459826,-3370.820191
134.981221,-2442.679609,11843.295072,1455.581446
134.981530,-4441.235652,13027.624579,3370.820191
134.981839,1998.556043,10066.800811,0.000000
134.982149,1998.556043,11917.315666,-7048.078582
134.982458,592.164754,11621.233289,-5898.935335
134.982768,-5181.441594,8216.285956,-1225.752797
134.983077,592.164754,12287.418637,-2834.553343
134.983386,4441.235652,11769.274478,-3294.210641
134.983696,1110.308913,8882.471304,1378.971896
134.984005,-3997.112087,7772.162391,8580.269578
134.984314,2664.741391,9918.759623,-3370.820191
134.984624,2220.617826,5773.606348,-8886.707777
134.984933,-2442.679609,4811.338623,-919.314598
134.985243,-3997.112087,8956.491898,1378.971896
134.985552,7846.182985,9770.718434,-6205.373534
134.985861,1406.391290,9030.512492,-2528.115143
134.986171,-1702.473667,9918.759623,9422.974625
134.986480,-5329.482782,6587.832884,5745.716235
134.986789,4367.215058,7846.182985,-6894.859482
134.987099,-222.061783,8808.450710,-5822.325785
134.987408,-1998.556043,9252.574275,-3217.601092
134.987718,-5773.606348,9178.553681,-3140.991542
134.988027,6735.874072,14804.118840,-3064.381992
134.988336,-2146.597232,11843.295072,1915.238745
134.988646,-1036.288319,11991.336260,7890.783629
134.988955,-5847.626942,8882.471304,7124.688131
134.989265,6291.750507,14063.912898,-4979.620737
134.989574,-0.000000,7105.977043,-11108.384721
134.989883,-4811.338623,7772.162391,-3064.381992
134.990193,-6069.688724,8438.347739,-1532.190996
134.990502,8734.430116,12361.439231,-7354.516781
134.990811,3923.091493,5403.503377,1072.533697
134.991121,-4663.297435,8882.471304,15858.176809
134.991430,-370.102971,8734.430116,6894.859482
134.991740,6069.688724,11843.295072,-9193.145976
134.992049,888.247130,4959.379811,-4136.915689
134.992358,-3478.967927,5403.503377,1915.238745
134.992668,-222.061783,7476.080014,-5898.935335
134.992977,4367.215058,14285.974681,-8120.612279
134.993286,-666.185348,9622.677246,2757.943793
134.993596,-7994.224174,12731.542202,8963.317327
134.993905,2442.679609,7698.141797,2298.286494
134.994215,-148.041188,12065.356855,-6741.640382
134.994524,-1850.514855,8068.244768,-4290.134789
134.994833,-4441.235652,8586.388927,-3140.991542
134.995143,1332.370696,11843.295072,-5592.497135
134.995452,5107.421000,16210.510130,-5209.449386
134.995761,222.061783,8882.471304,2834.553343
134.996071,-5921.647536,9252.574275,9193.145976
134.996380,2590.720797,9770.718434,2374.896044
134.996690,3108.864956,8660.409521,-8120.612279
134.996999,-222.061783,4219.173869,-4826.401637
134.997308,-6513.812290,5995.668130,229.828649
134.997618,6365.771101,5699.585753,-7201.297681
134.997927,2146.597232,12879.583391,-9806.022374
134.998236,-888.247130,9326.594869,6818.249932
134.998546,-5699.585753,8512.368333,11261.603821
134.998855,8142.265362,9178.553681,-3217.601092
134.999165,1776.494261,9844.739029,-6358.592633
134.999474,-1924.535449,9770.718434,76.609550
134.999783,-4663.297435,6587.832884,-1608.800546
135.000093,2812.782580,11473.192101,-9346.365076
135.000402,370.102971,12509.480420,-2834.553343
135.000711,-5033.400406,14582.057057,8120.612279
135.001021,-4885.359217,11991.336260,5056.230287
135.001330,3182.885551,16358.551318,-4826.401637
135.001640,-1110.308913,9104.533087,-9422.974625
135.001949,-296.082377,8142.265362,-6435.202183
135.002258,-5477.523971,7624.121203,1225.752797
135.002568,6217.729913,9770.718434,-5515.887586
135.002877,3701.029710,6809.894666,-2374.896044
135.003186,1480.411884,8142.265362,9116.536426
135.003496,-5773.606348,6217.729913,12947.013916
135.003805,4515.256246,8956.491898,-1838.629195
135.004115,4515.256246,6439.791695,-9116.536426
135.004424,-592.164754,8216.285956,-3524.039291
135.004733,-3701.029710,4441.235652,-1378.971896
135.005043,2294.638420,13915.871710,-6205.373534
135.005352,2590.720797,10066.800811,-2757.943793
135.005661,-1628.453072,11177.109724,8044.002729
135.005971,-1776.494261,9252.574275,8503.660028
135.006280,2368.659014,10066.800811,-2145.067394
135.006590,-1480.411884,9622.677246,-6128.763984
135.006899,-4367.215058,11843.295072,-1608.800546
135.007209,-2738.761985,9548.656652,-5209.449386
135.007518,1036.288319,17912.983796,-11031.775171
135.007827,3923.091493,12509.480420,-1608.800546
135.008137,-5403.503377,9696.697840,6128.763984
135.008446,-2294.638420,9252.574275,7354.516781
135.008756,6883.915261,5625.565159,-3370.820191
135.009065,1554.432478,5625.565159,-6205.373534
135.009374,-5847.626942,8290.306550,612.876398
135.009684,1628.453072,3997.112087,1838.629195
135.009993,7328.038826,9178.553681,-9806.022374
135.010303,3775.050304,9326.594869,-3370.820191
135.010612,-9326.594869,8734.430116,11184.994271
135.010921,2072.576638,6143.709319,3600.648841
135.011231,5551.544565,11325.150913,-10342.289223
135.011540,740.205942,10584.944971,-4903.011187
135.011850,-7328.038826,9770.718434,4136.915689
135.012159,2664.741391,8142.265362,-4060.306139
135.012469,1554.432478,10510.924376,-7048.078582
135.012778,814.226536,9326.594869,383.047749
135.013087,-7476.080014,11177.109724,6971.469032
135.013397,370.102971,11769.274478,-536.266849
135.013706,2220.617826,11251.130318,-8350.440928
135.014016,-74.020594,10066.800811,-7124.688131
135.014325,-7254.018232,9252.574275,612.876398
135.014634,4441.235652,11029.068536,-2451.505594
135.014944,3923.091493,7624.121203,-10035.851024
135.015253,888.247130,9326.594869,1072.533697
135.015563,-4589.276840,5033.400406,13023.623466
135.015872,7254.018232,5329.482782,1455.581446
135.016181,592.164754,5625.565159,-6435.202183
135.016491,74.020594,9104.533087,4290.134789
135.016800,-5181.441594,7179.997637,3524.039291
135.017110,5773.606348,11769.274478,-8427.050478
135.017419,1924.535449,9474.636058,-6741.640382
135.017729,-2220.617826,10807.006753,1838.629195
135.018038,-3923.091493,10214.842000,4903.011187
135.018347,1850.514855,16210.510130,-5362.668486
135.018657,-148.041188,4145.153275,-5439.278036
135.018966,-4145.153275,11547.212695,1455.581446
135.019276,-6809.894666,11843.295072,-1762.019645
135.019585,9622.677246,10584.944971,-7124.688131
135.019894,-0.000000,9474.636058,-7967.393179
135.020204,-3182.885551,10362.883188,4826.401637
135.020513,-1480.411884,9696.697840,6435.202183
135.020823,7031.956449,8586.388927,-5132.839837
135.021132,5033.400406,7698.141797,-7277.907231
135.021441,-2442.679609,7105.977043,3677.258390
135.021751,592.164754,7476.080014,4213.525239
135.022060,2960.823768,11843.295072,-3140.991542
135.022370,3701.029710,7698.141797,-3294.210641
135.022679,-4589.276840,7550.100608,6435.202183
135.022989,-1406.391290,7328.038826,4826.401637
135.023298,1036.288319,13323.706956,-7507.735880
135.023607,4959.379811,10510.924376,-8810.098227
135.023917,-5033.400406,10955.047942,0.000000
135.024226,-2294.638420,12879.583391,2681.334243
135.024536,5699.585753,10658.965565,-4136.915689
135.024845,1258.350101,7994.224174,-2451.505594
135.025154,-11325.150913,12583.501014,9499.584175
135.025464,-0.000000,8438.347739,2987.772442
135.025773,4219.173869,5699.585753,-10342.289223
135.026083,1406.391290,7846.182985,-6971.469032
135.026392,-12731.542202,10362.883188,2834.553343
135.026701,2664.741391,8438.347739,-3140.991542
135.027011,1406.391290,9770.718434,-7124.688131
135.027320,4589.276840,10362.883188,-536.266849
135.027630,-7031.956449,2516.700203,7967.393179
135.027939,2294.638420,10214.842000,1378.971896
135.028249,3997.112087,6735.874072,-4366.744339
135.028558,3552.988522,7402.059420,-3294.210641
135.028867,-5403.503377,8142.265362,4366.744339
135.029177,1998.556043,10658.965565,1149.143247
135.029486,2442.679609,11917.315666,-7354.516781
135.029796,2812.782580,8882.471304,-3447.429741
135.030105,-11103.089130,12287.418637,4826.401637
135.030414,2590.720797,10288.862594,-2451.505594
135.030724,3404.947333,6365.771101,-9806.022374
135.031033,296.082377,11547.212695,-3677.258390
135.031343,-8882.471304,9326.594869,8886.707777
135.031652,3404.947333,13619.789333,995.924147
135.031961,2960.823768,7179.997637,-7890.783629
135.032271,740.205942,10955.047942,-536.266849
135.032580,-7920.203579,7772.162391,7124.688131
135.032890,4737.318029,12361.439231,-6435.202183
135.033199,3775.050304,7550.100608,-11414.822920
135.033509,-296.082377,8882.471304,-1608.800546
135.033818,-5551.544565,3849.070898,6588.421283
135.034127,3849.070898,11917.315666,1685.410096
135.034437,5181.441594,4589.276840,-2681.334243
135.034746,-3478.967927,5921.647536,3140.991542
135.035056,-4737.318029,7402.059420,1762.019645
135.035365,1850.514855,10658.965565,-5056.230287
135.035674,4515.256246,11177.109724,-14479.204912
135.035984,-2368.659014,13619.789333,-5132.839837
135.036293,-2368.659014,13545.768739,2068.457845
135.036603,3849.070898,13915.871710,-4060.306139
135.036912,3404.947333,8660.409521,-2604.724693
135.037221,-6291.750507,11547.212695,9422.974625
135.037531,592.164754,8364.327145,8580.269578
135.037840,1406.391290,9770.718434,-3064.381992
135.038150,2960.823768,7179.997637,-9806.022374
135.038459,-7179.997637,10362.883188,-1685.410096
135.038769,-222.061783,11547.212695,-2145.067394
135.039078,4145.153275,12139.377449,-7431.126331
135.039387,6439.791695,7031.956449,-4213.525239
135.039697,-7994.224174,11991.336260,6281.983084
135.040006,444.123565,6513.812290,4060.306139
135.040316,3330.926739,6587.832884,-4290.134789
135.040625,8142.265362,5403.503377,-2604.724693
135.040934,-5699.585753,7105.977043,4749.792088
135.041244,-592.164754,10881.027347,4903.011187
135.041553,4441.235652,9918.759623,-2298.286494
135.041863,1480.411884,13471.748144,-4673.182538
135.042172,-6809.894666,7994.224174,4979.620737
135.042481,-666.185348,10066.800811,-612.876398
135.042791,1554.432478,9326.594869,-10725.336972
135.043100,4367.215058,11325.150913,-7660.954980
135.043410,-8512.368333,10732.986159,3677.258390
135.043719,296.082377,10881.027347,153.219100
135.044029,4515.256246,7105.977043,-2374.896044
135.044338,-518.144159,9252.574275,1991.848295
135.044647,-8142.265362,7624.121203,6205.373534
135.044957,2516.700203,8734.430116,-10189.070123
135.045266,1258.350101,8438.347739,-10725.336972
135.045576,2294.638420,11843.295072,-2834.553343
135.045885,-4589.276840,7772.162391,4060.306139
135.046194,6587.832884,13471.748144,-919.314598
135.046504,6069.688724,5181.441594,-1455.581446
135.046813,-1332.370696,8512.368333,3753.867940
135.047123,-6069.688724,4885.359217,5898.935335
135.047432,4441.235652,9918.759623,-3830.477490
135.047741,1924.535449,7698.141797,-10801.946522
135.048051,-3108.864956,10436.903782,-4749.792088
135.048360,-5921.647536,12065.356855,4213.525239
135.048670,6883.915261,12731.542202,-3064.381992
135.048979,1776.494261,8142.265362,-5592.497135
135.049289,-7254.018232,12509.480420,7584.345430
135.049598,-4293.194464,7031.956449,8886.707777
135.049907,2960.823768,10066.800811,-9576.193725
135.050217,3552.988522,6587.832884,-13636.499864
135.050526,-5625.565159,9770.718434,-1225.752797
135.050836,-5181.441594,10288.862594,4366.744339
135.051145,3997.112087,12509.480420,-4213.525239
135.051454,1850.514855,8364.327145,-2451.505594
135.051764,-3034.844362,6513.812290,8120.612279
135.052073,2146.597232,5033.400406,4979.620737
135.052383,1406.391290,7920.203579,-5209.449386
135.052692,4515.256246,7179.997637,-8197.221829
135.053001,-2960.823768,10362.883188,-1378.971896
135.053311,1850.514855,9252.574275,0.000000
135.053620,2516.700203,13767.830521,-2834.553343
135.053930,2368.659014,10510.924376,-766.095498
135.054239,-4441.235652,11621.233289,4749.792088
135.054549,1998.556043,5847.626942,2604.724693
135.054858,666.185348,7105.977043,-6818.249932
135.055167,2516.700203,9474.636058,-8963.317327
135.055477,-9104.533087,9992.780217,1149.143247
135.055786,740.205942,16950.716072,1685.410096
135.056096,3775.050304,13323.706956,-8886.707777
135.056405,2368.659014,13101.645173,-9346.365076
135.056714,-12139.377449,11399.171507,6894.859482
135.057024,-296.082377,9622.677246,-3217.601092
135.057333,4589.276840,6365.771101,-14785.643111
135.057643,3404.947333,9474.636058,-9806.022374
135.057952,-8734.430116,8512.368333,1532.190996
135.058261,3256.906145,10955.047942,-1455.581446
135.058571,3256.906145,8290.306550,-6358.592633
135.058880,4071.132681,11621.233289,-2604.724693
135.059190,-6143.709319,7031.956449,3753.867940
135.059499,518.144159,6439.791695,-6281.983084
135.059809,592.164754,6661.853478,-14709.033562
135.060118,3256.906145,9326.594869,-14709.033562
135.060427,-6809.894666,9326.594869,-6435.202183
135.060737,2294.638420,10584.944971,-6971.469032
135.061046,296.082377,9918.759623,-9806.022374
135.061356,5921.647536,7550.100608,-5822.325785
135.061665,-7920.203579,7179.997637,3294.210641
135.061974,-666.185348,6217.729913,-2221.676944
135.062284,518.144159,7550.100608,-15704.957709
135.062593,2516.700203,9474.636058,-18845.949251
135.062903,-2516.700203,12805.562797,-13023.623466
135.063212,-1628.453072,12435.459826,-7660.954980
135.063521,4145.153275,14285.974681,-10342.289223
135.063831,4441.235652,6735.874072,-12257.527968
135.064140,888.247130,7624.121203,-3447.429741
135.064450,-5033.400406,3701.029710,2834.553343
135.064759,-814.226536,5847.626942,-4596.572988
135.065069,6069.688724,7476.080014,-17926.634653
135.065378,2960.823768,8068.244768,-19458.825649
135.065687,-1480.411884,10140.821405,-9116.536426
135.065997,-3256.906145,13915.871710,-2298.286494
135.066306,2960.823768,16506.592507,-9116.536426
135.066616,4959.379811,6587.832884,-15551.738609
135.066925,222.061783,5033.400406,-4903.011187
135.067234,-7698.141797,2368.659014,3677.258390
135.067544,-4811.338623,6735.874072,-4903.011187
135.067853,2590.720797,12731.542202,-21220.845295
135.068163,1110.308913,13841.851115,-20991.016645
135.068472,-7105.977043,15322.262999,-10725.336972
135.068781,-3997.112087,15100.201217,-7431.126331
135.069091,-666.185348,16580.613101,-13330.061665
135.069400,4293.194464,7846.182985,-13866.328514
135.069710,-1036.288319,2664.741391,-9269.755526
135.070019,-2516.700203,1036.288319,-2068.457845
135.070329,1184.329507,4145.153275,-3217.601092
135.070638,-296.082377,8734.430116,-6741.640382
135.070947,4145.153275,12213.398043,-11108.384721
135.071257,-1480.411884,14508.036463,-15245.300410
135.071566,296.082377,12953.603985,-14938.862211
135.071876,1628.453072,10140.821405,-14862.252661
135.072185,-1184.329507,8808.450710,-16088.005458
135.072494,-370.102971,7031.956449,-8580.269578
135.072804,-1850.514855,3034.844362,-4826.401637
135.073113,1480.411884,6513.812290,-9116.536426
135.073423,7846.182985,9030.512492,-8427.050478
135.073732,1258.350101,11177.109724,-5439.278036
135.074041,-2664.741391,11991.336260,-4290.134789
135.074351,-1332.370696,12435.459826,-9959.241474
135.074660,1332.370696,14804.118840,-17850.025103
135.074970,-1332.370696,14656.077652,-21910.331243
135.075279,-296.082377,13101.645173,-17237.148705
135.075589,-1702.473667,8956.491898,-10955.165621
135.075898,962.267725,10140.821405,-7124.688131
135.076207,444.123565,7698.141797,-4596.572988
135.076517,-518.144159,9326.594869,0.000000
135.076826,-1776.494261,10066.800811,-4673.182538
135.077136,1184.329507,9622.677246,-13789.718964
135.077445,4441.235652,7698.141797,-19382.216099
135.077754,2738.761985,6365.771101,-15092.081311
135.078064,-5773.606348,7624.121203,-5592.497135
135.078373,-1332.370696,7698.141797,-2221.676944
135.078683,1406.391290,9474.636058,-6435.202183
135.078992,-740.205942,9918.759623,-7048.078582
135.079301,-3256.906145,10066.800811,-7890.783629
135.079611,592.164754,11547.212695,-15781.567259
135.079920,1184.329507,9844.739029,-20454.749797
135.080230,-3849.070898,10807.006753,-12257.527968
135.080539,-4145.153275,12139.377449,-5745.716235
135.080849,666.185348,12509.480420,-7431.126331
135.081158,2146.597232,11473.192101,-8350.440928
135.081467,-2220.617826,8068.244768,-5592.497135
135.081777,-2738.761985,7254.018232,-8580.269578
135.082086,1776.494261,7772.162391,-14249.376263
135.082396,4515.256246,11843.295072,-18999.168350
135.082705,1924.535449,10140.821405,-15628.348159
135.083014,962.267725,11621.233289,-4903.011187
135.083324,666.185348,9474.636058,-995.924147
135.083633,3775.050304,5625.565159,-9576.193725
135.083943,296.082377,1850.514855,-6205.373534
135.084252,-740.205942,4293.194464,-4749.792088
135.084561,-2368.659014,9030.512492,-10265.679673
135.084871,74.020594,14952.160028,-13636.499864
135.085180,-2442.679609,21169.889941,-19918.482948
135.085490,-962.267725,20281.642811,-19841.873398
135.085799,-1332.370696,18653.189738,-17237.148705
135.086109,1258.350101,13619.789333,-14019.547613
135.086418,3182.885551,3552.988522,-15092.081311
135.086727,2294.638420,2294.638420,-3524.039291
135.087037,-0.000000,-2294.638420,919.314598
135.087346,-0.000000,370.102971,383.047749
135.087656,-296.082377,4367.215058,-6128.763984
135.087965,1628.453072,10881.027347,-16700.881856
135.088274,-1924.535449,14656.077652,-17160.539155
135.088584,-3256.906145,15174.221811,-17083.929605
135.088893,-1110.308913,16654.633695,-18386.291952
135.089203,-888.247130,10807.006753,-19305.606550
135.089512,-2072.576638,9030.512492,-10112.460574
135.089821,-1628.453072,5773.606348,-3600.648841
135.090131,2220.617826,5995.668130,-3753.867940
135.090440,2516.700203,7698.141797,-5056.230287
135.090750,-666.185348,10658.965565,-6971.469032
135.091059,-222.061783,11473.192101,-11338.213370
135.091369,-370.102971,14582.057057,-13253.452115
135.091678,-962.267725,15322.262999,-14479.204912
135.091987,592.164754,14508.036463,-16164.615008
135.092297,1184.329507,7402.059420,-13330.061665
135.092606,-4219.173869,1258.350101,-8580.269578
135.092916,-518.144159,-74.020594,-7354.516781
135.093225,1554.432478,4071.132681,-5209.449386
135.093534,1628.453072,8438.347739,-1532.190996
135.093844,1554.432478,10510.924376,-4826.401637
135.094153,1036.288319,11621.233289,-10189.070123
135.094463,1480.411884,12509.480420,-11338.213370
135.094772,-1406.391290,12805.562797,-11644.651570
135.095081,-1110.308913,11325.150913,-13483.280765
135.095391,1850.514855,10807.006753,-12563.966167
135.095700,-888.247130,9252.574275,-9499.584175
135.096010,-1702.473667,7476.080014,-6358.592633
135.096319,1110.308913,8364.327145,-7354.516781
135.096629,-222.061783,6883.915261,-8120.612279
135.096938,148.041188,7624.121203,-9269.755526
135.097247,1036.288319,6217.729913,-9116.536426
135.097557,2294.638420,7179.997637,-7124.688131
135.097866,222.061783,8660.409521,-2068.457845
135.098176,1036.288319,8586.388927,-2911.162892
135.098485,1628.453072,8512.368333,-6128.763984
135.098794,222.061783,8438.347739,-5362.668486
135.099104,-592.164754,10214.842000,-4366.744339
135.099413,-592.164754,11621.233289,-8350.440928
135.099723,-2590.720797,12583.501014,-10342.289223
135.100032,-2960.823768,11843.295072,-9116.536426
135.100341,-3404.947333,10955.047942,-10955.165621
135.100651,-2664.741391,11769.274478,-12563.966167
135.100960,-2442.679609,12435.459826,-11951.089769
135.101270,-666.185348,12953.603985,-11184.994271
135.101579,888.247130,11399.171507,-12793.794817
135.101889,-0.000000,12287.418637,-9806.022374
135.102198,-888.247130,13471.748144,-9729.412825
135.102507,-0.000000,13101.645173,-10725.336972
135.102817,370.102971,12139.377449,-14325.985813
135.103126,-740.205942,10807.006753,-14709.033562
135.103436,-2590.720797,8808.450710,-19152.387450
135.103745,2442.679609,7772.162391,-17620.196454
135.104054,2960.823768,6439.791695,-11568.042020
135.104364,2516.700203,5181.441594,-6741.640382
135.104673,5181.441594,9400.615463,-2604.724693
135.104983,-3108.864956,6883.915261,5362.668486
135.105292,-0.000000,4589.276840,-4213.525239
135.105602,-888.247130,6661.853478,-20224.921147
135.105911,-4071.132681,7994.224174,-20837.797546
135.106221,-3256.906145,17838.963202,-18692.730151
135.106530,-5181.441594,17542.880825,-20531.359346
135.106840,7698.141797,18431.127956,-26123.856482
135.107149,-1628.453072,12657.521608,-13176.842566
135.107459,296.082377,8438.347739,-3217.601092
135.107768,592.164754,5847.626942,0.000000
135.108078,13249.686362,-2886.803174,-8580.269578
135.108387,-17764.942608,9104.533087,-3447.429741
135.108697,12583.501014,29460.196492,76.609550
135.109006,4811.338623,15766.386565,-18922.558801
135.109316,3182.885551,4145.153275,-30643.819920
135.109625,-20947.828159,8660.409521,-14325.985813
135.109935,-5847.626942,21836.075289,-6358.592633
135.110244,2664.741391,20355.663405,-18003.244203
135.110554,3997.112087,8438.347739,-18769.339701
135.110863,-2368.659014,7846.182985,-11184.994271
135.111173,-5329.482782,-2812.782580,-8427.050478
135.111482,-5329.482782,10510.924376,-5822.325785
135.111792,4367.215058,14211.954086,-5515.887586
135.112101,9030.512492,16210.510130,-16854.100956
135.112411,-2368.659014,7550.100608,-9882.631924
135.112720,-10066.800811,8586.388927,4213.525239
135.113030,-3182.885551,5107.421000,-13023.623466
135.113339,814.226536,2886.803174,-31180.086769
135.113649,3034.844362,10140.821405,-21833.721693
135.113958,-7624.121203,8882.471304,-8120.612279
135.114268,370.102971,10362.883188,-9959.241474
135.114577,5403.503377,12139.377449,-10648.727422
135.114887,8808.450710,8734.430116,-8810.098227
135.115196,-2368.659014,2072.576638,3294.210641
135.115506,-4589.276840,7031.956449,6052.154434
135.115815,2294.638420,7254.018232,-8580.269578
135.116125,9696.697840,12139.377449,-25587.589633
135.116434,-518.144159,9474.636058,-20684.578446
135.116744,-3256.906145,15544.324782,-9346.365076
135.117053,1628.453072,15322.262999,-10955.165621
135.117363,1554.432478,16358.551318,-12563.966167
135.117672,-3182.885551,10066.800811,-4060.306139
135.117982,-3552.988522,10362.883188,-1762.019645
135.118291,2220.617826,6439.791695,-11338.213370
135.118601,-296.082377,4663.297435,-15628.348159
135.118910,1258.350101,9622.677246,-13253.452115
135.119220,-592.164754,11695.253884,-5286.058936
135.119529,-888.247130,14952.160028,-1685.410096
135.119839,-2960.823768,13767.830521,-536.266849
135.120148,1554.432478,13693.809927,-8810.098227
135.120458,-0.000000,9326.594869,-13713.109414
135.120767,-3108.864956,6291.750507,-13789.718964
135.121077,-6143.709319,4293.194464,-11031.775171
135.121386,-1924.535449,7846.182985,-11721.261119
135.121696,-444.123565,13323.706956,-8503.660028
135.122005,-3034.844362,13101.645173,-8120.612279
135.122315,1332.370696,10288.862594,-9346.365076
135.122624,1850.514855,8734.430116,-5745.716235
135.122934,-1480.411884,7105.977043,-1762.019645
135.123243,-0.000000,4441.235652,-7277.907231
135.123553,-2960.823768,4515.256246,-8350.440928
135.123862,-1110.308913,13989.892304,-9422.974625
135.124172,2294.638420,13471.748144,-12487.356617
135.124481,3034.844362,16728.654289,-15245.300410
135.124791,-1628.453072,17246.798449,-12257.527968
135.125100,-1554.432478,8290.306550,-13789.718964
135.125410,-2590.720797,8068.244768,-12487.356617
135.125719,4737.318029,8882.471304,-12410.747068
135.126029,-1406.391290,5773.606348,-9806.022374
135.126338,-592.164754,7994.224174,-3447.429741
135.126648,888.247130,7328.038826,-7048.078582
135.126957,222.061783,13471.748144,-16164.615008
135.127267,3923.091493,9770.718434,-18079.853753
135.127576,-3034.844362,8142.265362,-13176.842566
135.127886,-518.144159,14508.036463,-12487.356617
135.128195,2368.659014,6735.874072,-15475.129060
135.128505,2294.638420,7846.182985,-16700.881856
135.128814,1850.514855,5329.482782,-10418.898773
135.129124,-3923.091493,5995.668130,-2451.505594
135.129433,-814.226536,7698.141797,-3677.258390
135.129743,4737.318029,12435.459826,-14709.033562
135.130052,9992.780217,14211.954086,-19841.873398
135.130362,-2368.659014,8216.285956,-11568.042020
135.130671,-7846.182985,9918.759623,-919.314598
135.130981,-3108.864956,6439.791695,-8656.879127
135.131290,5255.462188,11251.130318,-15321.909960
135.131600,-518.144159,5107.421000,-9806.022374
135.131909,-962.267725,6069.688724,-229.828649
135.132219,-5033.400406,9622.677246,-2834.553343
135.132528,3552.988522,9548.656652,-10801.946522
135.132838,-444.123565,9992.780217,-10725.336972
135.133147,-4589.276840,11177.109724,-5592.497135
135.133457,-2072.576638,15470.304188,-5669.106685
135.133766,444.123565,9992.780217,-11874.480219
135.134076,8142.265362,10584.944971,-13176.842566
135.134385,-3330.926739,4737.318029,-2068.457845
135.134695,-3404.947333,10881.027347,7890.783629
135.135004,-5329.482782,6809.894666,-1378.971896
135.135314,7550.100608,13693.809927,-10418.898773
135.135624,962.267725,7402.059420,-9193.145976
135.135933,-3256.906145,10807.006753,-1149.143247
135.136243,-5847.626942,11843.295072,-1378.971896
135.136552,9326.594869,11251.130318,-10265.679673
135.136862,-444.123565,9400.615463,-4596.572988
135.137171,-2812.782580,6883.915261,7354.516781
135.137481,-4737.318029,4737.318029,7201.297681
135.137790,3330.926739,6217.729913,-1991.848295
135.138100,888.247130,7920.203579,-3600.648841
135.138409,-1998.556043,8142.265362,-1072.533697
135.138719,-2442.679609,12731.542202,-2604.724693
135.139028,4219.173869,14285.974681,-7277.907231
135.139338,-2368.659014,14952.160028,-4519.963438
135.139647,-0.000000,11769.274478,2145.067394
135.139957,1702.473667,8734.430116,4443.353888
135.140266,2664.741391,8068.244768,-919.314598
135.140576,370.102971,8808.450710,0.000000
135.140885,2368.659014,7105.977043,766.095498
135.141195,-1036.288319,11473.192101,-306.438199
135.141504,2368.659014,11843.295072,-1991.848295
135.141814,-0.000000,11843.295072,536.266849
135.142123,-1628.453072,11325.150913,4290.134789
135.142433,-2886.803174,9474.636058,0.000000
135.142742,4441.235652,8956.491898,-4366.744339
135.143052,-2220.617826,9252.574275,-4903.011187
135.143361,2294.638420,8956.491898,-1455.581446
135.143671,-1850.514855,9548.656652,3524.039291
135.143980,4737.318029,12139.377449,1455.581446
135.144290,-444.123565,6883.915261,3907.087040
135.144599,-1258.350101,10510.924376,8733.488677
135.144909,1998.556043,6587.832884,2528.115143
135.145218,2072.576638,7105.977043,-6741.640382
135.145528,-5403.503377,7031.956449,-4596.572988
135.145837,-1036.288319,12583.501014,-1838.629195
135.146147,4885.359217,11325.150913,-10189.070123
135.146456,2368.659014,11695.253884,-4136.915689
135.146766,-3182.885551,12435.459826,9499.584175
135.147075,-1776.494261,11251.130318,8580.269578
135.147385,4145.153275,6735.874072,-2528.115143
135.147694,1110.308913,7920.203579,-2221.676944
135.148004,-5551.544565,3552.988522,76.609550
135.148313,-1998.556043,8290.306550,-3907.087040
135.148623,592.164754,8882.471304,-9729.412825
135.148932,5329.482782,13693.809927,-7507.735880
135.149242,-2442.679609,9548.656652,536.266849
135.149551,-666.185348,13471.748144,5209.449386
135.149861,1850.514855,6883.915261,2068.457845
135.150170,1110.308913,3701.029710,-2528.115143
135.150480,-3256.906145,3775.050304,-2987.772442
135.150789,-296.082377,4515.256246,76.609550
135.151099,3552.988522,9770.718434,-6358.592633
135.151408,-2368.659014,13545.768739,-7277.907231
135.151718,-1702.473667,13545.768739,-229.828649
135.152027,-2220.617826,10881.027347,842.705048
135.152337,3404.947333,12065.356855,-6281.983084
135.152646,-0.000000,9178.553681,-7277.907231
135.152956,1628.453072,4589.276840,-2987.772442
135.153265,-2516.700203,11177.109724,-2757.943793
135.153575,3034.844362,9770.718434,-6665.030833
135.153884,-1332.370696,6883.915261,-2374.896044
135.154194,1998.556043,10066.800811,5056.230287
135.154503,-370.102971,5255.462188,2681.334243
135.154813,2738.761985,9696.697840,-6435.202183
135.155122,888.247130,6809.894666,-6052.154434
135.155432,2368.659014,4737.318029,-2145.067394
135.155741,-2516.700203,7772.162391,1378.971896
135.156051,3256.906145,9400.615463,-2374.896044
135.156360,592.164754,9252.574275,-3140.991542
135.156670,2072.576638,8438.347739,4826.401637
135.156979,-7328.038826,12731.542202,5898.935335
135.157289,1258.350101,11399.171507,-3907.087040
135.157598,-2812.782580,9622.677246,-8580.269578
135.157908,-370.102971,11399.171507,-7507.735880
135.158217,-518.144159,9992.780217,-3140.991542
135.158527,518.144159,13545.768739,-1915.238745
135.158836,444.123565,8586.388927,2221.676944
135.159146,1184.329507,10288.862594,5822.325785
135.159455,444.123565,9326.594869,2987.772442
135.159765,3108.864956,3775.050304,2298.286494
135.160074,-3404.947333,5551.544565,1608.800546
135.160384,-74.020594,8068.244768,-2221.676944
135.160693,-1554.432478,7698.141797,-6665.030833
135.161003,-148.041188,8956.491898,-1762.019645
135.161312,-1184.329507,7624.121203,2374.896044
135.161622,2664.741391,10510.924376,4826.401637
135.161931,-74.020594,12361.439231,2451.505594
135.162241,-1110.308913,6883.915261,0.000000
135.162550,-2442.679609,7031.956449,2451.505594
135.162860,1850.514855,11769.274478,-766.095498
135.163169,-962.267725,13175.665768,-3907.087040
135.163479,-2516.700203,12583.501014,-1608.800546
135.163788,-1480.411884,15026.180623,-306.438199
135.164098,1036.288319,16062.468941,-2834.553343
135.164407,2368.659014,15322.262999,-5745.716235
135.164717,1554.432478,10584.944971,-2528.115143
135.165026,1332.370696,5107.421000,1225.752797
135.165336,-814.226536,5181.441594,3064.381992
135.165645,2294.638420,9326.594869,612.876398
135.165955,2072.576638,7920.203579,76.609550
135.166264,1850.514855,6735.874072,-1072.533697
135.166574,-2368.659014,14211.954086,76.609550
135.166883,3701.029710,9918.759623,-8427.050478
135.167193,3849.070898,7105.977043,-4903.011187
135.167502,-3404.947333,7698.141797,3907.087040
135.167812,-2886.803174,13841.851115,2604.724693
135.168121,1110.308913,5477.523971,-1149.143247
135.168431,1628.453072,8956.491898,0.000000
135.168740,296.082377,6587.832884,-383.047749
135.169050,-5773.606348,13693.809927,0.000000
135.169359,1554.432478,13397.727550,0.000000
135.169669,-4293.194464,13619.789333,-4979.620737
135.169978,1480.411884,12213.398043,-4213.525239
135.170288,-3404.947333,9326.594869,-3217.601092
135.170597,1924.535449,11473.192101,-9806.022374
135.170907,-1628.453072,6957.935855,-1838.629195
135.171216,2960.823768,7698.141797,4749.792088
135.171526,-1332.370696,6439.791695,5132.839837
135.171835,1554.432478,7846.182985,766.095498
135.172145,-1998.556043,8734.430116,76.609550
135.172454,888.247130,5255.462188,-2068.457845
135.172764,-222.061783,9474.636058,-5362.668486
135.173073,2146.597232,12509.480420,-7967.393179
135.173383,-2960.823768,8068.244768,-3753.867940
135.173692,740.205942,12509.480420,1685.410096
135.174002,-370.102971,10881.027347,-1225.752797
135.174311,3034.844362,8364.327145,-1762.019645
135.174621,-1480.411884,6883.915261,4443.353888
135.174930,-3478.967927,7846.182985,2911.162892
135.175240,-740.205942,11473.192101,-229.828649
135.175549,3849.070898,12657.521608,-4519.963438
135.175859,-888.247130,11103.089130,-5515.887586
135.176168,-5181.441594,16062.468941,-3753.867940
135.176478,-814.226536,12213.398043,-6358.592633
135.176787,1406.391290,10436.903782,-10112.460574
135.177097,2368.659014,14137.933492,-2374.896044
135.177406,-740.205942,8438.347739,4749.792088
135.177716,1036.288319,4515.256246,4826.401637
135.178025,4589.276840,7994.224174,766.095498
135.178335,-1480.411884,5551.544565,3753.867940
135.178644,-1184.329507,8586.388927,-536.266849
135.178954,3552.988522,6957.935855,-7660.954980
135.179263,-740.205942,14211.954086,-8120.612279
135.179573,3108.864956,9326.594869,-1455.581446
135.179882,-2516.700203,7994.224174,-383.047749
135.180192,1332.370696,10955.047942,612.876398
135.180501,-0.000000,9474.636058,2834.553343
135.180811,-1924.535449,6513.812290,766.095498
135.181120,-3923.091493,9474.636058,1302.362347
135.181430,3108.864956,11621.233289,-2221.676944
135.181739,-3404.947333,10732.986159,-4903.011187
135.182049,-1998.556043,12287.418637,229.828649
135.182358,-4663.297435,14359.995275,-1225.752797
135.182668,4737.318029,12287.418637,-4213.525239
135.182977,-2590.720797,7328.038826,-1532.190996
135.183287,2442.679609,10732.986159,5132.839837
135.183596,-1628.453072,5181.441594,4673.182538
135.183906,3256.906145,4885.359217,-2145.067394
135.184215,-4441.235652,4515.256246,1532.190996
135.184525,2516.700203,5773.606348,1915.238745
135.184834,-1258.350101,9548.656652,-766.095498
135.185144,2590.720797,13175.665768,-3064.381992
135.185453,-962.267725,7254.018232,689.485948
135.185763,-0.000000,6735.874072,1225.752797
135.186072,-3701.029710,5699.585753,2374.896044
135.186382,3034.844362,12435.459826,-153.219100
135.186691,1702.473667,9696.697840,-383.047749
135.187001,1036.288319,12065.356855,1378.971896
135.187310,-3034.844362,12583.501014,3064.381992
135.187620,-0.000000,14878.139434,-2451.505594
135.187929,-1628.453072,9696.697840,-3447.429741
135.188239,1480.411884,15544.324782,-1072.533697
135.188548,-1998.556043,12583.501014,-5362.668486
135.188858,1702.473667,11547.212695,-6588.421283
135.189167,-3478.967927,6661.853478,919.314598
135.189477,3627.009116,9474.636058,919.314598
135.189786,666.185348,4959.379811,153.219100
135.190096,1480.411884,9844.739029,5286.058936
135.190405,2146.597232,5255.462188,6435.202183
135.190715,4071.132681,9474.636058,-1991.848295
135.191024,-444.123565,5551.544565,-3294.210641
135.191334,1850.514855,7846.182985,-1685.410096
135.191643,2368.659014,6587.832884,-4060.306139
135.191953,-2368.659014,9548.656652,1838.629195
135.192263,666.185348,10807.006753,3064.381992
135.192572,1850.514855,10510.924376,-995.924147
135.192882,-518.144159,10658.965565,612.876398
135.193191,-5329.482782,10140.821405,5439.278036
135.193501,-0.000000,7624.121203,-1685.410096
135.193810,-1184.329507,14508.036463,-9882.631924
135.194120,-2294.638420,14063.912898,-5592.497135
135.194429,-2146.597232,10658.965565,-3830.477490
135.194739,6217.729913,11695.253884,-8656.879127
135.195048,296.082377,9474.636058,842.705048
135.195358,-2368.659014,4441.235652,13330.061665
135.195667,-2442.679609,5107.421000,5439.278036
135.195977,6069.688724,5107.421000,-4136.915689
135.196286,-0.000000,7698.141797,-2528.115143
135.196596,-1332.370696,1702.473667,-1762.019645
135.196905,-4441.235652,8586.388927,-4903.011187
135.197215,3701.029710,12287.418637,-4673.182538
135.197524,6291.750507,14063.912898,-3524.039291
135.197834,1332.370696,11177.109724,1149.143247
135.198143,-9474.636058,8882.471304,7431.126331
135.198453,2294.638420,6587.832884,689.485948
135.198762,1628.453072,6661.853478,-7507.735880
135.199072,-1110.308913,11621.233289,-3677.258390
135.199381,-7105.977043,13767.830521,2145.067394
135.199691,4145.153275,18653.189738,-4366.744339
135.200000,2442.679609,15914.427753,-6205.373534
135.200310,-1480.411884,14730.098246,0.000000
135.200619,-5329.482782,10658.965565,-5439.278036
135.200929,4145.153275,5329.482782,-6358.592633
135.201238,1480.411884,5773.606348,-3447.429741
135.201548,-1406.391290,6291.750507,2681.334243
135.201857,-2590.720797,4515.256246,4519.963438
135.202167,3034.844362,10510.924376,1378.971896
135.202476,3108.864956,7476.080014,612.876398
135.202786,-3034.844362,10807.006753,153.219100
135.203095,-888.247130,9770.718434,995.924147
135.203405,3627.009116,11177.109724,-3294.210641
135.203714,2812.782580,7550.100608,-9039.926876
135.204024,-1184.329507,8882.471304,-1915.238745
135.204333,-3923.091493,9918.759623,3217.601092
135.204643,1184.329507,13027.624579,2221.676944
135.204952,4959.379811,11843.295072,1532.190996
135.205262,-3034.844362,11843.295072,4366.744339
135.205571,-4219.173869,13693.809927,1302.362347
135.205881,-2220.617826,11177.109724,-7354.516781
135.206190,3330.926739,8068.244768,-11491.432470
135.206500,-1480.411884,13767.830521,-6818.249932
135.206809,1554.432478,12139.377449,-995.924147
135.207119,-2146.597232,5181.441594,3600.648841
135.207428,2664.741391,5921.647536,7967.393179
135.207737,-1332.370696,3330.926739,7890.783629
135.208047,2516.700203,4441.235652,2451.505594
135.208356,2294.638420,5329.482782,-1072.533697
135.208666,-1776.494261,5995.668130,-3830.477490
135.208975,-2220.617826,12065.356855,-6281.983084
135.209285,4071.132681,14952.160028,-6358.592633
135.209594,814.226536,16580.613101,-8886.707777
135.209904,814.226536,10436.903782,2298.286494
135.210213,-1998.556043,9696.697840,8044.002729
135.210522,-222.061783,9252.574275,3524.039291
135.210832,2590.720797,2442.679609,153.219100
135.211141,-1406.391290,5921.647536,2221.676944
135.211451,-4367.215058,11843.295072,766.095498
135.211760,4737.318029,16876.695478,-4979.620737
135.212070,1110.308913,11991.336260,-7660.954980
135.212379,-740.205942,12731.542202,-4443.353888
135.212689,-7402.059420,15100.201217,1838.629195
135.212998,962.267725,6217.729913,-2834.553343
135.213307,666.185348,5551.544565,-9576.193725
135.213617,2516.700203,4589.276840,76.609550
135.213926,-6069.688724,5921.647536,5669.106685
135.214236,3997.112087,4811.338623,1838.629195
135.214545,3701.029710,6735.874072,-842.705048
135.214855,-1702.473667,11399.171507,-1149.143247
135.215164,-3997.112087,12065.356855,536.266849
135.215474,3330.926739,12361.439231,-7660.954980
135.215783,4441.235652,7179.997637,-11721.261119
135.216092,-1776.494261,8586.388927,-3064.381992
