#time,accel_x,accel_y,accel_z
136.689832,-888.247130,10362.883188,76.609550
136.690142,-148.041188,9548.656652,-842.705048
136.690452,-74.020594,9104.533087,-1302.362347
136.690762,-0.000000,9474.636058,-2221.676944
136.691071,888.247130,8734.430116,-1149.143247
136.691381,-222.061783,9622.677246,-536.266849
136.691691,-0.000000,9696.697840,-306.438199
136.692001,370.102971,9992.780217,-536.266849
136.692311,-222.061783,9252.574275,-1685.410096
136.692621,2960.823768,7179.997637,-612.876398
136.692931,296.082377,10066.800811,-1838.629195
136.693241,-370.102971,9548.656652,-919.314598
136.693551,518.144159,9770.718434,153.219100
136.693861,-370.102971,9252.574275,-153.219100
136.694171,1184.329507,9030.512492,-1915.238745
136.694481,-222.061783,7920.203579,-2298.286494
136.694791,-0.000000,9104.533087,-1685.410096
136.695101,444.123565,9918.759623,0.000000
136.695411,1110.308913,7920.203579,1225.752797
136.695721,1406.391290,8438.347739,1149.143247
136.696031,2072.576638,6735.874072,766.095498
136.696341,5033.400406,7476.080014,2374.896044
136.696651,2812.782580,7328.038826,8656.879127
136.696961,-740.205942,5181.441594,11338.213370
136.697271,1924.535449,7031.956449,11491.432470
136.697581,6513.812290,8808.450710,5822.325785
136.697891,3404.947333,7031.956449,3600.648841
136.698201,-2368.659014,9474.636058,10189.070123
136.698511,-222.061783,12361.439231,11491.432470
136.698820,962.267725,11103.089130,4979.620737
136.699130,1036.288319,12213.398043,6281.983084
136.699440,-1406.391290,12435.459826,12180.918418
136.699750,-15692.365970,13915.871710,11031.775171
136.700060,27165.558071,17098.757260,-5592.497135
136.700370,-13027.624579,7846.182985,612.876398
136.700680,-4515.256246,15914.427753,20301.530697
136.700990,-18801.230927,7698.141797,27732.657028
136.701300,6957.935855,13471.748144,1149.143247
136.701610,10288.862594,13249.686362,-4136.915689
136.701920,-11843.295072,8660.409521,10189.070123
136.702230,-4811.338623,11843.295072,8580.269578
136.702540,-1776.494261,5921.647536,4213.525239
136.702850,-296.082377,8438.347739,3677.258390
136.703160,-3108.864956,4737.318029,16624.272307
136.703470,2368.659014,4145.153275,12640.575717
136.703780,-4293.194464,3108.864956,13559.890315
136.704090,-0.000000,5477.523971,17926.634653
136.704400,222.061783,8438.347739,7431.126331
136.704710,-2072.576638,4441.235652,229.828649
136.705020,1554.432478,14804.118840,4136.915689
136.705330,296.082377,11473.192101,-2298.286494
136.705640,5033.400406,14285.974681,0.000000
136.705950,962.267725,12213.398043,19305.606550
136.706259,-518.144159,6883.915261,24515.055936
136.706569,2220.617826,5403.503377,17390.367805
136.706879,4515.256246,2442.679609,9806.022374
136.707189,-1036.288319,8290.306550,7584.345430
136.707499,5403.503377,13323.706956,-1915.238745
136.707809,4811.338623,16802.674883,-5286.058936
136.708119,592.164754,16506.592507,7431.126331
136.708429,-7105.977043,14063.912898,18386.291952
136.708739,-5033.400406,12731.542202,14249.376263
136.709049,2960.823768,11473.192101,689.485948
136.709359,5699.585753,8216.285956,-6435.202183
136.709669,666.185348,8660.409521,2451.505594
136.709979,-74.020594,10510.924376,15015.471761
136.710289,-1554.432478,10214.842000,17313.758255
136.710599,2368.659014,7624.121203,8580.269578
136.710909,4219.173869,4811.338623,1991.848295
136.711219,-5033.400406,148.041188,7660.954980
136.711529,-7772.162391,5625.565159,8044.002729
136.711839,370.102971,9104.533087,-689.485948
136.712149,9178.553681,7624.121203,-9116.536426
136.712459,4293.194464,7550.100608,3294.210641
136.712769,-6513.812290,6069.688724,23289.303139
136.713079,-5921.647536,8808.450710,21220.845295
136.713389,4589.276840,10214.842000,4903.011187
136.713699,4293.194464,10214.842000,-3983.696590
136.714008,-3034.844362,9030.512492,-842.705048
136.714318,-6735.874072,12361.439231,689.485948
136.714628,3404.947333,15544.324782,-7354.516781
136.714938,8734.430116,13767.830521,-2298.286494
136.715248,-1850.514855,9474.636058,18845.949251
136.715558,-5921.647536,7698.141797,26123.856482
136.715868,4663.297435,4441.235652,12947.013916
136.716178,4367.215058,2368.659014,2528.115143
136.716488,-2886.803174,5477.523971,7584.345430
136.716798,740.205942,7772.162391,1685.410096
136.717108,2960.823768,8216.285956,-1302.362347
136.717418,-3923.091493,-666.185348,5745.716235
136.717728,-11547.212695,-148.041188,20531.359346
136.718038,592.164754,3923.091493,17160.539155
136.718348,-21243.910535,-6809.894666,20531.359346
136.718658,19541.436869,23538.548956,-842.705048
136.718968,10066.800811,5181.441594,-17083.929605
136.719278,-8068.244768,15248.242405,4060.306139
136.719588,-8290.306550,15396.283594,29494.676673
136.719898,2442.679609,9770.718434,7201.297681
136.720208,2960.823768,14137.933492,1149.143247
136.720518,-12361.439231,8882.471304,24821.494135
136.720828,592.164754,10436.903782,11261.603821
136.721138,3034.844362,10066.800811,-8503.660028
136.721448,1776.494261,16136.489536,-842.705048
136.721757,-2368.659014,10436.903782,15015.471761
136.722067,-518.144159,15618.345376,8580.269578
136.722377,2812.782580,10584.944971,4673.182538
136.722687,-2886.803174,11547.212695,13483.280765
136.722997,222.061783,11547.212695,18769.339701
136.723307,-1554.432478,2294.638420,13866.328514
136.723617,2368.659014,6735.874072,10725.336972
136.723927,3552.988522,4071.132681,6665.030833
136.724237,3182.885551,148.041188,2681.334243
136.724547,2368.659014,8068.244768,9652.803275
136.724857,-6439.791695,9104.533087,19688.654299
136.725167,-2738.761985,9622.677246,13406.671215
136.725477,6587.832884,8512.368333,4443.353888
136.725787,-1554.432478,7105.977043,3600.648841
136.726097,-8882.471304,6587.832884,13023.623466
136.726407,-4145.153275,9400.615463,11261.603821
136.726717,1258.350101,11843.295072,1455.581446
136.727027,1850.514855,13397.727550,4749.792088
136.727337,2220.617826,15692.365970,10878.556072
136.727647,-5921.647536,13693.809927,14555.814462
136.727957,-2368.659014,12435.459826,8580.269578
136.728267,-222.061783,12953.603985,4903.011187
136.728577,1036.288319,10881.027347,-2604.724693
136.728887,2738.761985,9474.636058,383.047749
136.729196,-6365.771101,6587.832884,8886.707777
136.729506,666.185348,9918.759623,10112.460574
136.729816,-1628.453072,5033.400406,6971.469032
136.730126,5477.523971,6291.750507,6281.983084
136.730436,-5477.523971,4515.256246,9729.412825
136.730746,-1554.432478,6513.812290,5056.230287
136.731056,2886.803174,11251.130318,-4596.572988
136.731366,4811.338623,6217.729913,-2145.067394
136.731676,740.205942,12805.562797,10035.851024
136.731986,-3478.967927,10510.924376,12793.794817
136.732296,888.247130,8290.306550,4903.011187
136.732606,6365.771101,7105.977043,3217.601092
136.732916,-3478.967927,5329.482782,7201.297681
136.733226,-2886.803174,13915.871710,0.000000
136.733536,2886.803174,9844.739029,-13636.499864
136.733846,4367.215058,11177.109724,-15704.957709
136.734156,-2220.617826,11399.171507,3217.601092
136.734466,-3108.864956,12805.562797,11951.089769
136.734776,5625.565159,7994.224174,4213.525239
136.735086,8216.285956,6809.894666,919.314598
136.735396,1406.391290,7698.141797,6358.592633
136.735706,-740.205942,5847.626942,4903.011187
136.736016,7402.059420,4367.215058,-7201.297681
136.736326,12583.501014,11103.089130,-16700.881856
136.736636,-222.061783,7624.121203,459.657299
136.736945,-7402.059420,7994.224174,17466.977354
136.737255,1554.432478,5699.585753,8810.098227
136.737565,11769.274478,9844.739029,-7660.954980
136.737875,-4515.256246,3775.050304,383.047749
136.738185,-8142.265362,9770.718434,4596.572988
136.738495,3108.864956,9400.615463,-6894.859482
136.738805,3849.070898,16136.489536,-14555.814462
136.739115,-4145.153275,14952.160028,2528.115143
136.739425,-5625.565159,16432.571912,11491.432470
136.739735,-74.020594,9548.656652,995.924147
136.740045,-3108.864956,13323.706956,-1991.848295
136.740355,-7179.997637,13767.830521,6358.592633
136.740665,-1184.329507,7402.059420,-2681.334243
136.740975,5773.606348,10436.903782,-18845.949251
136.741285,-1258.350101,7105.977043,-6128.763984
136.741595,-962.267725,10658.965565,12257.527968
136.741905,-222.061783,3923.091493,8197.221829
136.742215,3182.885551,4145.153275,2145.067394
136.742525,-222.061783,-3478.967927,9499.584175
136.742835,-5255.462188,518.144159,6588.421283
136.743145,518.144159,-592.164754,-6665.030833
136.743455,7179.997637,11029.068536,-7507.735880
136.743765,-0.000000,12583.501014,-1149.143247
136.744075,-518.144159,11251.130318,7124.688131
136.744384,-74.020594,10807.006753,7354.516781
136.744694,-3034.844362,7846.182985,8963.317327
136.745003,-6291.750507,11177.109724,3907.087040
136.745313,-2442.679609,15692.365970,-4673.182538
136.745622,2146.597232,11843.295072,-14096.157163
136.745932,-444.123565,18949.272115,-10801.946522
136.746242,3627.009116,22428.240043,-3983.696590
136.746551,3849.070898,10362.883188,-689.485948
136.746861,-444.123565,10066.800811,8810.098227
136.747170,-4367.215058,11103.089130,18233.072852
136.747480,1184.329507,6439.791695,8044.002729
136.747790,4145.153275,5255.462188,-8044.002729
136.748099,3182.885551,5995.668130,-10342.289223
136.748409,4589.276840,7328.038826,-6665.030833
136.748718,1480.411884,9770.718434,-1608.800546
136.749028,-740.205942,4663.297435,6052.154434
136.749337,296.082377,8364.327145,10495.508323
136.749647,-222.061783,4663.297435,9882.631924
136.749957,-6957.935855,2294.638420,5439.278036
136.750266,-1110.308913,7920.203579,-2911.162892
136.750576,7698.141797,15322.262999,-17926.634653
136.750885,-3256.906145,11843.295072,-12410.747068
136.751195,-2738.761985,18727.210333,842.705048
136.751505,-2072.576638,13915.871710,76.609550
136.751814,-148.041188,13323.706956,919.314598
136.752124,-3701.029710,10066.800811,13483.280765
136.752433,-4589.276840,7179.997637,1378.971896
136.752743,8512.368333,5403.503377,-16624.272307
136.753052,1776.494261,6809.894666,-12410.747068
136.753362,222.061783,9992.780217,-2145.067394
136.753672,1480.411884,9918.759623,153.219100
136.753981,5699.585753,12731.542202,1225.752797
136.754291,-2294.638420,6217.729913,11491.432470
136.754600,-4441.235652,9474.636058,11414.822920
136.754910,-74.020594,888.247130,-2451.505594
136.755220,9104.533087,6439.791695,-13942.938064
136.755529,4811.338623,7476.080014,-10112.460574
136.755839,-3627.009116,13619.789333,-459.657299
136.756148,1628.453072,10436.903782,5056.230287
136.756458,518.144159,13989.892304,2604.724693
136.756767,-5625.565159,15914.427753,4826.401637
136.757077,-6661.853478,9252.574275,5975.544884
136.757387,666.185348,10214.842000,-10572.117872
136.757696,1628.453072,12361.439231,-18692.730151
136.758006,222.061783,15248.242405,-9806.022374
136.758315,-222.061783,11029.068536,-3370.820191
136.758625,2220.617826,8660.409521,2374.896044
136.758934,-3997.112087,9326.594869,11874.480219
136.759244,-666.185348,9622.677246,12563.966167
136.759554,1628.453072,4589.276840,-536.266849
136.759863,1258.350101,2960.823768,-10342.289223
136.760173,2738.761985,2368.659014,-12334.137518
136.760482,962.267725,7920.203579,-8273.831378
136.760792,1184.329507,7179.997637,1225.752797
136.761102,1110.308913,8956.491898,4596.572988
136.761411,518.144159,8808.450710,10495.508323
136.761721,-4367.215058,9548.656652,9652.803275
136.762030,-2072.576638,8216.285956,1762.019645
136.762340,2442.679609,10436.903782,-14096.157163
136.762649,666.185348,12139.377449,-22369.988542
136.762959,-6217.729913,17987.004391,-5209.449386
136.763269,7031.956449,18135.045579,-1915.238745
136.763578,1850.514855,14211.954086,-2604.724693
136.763888,-6513.812290,13175.665768,12027.699319
136.764197,-3182.885551,8438.347739,12870.404366
136.764507,7328.038826,3775.050304,-9039.926876
136.764817,3330.926739,5107.421000,-15628.348159
136.765126,-4071.132681,7328.038826,2298.286494
136.765436,-0.000000,9252.574275,-612.876398
136.765745,9178.553681,8364.327145,-10955.165621
136.766055,-3256.906145,7476.080014,6665.030833
136.766364,-9992.780217,10584.944971,21450.673944
136.766674,3256.906145,3182.885551,-3600.648841
136.766984,6365.771101,6143.709319,-18462.901502
136.767293,-4737.318029,7105.977043,4213.525239
136.767603,-1258.350101,12361.439231,3830.477490
136.767912,5181.441594,8216.285956,-9422.974625
136.768222,-962.267725,14211.954086,536.266849
136.768532,-9400.615463,13101.645173,12410.747068
136.768841,-5625.565159,13101.645173,1149.143247
136.769151,4145.153275,12657.521608,-10801.946522
136.769460,222.061783,14359.995275,-11721.261119
136.769770,-518.144159,9326.594869,-9116.536426
136.770079,-2812.782580,7179.997637,-2145.067394
136.770389,6513.812290,8290.306550,2911.162892
136.770699,1776.494261,6291.750507,7431.126331
136.771008,-4737.318029,7920.203579,13866.328514
136.771318,1628.453072,5033.400406,9039.926876
136.771627,5033.400406,3627.009116,-9576.193725
136.771937,2516.700203,6291.750507,-14325.985813
136.772247,-4441.235652,12583.501014,-2451.505594
136.772556,3627.009116,13915.871710,-2987.772442
136.772866,8956.491898,11251.130318,-6818.249932
136.773175,-5921.647536,7105.977043,6205.373534
136.773485,-5847.626942,13027.624579,14096.157163
136.773794,1332.370696,8956.491898,536.266849
136.774104,-2368.659014,6809.894666,-13866.328514
136.774414,-1480.411884,11843.295072,-7967.393179
136.774723,-4663.297435,14137.933492,-7660.954980
136.775033,7402.059420,13175.665768,-11951.089769
136.775342,-4293.194464,13027.624579,536.266849
136.775652,-4515.256246,11621.233289,10495.508323
136.775961,2590.720797,5773.606348,1149.143247
136.776271,1628.453072,4441.235652,-3294.210641
136.776581,-2368.659014,2960.823768,-919.314598
136.776890,444.123565,1406.391290,-5592.497135
136.777200,6439.791695,6661.853478,-9806.022374
136.777509,2516.700203,7105.977043,-3983.696590
136.777819,-5033.400406,6217.729913,7201.297681
136.778129,-3923.091493,11769.274478,7584.345430
136.778438,2220.617826,7550.100608,-3907.087040
136.778748,4663.297435,10584.944971,-9039.926876
136.779057,-3849.070898,11991.336260,-3064.381992
136.779367,-6143.709319,11843.295072,-459.657299
136.779676,3478.967927,7624.121203,-5515.887586
136.779986,3034.844362,12287.418637,-5515.887586
136.780296,-5255.462188,13397.727550,3447.429741
136.780605,-5255.462188,14211.954086,3753.867940
136.780915,888.247130,11769.274478,-6588.421283
136.781224,5107.421000,9104.533087,-13789.718964
136.781534,-962.267725,10214.842000,-4213.525239
136.781844,-2516.700203,5699.585753,536.266849
136.782153,4071.132681,5551.544565,-1149.143247
136.782463,-1036.288319,8142.265362,2298.286494
136.782772,296.082377,7920.203579,5132.839837
136.783082,888.247130,6513.812290,536.266849
136.783391,3701.029710,8290.306550,-7584.345430
136.783701,-2442.679609,4885.359217,-6971.469032
136.784011,-3182.885551,10732.986159,1762.019645
136.784320,370.102971,5255.462188,842.705048
136.784630,4737.318029,9622.677246,-5056.230287
136.784939,-4589.276840,11399.171507,-383.047749
136.785249,-4589.276840,13693.809927,7354.516781
136.785559,518.144159,9770.718434,-1149.143247
136.785868,4367.215058,11843.295072,-14555.814462
136.786178,1924.535449,9474.636058,-6052.154434
136.786487,-7105.977043,12879.583391,2987.772442
136.786797,2664.741391,10066.800811,459.657299
136.787106,1480.411884,11399.171507,-2681.334243
136.787416,-1628.453072,12657.521608,1608.800546
136.787726,-1628.453072,5847.626942,1532.190996
136.788035,2812.782580,8734.430116,-5132.839837
136.788345,2442.679609,10362.883188,-7354.516781
136.788654,666.185348,10584.944971,0.000000
136.788964,3478.967927,9696.697840,-1149.143247
136.789274,2812.782580,9104.533087,-2221.676944
136.789583,-5181.441594,9844.739029,4443.353888
136.789893,-1332.370696,11621.233289,3830.477490
136.790202,2368.659014,9030.512492,-7277.907231
136.790512,4737.318029,10658.965565,-10189.070123
136.790821,-1184.329507,11103.089130,-2528.115143
136.791131,-4737.318029,12065.356855,-2528.115143
136.791441,6587.832884,11029.068536,-612.876398
136.791750,1702.473667,8660.409521,-1378.971896
136.792060,-8734.430116,9992.780217,7124.688131
136.792369,-4811.338623,15174.221811,2911.162892
136.792679,7254.018232,8734.430116,-14709.033562
136.792989,6883.915261,9770.718434,-15628.348159
136.793298,-6883.915261,12731.542202,2911.162892
136.793608,-2146.597232,11621.233289,4826.401637
136.793917,8216.285956,4293.194464,-4443.353888
136.794227,-444.123565,4441.235652,3217.601092
136.794536,-9622.677246,7402.059420,16700.881856
136.794846,-2146.597232,4885.359217,1762.019645
136.795156,11991.336260,10955.047942,-20378.140247
136.795465,-0.000000,8660.409521,-12640.575717
136.795775,-5847.626942,11251.130318,6052.154434
136.796084,-222.061783,7550.100608,536.266849
136.796394,3775.050304,10658.965565,-4903.011187
136.796703,-7105.977043,10436.903782,8044.002729
136.797013,-5847.626942,9474.636058,9422.974625
136.797323,4071.132681,10362.883188,-7890.783629
136.797632,3701.029710,12435.459826,-15475.129060
136.797942,-2738.761985,12583.501014,-5515.887586
136.798251,-5921.647536,9400.615463,842.705048
136.798561,2886.803174,11843.295072,-1302.362347
136.798871,2368.659014,11769.274478,-1608.800546
136.799180,-8512.368333,11029.068536,7814.174080
136.799490,-0.000000,6957.935855,2604.724693
136.799799,6439.791695,2220.617826,-9959.241474
136.800109,2738.761985,7179.997637,-9269.755526
136.800418,-3552.988522,9770.718434,2834.553343
136.800728,1850.514855,7254.018232,1685.410096
136.801038,5107.421000,9104.533087,-2374.896044
136.801347,-4145.153275,7920.203579,4519.963438
136.801657,-7031.956449,12065.356855,5209.449386
136.801966,-296.082377,7846.182985,-3294.210641
136.802276,7254.018232,11325.150913,-16011.395908
136.802586,-74.020594,12435.459826,-14172.766713
136.802895,-3108.864956,10140.821405,2987.772442
136.803205,1702.473667,7994.224174,4136.915689
136.803514,-2886.803174,7994.224174,919.314598
136.803824,-3182.885551,11843.295072,9269.755526
136.804133,740.205942,7846.182985,1762.019645
136.804443,8438.347739,9252.574275,-19305.606550
136.804753,2368.659014,11177.109724,-15475.129060
136.805062,-6587.832884,5847.626942,3830.477490
136.805372,1924.535449,6957.935855,2451.505594
136.805681,5699.585753,6883.915261,-1608.800546
136.805991,-4367.215058,7920.203579,10878.556072
136.806301,-5403.503377,8734.430116,12104.308868
136.806610,3923.091493,9548.656652,-9039.926876
136.806920,8290.306550,8216.285956,-18922.558801
136.807229,-592.164754,10140.821405,-9806.022374
136.807539,-4219.173869,11325.150913,1915.238745
136.807848,1850.514855,9178.553681,2374.896044
136.808158,3182.885551,9696.697840,1762.019645
136.808468,-4589.276840,11843.295072,12717.185267
136.808777,-3108.864956,10658.965565,10418.898773
136.809087,7179.997637,8956.491898,-14555.814462
136.809396,2072.576638,7402.059420,-18309.682402
136.809706,-3923.091493,14063.912898,-383.047749
136.810016,-518.144159,9918.759623,-383.047749
136.810325,6291.750507,12361.439231,-6435.202183
136.810635,-5255.462188,13471.748144,8350.440928
136.810944,-6069.688724,9178.553681,14709.033562
136.811254,2146.597232,6661.853478,-5822.325785
136.811563,3849.070898,4071.132681,-12717.185267
136.811873,1110.308913,5699.585753,-5975.544884
136.812183,-1406.391290,8142.265362,-3370.820191
136.812492,3627.009116,9992.780217,2068.457845
136.812802,444.123565,8290.306550,5362.668486
136.813111,-4145.153275,7994.224174,7507.735880
136.813421,-4293.194464,8660.409521,6511.811733
136.813730,-2664.741391,6661.853478,-3217.601092
136.814040,6143.709319,13841.851115,-15321.909960
136.814350,2738.761985,10362.883188,-17083.929605
136.814659,-5625.565159,12805.562797,536.266849
136.814969,2516.700203,10881.027347,6588.421283
136.815278,740.205942,8512.368333,2451.505594
136.815588,-8734.430116,13989.892304,14785.643111
136.815898,-4589.276840,11843.295072,8273.831378
136.816207,8216.285956,8660.409521,-20914.407095
136.816517,6661.853478,10288.862594,-22523.207641
136.816826,-8364.327145,8142.265362,766.095498
136.817136,1110.308913,11473.192101,2068.457845
136.817445,5921.647536,7698.141797,-4673.182538
136.817755,-2072.576638,5403.503377,11797.870669
136.818065,-8882.471304,6513.812290,19765.263848
136.818374,2368.659014,3478.967927,-2068.457845
136.818684,7179.997637,4589.276840,-17160.539155
136.818993,1554.432478,9918.759623,-10112.460574
136.819303,-222.061783,12657.521608,-5592.497135
136.819613,-2590.720797,10658.965565,1225.752797
136.819922,2368.659014,15322.262999,4060.306139
136.820232,-2664.741391,11769.274478,8580.269578
136.820541,-3997.112087,11103.089130,6281.983084
136.820851,1258.350101,7105.977043,-3140.991542
136.821160,4737.318029,4811.338623,-16471.053207
136.821470,-1850.514855,10066.800811,-7814.174080
136.821780,-5403.503377,11769.274478,2145.067394
136.822089,5551.544565,9474.636058,-3830.477490
136.822399,1850.514855,11399.171507,-4290.134789
136.822708,-8512.368333,9696.697840,13100.233016
136.823018,-1850.514855,9474.636058,6665.030833
136.823328,9178.553681,3108.864956,-16164.615008
136.823637,1554.432478,4145.153275,-10725.336972
136.823947,-7550.100608,8956.491898,9116.536426
136.824256,3108.864956,7846.182985,-842.705048
136.824566,6439.791695,9918.759623,-9499.584175
136.824875,-370.102971,11991.336260,4366.744339
136.825185,-6513.812290,10658.965565,10189.070123
136.825495,444.123565,9548.656652,-2221.676944
136.825804,7254.018232,10658.965565,-13330.061665
136.826114,-1332.370696,6957.935855,-7507.735880
136.826423,-1628.453072,12361.439231,2068.457845
136.826733,1110.308913,12509.480420,-383.047749
136.827043,2220.617826,5551.544565,-1685.410096
136.827352,-2886.803174,16358.551318,6511.811733
136.827662,-6735.874072,14063.912898,7124.688131
136.827971,10732.986159,6809.894666,-11108.384721
136.828281,4071.132681,5107.421000,-11874.480219
136.828590,-4515.256246,8734.430116,-536.266849
136.828900,-962.267725,9030.512492,5515.887586
136.829210,5477.523971,7105.977043,-1149.143247
136.829519,-296.082377,6809.894666,4596.572988
136.829829,-4811.338623,10955.047942,11644.651570
136.830138,1258.350101,9030.512492,-4443.353888
136.830448,9548.656652,6439.791695,-16164.615008
136.830758,-1480.411884,9030.512492,-8580.269578
136.831067,-7105.977043,10436.903782,-76.609550
136.831377,518.144159,7402.059420,-612.876398
136.831686,3775.050304,8734.430116,-612.876398
136.831996,-4885.359217,10362.883188,5592.497135
136.832305,-3256.906145,10881.027347,7584.345430
136.832615,6587.832884,8290.306550,-7507.735880
136.832925,5625.565159,7920.203579,-14019.547613
136.833234,-6439.791695,10955.047942,0.000000
136.833544,-5181.441594,9992.780217,3294.210641
136.833853,5995.668130,9252.574275,-8044.002729
136.834163,1332.370696,11325.150913,-4826.401637
136.834472,-9992.780217,12139.377449,12334.137518
136.834782,2368.659014,9918.759623,536.266849
136.835092,8512.368333,5255.462188,-16394.443657
136.835401,-1554.432478,9548.656652,-11721.261119
136.835711,-5699.585753,7550.100608,10265.679673
136.836020,3627.009116,10807.006753,3064.381992
136.836330,6439.791695,9178.553681,-3447.429741
136.836640,-1998.556043,10881.027347,4673.182538
136.836949,-7476.080014,14211.954086,5822.325785
136.837259,222.061783,6513.812290,-5669.106685
136.837568,5329.482782,9474.636058,-12257.527968
136.837878,-1924.535449,12361.439231,-3983.696590
136.838187,-3997.112087,12657.521608,2834.553343
136.838497,-0.000000,8956.491898,1072.533697
136.838807,222.061783,9474.636058,-766.095498
136.839116,-4737.318029,11991.336260,4366.744339
136.839426,-2368.659014,10436.903782,1225.752797
136.839735,5921.647536,13693.809927,-10112.460574
136.840045,5551.544565,10140.821405,-10572.117872
136.840355,-4737.318029,8660.409521,4979.620737
136.840664,-2294.638420,6957.935855,7967.393179
136.840974,3478.967927,4737.318029,-1991.848295
136.841283,-2664.741391,5847.626942,459.657299
136.841593,-2886.803174,11695.253884,6052.154434
136.841902,1628.453072,6957.935855,-7354.516781
136.842212,7624.121203,9696.697840,-11797.870669
136.842522,-2738.761985,12805.562797,-4596.572988
136.842831,-2368.659014,10658.965565,229.828649
136.843141,888.247130,12953.603985,1149.143247
136.843450,592.164754,11917.315666,1455.581446
136.843760,-814.226536,11621.233289,3140.991542
136.844069,4145.153275,12953.603985,-2528.115143
136.844379,4737.318029,6291.750507,-6588.421283
136.844688,740.205942,6957.935855,-2911.162892
136.844998,-7550.100608,9400.615463,6052.154434
136.845307,296.082377,11769.274478,3753.867940
136.845617,6661.853478,11325.150913,-8656.879127
136.845926,3997.112087,11103.089130,-3294.210641
136.846236,-7179.997637,10288.862594,7354.516781
136.846545,-148.041188,4589.276840,-1608.800546
136.846854,5773.606348,7254.018232,-11261.603821
136.847164,-518.144159,6513.812290,-2834.553343
136.847473,-5921.647536,7402.059420,8197.221829
136.847783,2368.659014,12879.583391,2451.505594
136.848092,6365.771101,11695.253884,-5515.887586
136.848402,592.164754,10955.047942,-842.705048
136.848711,-6291.750507,7402.059420,6205.373534
136.849021,-1554.432478,6143.709319,0.000000
136.849330,8290.306550,8142.265362,-10495.508323
136.849640,-2664.741391,8808.450710,-4290.134789
136.849949,-5773.606348,14730.098246,9346.365076
136.850259,3775.050304,10436.903782,1225.752797
136.850568,7105.977043,6439.791695,-10035.851024
136.850878,-6809.894666,13323.706956,1225.752797
136.851187,-3627.009116,9252.574275,9499.584175
136.851497,4959.379811,11621.233289,-7967.393179
136.851806,5921.647536,12879.583391,-13330.061665
136.852116,-5181.441594,13693.809927,4290.134789
136.852425,888.247130,10584.944971,6205.373534
136.852735,6291.750507,2886.803174,-4136.915689
136.853044,-1258.350101,7254.018232,2145.067394
136.853353,-7254.018232,7105.977043,11184.994271
136.853663,1554.432478,5255.462188,-2451.505594
136.853972,5255.462188,11991.336260,-14172.766713
136.854282,-740.205942,11325.150913,-3907.087040
136.854591,-1924.535449,10658.965565,919.314598
136.854901,-1110.308913,8512.368333,153.219100
136.855210,4737.318029,8290.306550,995.924147
136.855520,-2812.782580,7105.977043,2528.115143
136.855829,-3552.988522,12657.521608,3217.601092
136.856139,2738.761985,11029.068536,-1991.848295
136.856448,2146.597232,8142.265362,-5515.887586
136.856758,-6735.874072,14878.139434,-842.705048
136.857067,-3330.926739,13175.665768,1378.971896
136.857377,5107.421000,10881.027347,-6971.469032
136.857686,1184.329507,9844.739029,-7431.126331
136.857996,-8808.450710,10362.883188,7967.393179
136.858305,1628.453072,8734.430116,1532.190996
136.858615,8438.347739,4663.297435,-14402.595362
136.858924,-2220.617826,8290.306550,-2068.457845
136.859234,-6587.832884,3478.967927,14709.033562
136.859543,5477.523971,5847.626942,1225.752797
136.859852,9326.594869,7772.162391,-8580.269578
136.860162,-444.123565,9030.512492,4826.401637
136.860471,-6513.812290,10288.862594,8044.002729
136.860781,-0.000000,10214.842000,-6511.811733
136.861090,8142.265362,11843.295072,-7124.688131
136.861400,-4441.235652,12657.521608,-1762.019645
136.861709,814.226536,12287.418637,2451.505594
136.862019,4219.173869,10066.800811,0.000000
136.862328,2886.803174,8956.491898,-2834.553343
136.862638,-8290.306550,12805.562797,6971.469032
136.862947,-5329.482782,9622.677246,7737.564530
136.863257,3478.967927,11029.068536,-7124.688131
136.863566,2146.597232,13471.748144,-14479.204912
136.863876,-3034.844362,9770.718434,306.438199
136.864185,-2812.782580,6587.832884,3753.867940
136.864495,3330.926739,6365.771101,-1072.533697
136.864804,3627.009116,6291.750507,2221.676944
136.865114,-6809.894666,3108.864956,11491.432470
136.865423,-1406.391290,8216.285956,4903.011187
136.865733,5107.421000,7328.038826,-4366.744339
136.866042,-74.020594,10658.965565,-9269.755526
136.866351,-0.000000,11843.295072,-6588.421283
136.866661,-814.226536,11103.089130,-4136.915689
136.866970,222.061783,10732.986159,-306.438199
136.867280,-3775.050304,11251.130318,6588.421283
136.867589,-74.020594,11991.336260,3677.258390
136.867899,1184.329507,11695.253884,-1991.848295
136.868208,2146.597232,11251.130318,-6128.763984
136.868518,-444.123565,11325.150913,-3753.867940
136.868827,-1258.350101,15914.427753,-3217.601092
136.869137,4589.276840,9252.574275,-4749.792088
136.869446,2664.741391,11621.233289,-1532.190996
136.869756,-7698.141797,11029.068536,7354.516781
136.870065,-814.226536,6143.709319,3447.429741
136.870375,2664.741391,4885.359217,-8503.660028
136.870684,814.226536,5477.523971,-6435.202183
136.870994,-3849.070898,6217.729913,3217.601092
136.871303,4737.318029,9030.512492,-2221.676944
136.871613,6513.812290,8216.285956,-5975.544884
136.871922,-3108.864956,9178.553681,5592.497135
136.872232,-7402.059420,8882.471304,14096.157163
136.872541,-3478.967927,8882.471304,-1072.533697
136.872850,3034.844362,9844.739029,-12257.527968
136.873160,-2886.803174,12583.501014,-5898.935335
136.873469,-444.123565,11029.068536,-536.266849
136.873779,1998.556043,10214.842000,-4060.306139
136.874088,1480.411884,9844.739029,0.000000
136.874398,-6587.832884,11769.274478,8197.221829
136.874707,-4219.173869,8290.306550,5132.839837
136.875017,2812.782580,10140.821405,-4979.620737
136.875326,888.247130,11399.171507,-10572.117872
136.875636,-1036.288319,9104.533087,-7507.735880
136.875945,-1110.308913,7698.141797,-1762.019645
136.876255,4811.338623,7550.100608,0.000000
136.876564,370.102971,2886.803174,2834.553343
136.876874,-5255.462188,9992.780217,10725.336972
136.877183,888.247130,6957.935855,5132.839837
136.877493,1628.453072,7846.182985,-5439.278036
136.877802,-0.000000,10955.047942,-6128.763984
136.878112,-0.000000,12583.501014,-6128.763984
136.878421,-1554.432478,15174.221811,-8733.488677
136.878730,3923.091493,10807.006753,-3294.210641
136.879040,-2072.576638,11177.109724,2145.067394
136.879349,-4589.276840,11547.212695,9269.755526
136.879659,2220.617826,10362.883188,4826.401637
136.879968,1850.514855,6661.853478,-6511.811733
136.880278,-3182.885551,11695.253884,-4979.620737
136.880587,-962.267725,8660.409521,0.000000
136.880897,1998.556043,11991.336260,-9422.974625
136.881206,5995.668130,11991.336260,-9269.755526
136.881516,-5625.565159,7402.059420,5745.716235
136.881825,-7624.121203,6143.709319,8656.879127
136.882135,4071.132681,6439.791695,-1532.190996
136.882444,3627.009116,3552.988522,-6128.763984
136.882754,-3256.906145,5403.503377,1378.971896
136.883063,3108.864956,7846.182985,0.000000
136.883373,5847.626942,4293.194464,-8733.488677
136.883682,-370.102971,11251.130318,-2451.505594
136.883992,-5255.462188,10881.027347,5822.325785
136.884301,-592.164754,8808.450710,-689.485948
136.884611,-0.000000,12065.356855,-4903.011187
136.884920,-2368.659014,13915.871710,-2145.067394
136.885229,962.267725,10362.883188,-3983.696590
136.885539,2590.720797,8660.409521,-6665.030833
136.885848,4367.215058,8364.327145,-4519.963438
136.886158,-2516.700203,10881.027347,3830.477490
136.886467,-2960.823768,9252.574275,5822.325785
136.886777,2738.761985,10288.862594,689.485948
136.887086,814.226536,11103.089130,-5515.887586
136.887396,-4071.132681,9474.636058,-1991.848295
136.887705,1184.329507,8512.368333,-3907.087040
136.888015,4737.318029,7624.121203,-10878.556072
136.888324,-1628.453072,6143.709319,-1225.752797
136.888634,-6587.832884,5255.462188,9499.584175
136.888943,-74.020594,8216.285956,3447.429741
136.889253,2294.638420,4959.379811,-2298.286494
136.889562,-2368.659014,9770.718434,2681.334243
136.889872,666.185348,13249.686362,766.095498
136.890181,3108.864956,9326.594869,-9116.536426
136.890491,1184.329507,7105.977043,-6128.763984
136.890800,-7402.059420,10955.047942,3370.820191
136.891110,1258.350101,9178.553681,-689.485948
136.891419,1776.494261,11695.253884,-3983.696590
136.891728,-2516.700203,11325.150913,229.828649
136.892038,-4737.318029,9474.636058,2451.505594
136.892347,-1776.494261,9474.636058,-2681.334243
136.892657,6069.688724,9030.512492,-7967.393179
136.892966,2516.700203,11251.130318,-4519.963438
136.893276,-4811.338623,11917.315666,3370.820191
136.893585,-2294.638420,8808.450710,1302.362347
136.893895,3034.844362,9030.512492,-3294.210641
136.894204,-0.000000,9918.759623,-4060.306139
136.894514,-4293.194464,4737.318029,2451.505594
136.894823,1998.556043,11177.109724,-229.828649
136.895133,4737.318029,8364.327145,-5439.278036
136.895442,-814.226536,9622.677246,-4826.401637
136.895752,-6291.750507,11473.192101,2528.115143
136.896061,-1110.308913,11399.171507,-2145.067394
136.896371,3701.029710,7846.182985,-5439.278036
136.896680,-2146.597232,11769.274478,-995.924147
136.896990,962.267725,15100.201217,-1608.800546
136.897299,-1258.350101,10658.965565,-3600.648841
136.897609,-0.000000,5847.626942,612.876398
136.897918,-4367.215058,9992.780217,2987.772442
136.898227,592.164754,7031.956449,-4596.572988
136.898537,1184.329507,9918.759623,-6358.592633
136.898846,222.061783,10436.903782,-6358.592633
136.899156,-888.247130,7179.997637,-1302.362347
136.899465,-1258.350101,10436.903782,-229.828649
136.899775,1036.288319,4737.318029,459.657299
136.900084,-296.082377,7550.100608,3677.258390
136.900394,-2590.720797,6365.771101,4443.353888
136.900703,814.226536,6587.832884,-3447.429741
136.901013,2590.720797,7994.224174,-6511.811733
136.901322,-2664.741391,10288.862594,-3294.210641
136.901632,1628.453072,11769.274478,-2604.724693
136.901941,1924.535449,13397.727550,-4519.963438
136.902251,-1036.288319,11695.253884,-1685.410096
136.902560,-666.185348,11695.253884,4366.744339
136.902870,-1480.411884,10066.800811,1532.190996
136.903179,2960.823768,11695.253884,-2681.334243
136.903489,-296.082377,3478.967927,-1762.019645
136.903798,-4293.194464,11325.150913,-612.876398
136.904108,3108.864956,11695.253884,-3140.991542
136.904417,592.164754,10066.800811,-7048.078582
136.904726,1480.411884,10436.903782,-5362.668486
136.905036,-3997.112087,9770.718434,919.314598
136.905345,2368.659014,14285.974681,995.924147
136.905655,-222.061783,5329.482782,-3447.429741
136.905964,1258.350101,6513.812290,-3753.867940
136.906274,-2886.803174,5921.647536,3677.258390
136.906583,518.144159,3627.009116,1455.581446
136.906893,3997.112087,9844.739029,-5286.058936
136.907202,-2072.576638,9770.718434,-1838.629195
136.907512,-3849.070898,8216.285956,3140.991542
136.907821,1554.432478,13619.789333,-919.314598
136.908131,666.185348,9622.677246,-5822.325785
136.908440,-1924.535449,10732.986159,-4290.134789
136.908750,2220.617826,11177.109724,-4136.915689
136.909059,1184.329507,10066.800811,-3294.210641
136.909369,-518.144159,9918.759623,3217.601092
136.909678,-2886.803174,11325.150913,6818.249932
136.909988,-1258.350101,14211.954086,0.000000
136.910297,-1258.350101,10658.965565,-2604.724693
136.910607,1628.453072,8290.306550,-5822.325785
136.910916,1776.494261,10807.006753,-8120.612279
136.911225,1258.350101,11103.089130,-6511.811733
136.911535,2960.823768,7031.956449,842.705048
136.911844,-1258.350101,7846.182985,3370.820191
136.912154,-2886.803174,6883.915261,3983.696590
136.912463,-2368.659014,5699.585753,4519.963438
136.912773,4071.132681,3701.029710,-2528.115143
136.913082,2368.659014,5847.626942,-6741.640382
136.913392,-3330.926739,7105.977043,-1149.143247
136.913701,962.267725,11473.192101,-1608.800546
136.914011,-0.000000,9474.636058,-3753.867940
136.914320,-2146.597232,12731.542202,2911.162892
136.914630,-4071.132681,14285.974681,6511.811733
136.914939,-2368.659014,12583.501014,-3294.210641
136.915249,3478.967927,8882.471304,-5898.935335
136.915558,-2516.700203,9918.759623,-3677.258390
136.915868,592.164754,12361.439231,-3524.039291
136.916177,2738.761985,8142.265362,-2451.505594
136.916487,-2072.576638,11177.109724,995.924147
136.916796,-4515.256246,9770.718434,4519.963438
136.917105,-2442.679609,7920.203579,229.828649
136.917415,1554.432478,6587.832884,-4136.915689
136.917724,4515.256246,8068.244768,-5362.668486
136.918034,2516.700203,8512.368333,-3064.381992
136.918343,-1628.453072,7031.956449,0.000000
136.918653,2590.720797,7328.038826,3600.648841
136.918962,-0.000000,7772.162391,1455.581446
136.919272,-4145.153275,11029.068536,0.000000
136.919581,518.144159,11103.089130,-6205.373534
136.919891,1702.473667,11547.212695,-8503.660028
136.920200,-1332.370696,14434.015869,-9193.145976
136.920510,1480.411884,13323.706956,-3524.039291
136.920819,-296.082377,9104.533087,-2681.334243
136.921129,5699.585753,9400.615463,229.828649
136.921438,-4145.153275,9918.759623,8120.612279
136.921748,-2220.617826,10584.944971,5209.449386
136.922057,4737.318029,8808.450710,-5822.325785
136.922367,1184.329507,8512.368333,-7124.688131
136.922676,-2516.700203,8956.491898,-2681.334243
136.922986,2886.803174,3849.070898,-5669.106685
136.923295,3108.864956,7550.100608,-4060.306139
136.923604,-3627.009116,9622.677246,4979.620737
136.923914,-7179.997637,6143.709319,9116.536426
136.924223,3108.864956,10288.862594,-2757.943793
136.924533,2368.659014,7476.080014,-9116.536426
136.924842,962.267725,11547.212695,-3907.087040
136.925152,-0.000000,8364.327145,306.438199
136.925461,740.205942,11103.089130,-4060.306139
136.925771,3478.967927,8216.285956,-919.314598
136.926080,-6439.791695,7772.162391,7354.516781
136.926390,-4071.132681,10807.006753,6128.763984
136.926699,3330.926739,13767.830521,-7354.516781
136.927009,1628.453072,12435.459826,-9422.974625
136.927318,-1036.288319,12805.562797,-5898.935335
136.927628,-1258.350101,9178.553681,-5975.544884
136.927937,1998.556043,9178.553681,-4596.572988
136.928247,3108.864956,5995.668130,7507.735880
136.928556,-6365.771101,7031.956449,11338.213370
136.928866,370.102971,8216.285956,3600.648841
136.929175,2146.597232,5625.565159,-3600.648841
136.929485,1110.308913,8956.491898,-5132.839837
136.929794,888.247130,5329.482782,-6205.373534
136.930103,1924.535449,10955.047942,-7048.078582
136.930413,-518.144159,10436.903782,612.876398
136.930722,-1998.556043,9622.677246,6818.249932
136.931032,1184.329507,8586.388927,3524.039291
136.931341,-0.000000,9844.739029,-4366.744339
136.931651,-444.123565,9622.677246,-1991.848295
136.931960,-2442.679609,9474.636058,-2987.772442
136.932270,4219.173869,11621.233289,-8580.269578
136.932579,-444.123565,15174.221811,-2298.286494
136.932889,-370.102971,8586.388927,5745.716235
136.933198,-1036.288319,11251.130318,7124.688131
136.933508,2442.679609,12065.356855,1991.848295
136.933817,-3997.112087,9622.677246,1532.190996
136.934127,-1776.494261,9030.512492,-1455.581446
136.934436,2738.761985,9104.533087,-8733.488677
136.934746,1628.453072,11991.336260,-13100.233016
136.935055,740.205942,8142.265362,-3524.039291
136.935365,-2516.700203,9548.656652,5362.668486
136.935674,-1406.391290,4589.276840,9652.803275
136.935984,-0.000000,7254.018232,6665.030833
136.936293,2220.617826,7846.182985,-1608.800546
136.936602,-1702.473667,8734.430116,-6435.202183
136.936912,3256.906145,2738.761985,-5362.668486
136.937221,-740.205942,11991.336260,-4136.915689
136.937531,5921.647536,12213.398043,-2757.943793
136.937840,-3108.864956,9622.677246,1608.800546
136.938150,-1776.494261,13101.645173,9346.365076
136.938459,-3849.070898,11991.336260,3983.696590
136.938769,2368.659014,5921.647536,-3140.991542
136.939078,-2072.576638,10510.924376,-4136.915689
136.939388,2368.659014,13545.768739,-4979.620737
136.939697,-0.000000,8586.388927,-7277.907231
136.940007,1406.391290,11843.295072,-5898.935335
136.940316,-4589.276840,13175.665768,7048.078582
136.940626,518.144159,11399.171507,4673.182538
136.940935,4293.194464,8068.244768,-6588.421283
136.941245,370.102971,3404.947333,612.876398
136.941554,-2960.823768,3478.967927,8427.050478
136.941864,1184.329507,2590.720797,-3830.477490
136.942173,2664.741391,4885.359217,-9806.022374
136.942483,-2294.638420,8956.491898,-383.047749
136.942792,-888.247130,10066.800811,3447.429741
136.943101,4145.153275,13101.645173,-7814.174080
136.943411,2590.720797,10510.924376,-3524.039291
136.943720,-5699.585753,10807.006753,7967.393179
136.944030,1110.308913,13693.809927,-1302.362347
136.944339,4737.318029,11029.068536,-10112.460574
136.944649,-1036.288319,7698.141797,-612.876398
136.944958,-6957.935855,12657.521608,6818.249932
136.945268,3256.906145,12953.603985,-2987.772442
136.945577,2812.782580,11843.295072,-9346.365076
136.945887,-888.247130,12953.603985,383.047749
136.946196,-3627.009116,10881.027347,1991.848295
136.946505,5847.626942,8882.471304,-7124.688131
136.946815,2738.761985,7698.141797,-4903.011187
136.947124,-814.226536,7402.059420,5745.716235
136.947433,-0.000000,888.247130,6665.030833
136.947743,-444.123565,8512.368333,76.609550
136.948052,666.185348,3701.029710,-842.705048
136.948362,-296.082377,13545.768739,-2298.286494
136.948671,814.226536,13101.645173,-6511.811733
136.948980,-0.000000,10955.047942,-5362.668486
136.949290,2590.720797,8290.306550,-2145.067394
136.949599,-5033.400406,14285.974681,4136.915689
136.949908,-518.144159,11695.253884,2068.457845
136.950218,-740.205942,11029.068536,-1838.629195
136.950527,1480.411884,8808.450710,-2911.162892
136.950837,-1184.329507,11843.295072,2604.724693
136.951146,-296.082377,14508.036463,-3064.381992
136.951455,2590.720797,9104.533087,-8656.879127
136.951765,1184.329507,7031.956449,-1302.362347
136.952074,-7994.224174,10510.924376,6358.592633
136.952383,3034.844362,8512.368333,-1532.190996
136.952693,3775.050304,3923.091493,-8886.707777
136.953002,-2294.638420,7624.121203,995.924147
136.953311,-1554.432478,5477.523971,7660.954980
136.953621,2146.597232,2960.823768,-2451.505594
136.953930,1628.453072,9844.739029,-1532.190996
136.954240,-2146.597232,14359.995275,4443.353888
136.954549,2442.679609,10658.965565,76.609550
136.954858,1184.329507,10658.965565,-9193.145976
136.955168,592.164754,9918.759623,-2911.162892
136.955477,-3849.070898,12065.356855,612.876398
136.955786,4367.215058,7254.018232,-5515.887586
136.956096,1184.329507,11991.336260,-3677.258390
136.956405,-2960.823768,10214.842000,7967.393179
136.956715,-962.267725,9622.677246,6128.763984
136.957024,3404.947333,14285.974681,-6511.811733
136.957333,1110.308913,11177.109724,-8580.269578
136.957643,-444.123565,9474.636058,-1072.533697
136.957952,-2368.659014,8808.450710,-689.485948
136.958261,1258.350101,9992.780217,-5745.716235
136.958571,2294.638420,4589.276840,-1378.971896
136.958880,-3256.906145,6069.688724,7890.783629
136.959190,-1184.329507,7772.162391,9422.974625
136.959499,2442.679609,4663.297435,-612.876398
136.959808,814.226536,8290.306550,-8273.831378
136.960118,1184.329507,11399.171507,-3677.258390
136.960427,-3478.967927,8808.450710,-2681.334243
136.960736,-1036.288319,13693.809927,-5286.058936
136.961046,3775.050304,10584.944971,-3524.039291
136.961355,-4219.173869,11769.274478,2834.553343
136.961665,370.102971,15544.324782,5975.544884
136.961974,4441.235652,8142.265362,-1915.238745
136.962283,1406.391290,6217.729913,-2681.334243
136.962593,222.061783,6957.935855,4060.306139
136.962902,2960.823768,9622.677246,-4596.572988
136.963211,2738.761985,12361.439231,-9806.022374
136.963521,-444.123565,7402.059420,536.266849
136.963830,-3849.070898,11325.150913,5822.325785
136.964140,2442.679609,11029.068536,-2451.505594
136.964449,3182.885551,5033.400406,-5592.497135
136.964758,-2220.617826,9252.574275,153.219100
136.965068,444.123565,8438.347739,612.876398
136.965377,148.041188,7254.018232,-2451.505594
136.965686,1110.308913,7105.977043,-766.095498
136.965996,666.185348,12583.501014,2221.676944
136.966305,-1480.411884,9326.594869,2374.896044
136.966615,1184.329507,11177.109724,-3907.087040
136.966924,-148.041188,6439.791695,-5822.325785
136.967233,-3849.070898,9400.615463,-919.314598
136.967543,-1998.556043,8808.450710,0.000000
136.967852,3256.906145,12361.439231,-4749.792088
136.968161,2886.803174,74.020594,-5056.230287
136.968471,-5625.565159,10510.924376,11261.603821
136.968780,-3034.844362,11695.253884,3447.429741
136.969089,5847.626942,10807.006753,-12410.747068
136.969399,-444.123565,9326.594869,-7431.126331
136.969708,-2960.823768,9178.553681,229.828649
136.970018,962.267725,9252.574275,-4979.620737
136.970327,5329.482782,6957.935855,-4673.182538
136.970636,-4367.215058,8882.471304,9193.145976
136.970946,-5403.503377,7846.182985,9652.803275
136.971255,4071.132681,4515.256246,-3600.648841
136.971564,3404.947333,6957.935855,-7048.078582
136.971874,-444.123565,10658.965565,-2987.772442
136.972183,-2960.823768,8364.327145,-2834.553343
136.972493,962.267725,13989.892304,-1915.238745
136.972802,1554.432478,10066.800811,-3294.210641
136.973111,-2072.576638,10436.903782,2911.162892
136.973421,-2220.617826,10288.862594,4826.401637
136.973730,3182.885551,10732.986159,-3983.696590
136.974039,2368.659014,1628.453072,-919.314598
136.974349,-5107.421000,8956.491898,7124.688131
136.974658,1776.494261,12435.459826,-1838.629195
136.974968,3627.009116,10140.821405,-10801.946522
136.975277,2960.823768,8882.471304,-3217.601092
136.975586,-9178.553681,13027.624579,7354.516781
136.975896,370.102971,12361.439231,-2834.553343
136.976205,5107.421000,7920.203579,-11874.480219
136.976514,-518.144159,6587.832884,-1302.362347
136.976824,-1924.535449,7402.059420,7584.345430
136.977133,3849.070898,4515.256246,306.438199
136.977443,814.226536,4515.256246,-3677.258390
136.977752,-444.123565,8290.306550,6511.811733
136.978061,-3478.967927,9696.697840,3447.429741
136.978371,5107.421000,11843.295072,-6818.249932
136.978680,3849.070898,8660.409521,-9652.803275
136.978989,-6069.688724,13027.624579,-1378.971896
136.979299,1924.535449,11621.233289,612.876398
136.979608,4071.132681,11251.130318,-3447.429741
136.979918,-1184.329507,11399.171507,1991.848295
136.980227,-7476.080014,14508.036463,11338.213370
136.980536,2886.803174,9622.677246,-536.266849
136.980846,3034.844362,12139.377449,-14249.376263
136.981155,-518.144159,10658.965565,-6894.859482
136.981464,-5921.647536,9104.533087,153.219100
136.981774,5403.503377,10436.903782,-6205.373534
136.982083,4589.276840,7698.141797,-5515.887586
136.982393,-4811.338623,8882.471304,13100.233016
136.982702,-4811.338623,3108.864956,13713.109414
136.983011,4737.318029,4737.318029,-3600.648841
136.983321,6587.832884,5033.400406,-9576.193725
136.983630,-5699.585753,11029.068536,-995.924147
136.983939,-1406.391290,4515.256246,-2145.067394
136.984249,1702.473667,12509.480420,-7354.516781
136.984558,814.226536,17320.819043,-3217.601092
136.984868,-2368.659014,8142.265362,3294.210641
136.985177,-2368.659014,8734.430116,995.924147
136.985486,888.247130,10510.924376,-689.485948
136.985796,-3330.926739,9844.739029,-1685.410096
136.986105,444.123565,10288.862594,-3830.477490
136.986414,2812.782580,10214.842000,-4136.915689
136.986724,518.144159,16062.468941,-2528.115143
136.987033,5773.606348,9326.594869,0.000000
136.987342,-6513.812290,7179.997637,5439.278036
136.987652,-222.061783,11769.274478,2528.115143
136.987961,2590.720797,4293.194464,-4749.792088
136.988271,74.020594,4071.132681,-5286.058936
136.988580,-2516.700203,5107.421000,-995.924147
136.988889,1258.350101,10807.006753,-2834.553343
136.989199,5995.668130,6291.750507,-3753.867940
136.989508,-5255.462188,11177.109724,2374.896044
136.989817,-1480.411884,14137.933492,8197.221829
136.990127,4663.297435,10362.883188,-3907.087040
136.990436,-1702.473667,10510.924376,-8580.269578
136.990746,-1258.350101,8364.327145,-3294.210641
136.991055,-888.247130,9548.656652,-4673.182538
136.991364,814.226536,14063.912898,-3524.039291
136.991674,1036.288319,11103.089130,3217.601092
136.991983,-3627.009116,12583.501014,7124.688131
136.992292,-4145.153275,11917.315666,1685.410096
136.992602,3108.864956,7698.141797,-7890.783629
136.992911,-740.205942,7254.018232,-9806.022374
136.993221,-962.267725,9178.553681,-2757.943793
136.993530,148.041188,8956.491898,-1532.190996
136.993839,2072.576638,11695.253884,-5286.058936
136.994149,1406.391290,7031.956449,6741.640382
136.994458,-1776.494261,6217.729913,14862.252661
136.994767,1036.288319,10807.006753,1532.190996
136.995077,3478.967927,6439.791695,-8503.660028
136.995386,-3627.009116,9696.697840,-5439.278036
136.995696,-3330.926739,6513.812290,-3600.648841
136.996005,1776.494261,11843.295072,-7660.954980
136.996314,3552.988522,11251.130318,-5822.325785
136.996624,-5329.482782,13915.871710,7048.078582
136.996933,-2220.617826,9104.533087,8656.879127
136.997242,-1110.308913,10066.800811,-689.485948
136.997552,814.226536,11177.109724,-8120.612279
136.997861,888.247130,9030.512492,-2221.676944
136.998171,-2664.741391,9474.636058,-2298.286494
136.998480,4441.235652,11547.212695,-8580.269578
136.998789,1258.350101,7994.224174,-919.314598
136.999099,-5551.544565,8808.450710,8580.269578
136.999408,-0.000000,7031.956449,2451.505594
136.999717,1776.494261,4737.318029,-3370.820191
137.000027,-1628.453072,9252.574275,-2757.943793
137.000336,-1184.329507,7254.018232,-4903.011187
137.000646,2812.782580,7476.080014,-9269.755526
137.000955,-1184.329507,5847.626942,-4826.401637
137.001264,-2960.823768,12805.562797,4213.525239
137.001574,2368.659014,8734.430116,2145.067394
137.001883,3404.947333,13989.892304,-1532.190996
137.002192,-740.205942,8660.409521,-306.438199
137.002502,1554.432478,10288.862594,-3600.648841
137.002811,-3404.947333,7476.080014,-3294.210641
137.003121,2442.679609,16580.613101,-5898.935335
137.003430,3923.091493,11547.212695,-4290.134789
137.003739,-3775.050304,8882.471304,2987.772442
137.004049,-2442.679609,11917.315666,3370.820191
137.004358,-0.000000,6883.915261,-4290.134789
137.004667,-1036.288319,6365.771101,-8963.317327
137.004977,-5551.544565,7254.018232,459.657299
137.005286,-0.000000,8956.491898,-5209.449386
137.005595,4663.297435,10807.006753,-9806.022374
137.005905,1850.514855,9326.594869,1302.362347
137.006214,-1924.535449,6809.894666,10342.289223
137.006524,-1110.308913,7476.080014,2451.505594
137.006833,2146.597232,3330.926739,-2757.943793
137.007142,-814.226536,4515.256246,306.438199
137.007452,-3552.988522,10362.883188,-2221.676944
137.007761,1554.432478,10807.006753,-8273.831378
137.008070,-888.247130,11177.109724,-4290.134789
137.008380,-1554.432478,16654.633695,306.438199
137.008689,-148.041188,10066.800811,-3600.648841
137.008999,370.102971,12805.562797,-3447.429741
137.009308,592.164754,9918.759623,-306.438199
137.009617,-2368.659014,6513.812290,1455.581446
137.009927,-444.123565,10732.986159,1762.019645
137.010236,4959.379811,11325.150913,-3600.648841
137.010545,222.061783,4737.318029,-1915.238745
137.010855,-4885.359217,10066.800811,5745.716235
137.011164,-222.061783,11399.171507,1838.629195
137.011474,2738.761985,9844.739029,-10112.460574
137.011783,2072.576638,11325.150913,-7431.126331
137.012092,-4959.379811,6809.894666,1072.533697
137.012402,-814.226536,5847.626942,-1838.629195
137.012711,2738.761985,4737.318029,-3983.696590
137.013020,-3701.029710,8808.450710,5209.449386
137.013330,-222.061783,10214.842000,6435.202183
137.013639,4811.338623,9844.739029,-2681.334243
137.013949,1702.473667,11991.336260,-6128.763984
137.014258,-370.102971,12065.356855,-1378.971896
137.014567,-2368.659014,8512.368333,-3140.991542
137.014877,1406.391290,11991.336260,-3907.087040
137.015186,-1776.494261,9030.512492,0.000000
137.015495,-4959.379811,11695.253884,2221.676944
137.015805,370.102971,10066.800811,1225.752797
137.016114,666.185348,8142.265362,-3524.039291
137.016424,-518.144159,9622.677246,-8120.612279
137.016733,-2442.679609,11177.109724,-5362.668486
137.017042,1480.411884,9696.697840,-536.266849
137.017352,-444.123565,9770.718434,-3753.867940
137.017661,2368.659014,9548.656652,0.000000
137.017970,-1480.411884,2960.823768,4596.572988
137.018280,-666.185348,8142.265362,689.485948
137.018589,4367.215058,4145.153275,-2298.286494
137.018899,-3404.947333,11103.089130,-2068.457845
137.019208,-1702.473667,10510.924376,1762.019645
137.019517,1776.494261,9326.594869,-1149.143247
137.019827,2812.782580,8734.430116,-6818.249932
137.020136,-2516.700203,11029.068536,-4673.182538
137.020445,-1110.308913,7698.141797,-2757.943793
137.020755,-888.247130,9104.533087,-3447.429741
137.021064,2886.803174,9474.636058,536.266849
137.021374,-1554.432478,14508.036463,2604.724693
137.021683,1258.350101,13841.851115,766.095498
137.021992,2886.803174,12139.377449,-2604.724693
137.022302,962.267725,11695.253884,383.047749
137.022611,-2738.761985,4737.318029,-612.876398
137.022920,-1406.391290,6809.894666,-2834.553343
137.023230,1924.535449,7254.018232,-6281.983084
137.023539,-740.205942,6217.729913,-3217.601092
137.023848,-2664.741391,8216.285956,3907.087040
137.024158,1850.514855,8660.409521,-229.828649
137.024467,296.082377,7624.121203,-3447.429741
137.024777,-148.041188,8956.491898,2298.286494
137.025086,-2368.659014,7105.977043,1685.410096
137.025395,1332.370696,15026.180623,-5515.887586
137.025705,4737.318029,9030.512492,-5592.497135
137.026014,-1184.329507,11399.171507,-689.485948
137.026323,888.247130,13767.830521,-842.705048
137.026633,-1924.535449,14359.995275,-3140.991542
137.026942,-962.267725,9696.697840,1838.629195
137.027252,1036.288319,9548.656652,1225.752797
137.027561,-3182.885551,7328.038826,-1762.019645
137.027870,-0.000000,9844.739029,-5209.449386
137.028180,-0.000000,8734.430116,-4749.792088
137.028489,-740.205942,5847.626942,-5209.449386
137.028798,-2442.679609,11695.253884,1915.238745
137.029108,814.226536,7920.203579,-306.438199
137.029417,1480.411884,8438.347739,2298.286494
137.029727,-2886.803174,11695.253884,5362.668486
137.030036,888.247130,5995.668130,2374.896044
137.030345,3330.926739,7402.059420,-5975.544884
137.030655,518.144159,8364.327145,-4596.572988
137.030964,-1776.494261,6587.832884,-766.095498
137.031273,1628.453072,11399.171507,459.657299
137.031583,-0.000000,9548.656652,-612.876398
137.031892,-4515.256246,14878.139434,3064.381992
137.032202,-222.061783,12139.377449,0.000000
137.032511,-1924.535449,10955.047942,-7507.735880
137.032820,2220.617826,11843.295072,-7737.564530
137.033130,-1554.432478,9844.739029,-4596.572988
137.033439,1332.370696,9696.697840,-1685.410096
137.033748,3997.112087,6809.894666,4366.744339
137.034058,-0.000000,11695.253884,4519.963438
137.034367,-1924.535449,6661.853478,7201.297681
137.034677,-1258.350101,8364.327145,3983.696590
137.034986,1554.432478,10881.027347,-8273.831378
137.035295,5329.482782,5847.626942,-7354.516781
137.035605,-740.205942,4589.276840,-1608.800546
137.035914,370.102971,9252.574275,-2298.286494
137.036223,1850.514855,5699.585753,-842.705048
137.036533,-3923.091493,8438.347739,6971.469032
137.036842,-5033.400406,8438.347739,7277.907231
137.037152,4663.297435,13545.768739,-5669.106685
137.037461,2664.741391,11029.068536,-12180.918418
137.037770,-0.000000,9104.533087,-3064.381992
137.038080,296.082377,13841.851115,229.828649
137.038389,2590.720797,9178.553681,-4366.744339
137.038698,-3330.926739,9252.574275,7048.078582
137.039008,-962.267725,10732.986159,9346.365076
137.039317,-1998.556043,4737.318029,-995.924147
137.039627,-0.000000,13915.871710,-8350.440928
137.039936,-1554.432478,9030.512492,-5745.716235
137.040245,-444.123565,8586.388927,-7124.688131
137.040555,1258.350101,13397.727550,-5592.497135
137.040864,2294.638420,8068.244768,2451.505594
137.041173,-1776.494261,8586.388927,2298.286494
137.041483,-2368.659014,7402.059420,5669.106685
137.041792,1184.329507,4145.153275,4443.353888
137.042101,3182.885551,6661.853478,-3524.039291
137.042411,814.226536,11473.192101,-3830.477490
137.042720,-1036.288319,7328.038826,-536.266849
137.043030,1258.350101,11769.274478,-1532.190996
137.043339,1110.308913,14063.912898,-5286.058936
137.043648,-3256.906145,8438.347739,2681.334243
137.043958,-1998.556043,13175.665768,1762.019645
137.044267,-740.205942,11103.089130,-7048.078582
137.044576,148.041188,9696.697840,-5439.278036
137.044886,-2590.720797,9622.677246,-2374.896044
137.045195,3923.091493,12139.377449,-5132.839837
137.045505,3552.988522,12139.377449,-3217.601092
137.045814,-0.000000,7846.182985,4366.744339
137.046123,-1258.350101,8068.244768,6358.592633
137.046433,1480.411884,7920.203579,-383.047749
137.046742,-2368.659014,3478.967927,-612.876398
137.047051,1184.329507,11917.315666,-2757.943793
137.047361,-222.061783,10214.842000,-6281.983084
137.047670,-0.000000,9548.656652,-2681.334243
137.047980,1628.453072,12435.459826,1225.752797
137.048289,-1924.535449,7994.224174,-1455.581446
137.048598,-2442.679609,6883.915261,1991.848295
137.048908,-3552.988522,7476.080014,2528.115143
137.049217,3182.885551,7698.141797,-6511.811733
137.049526,1480.411884,15914.427753,-6741.640382
137.049836,962.267725,10807.006753,-766.095498
137.050145,1702.473667,10066.800811,3447.429741
137.050455,518.144159,14656.077652,1149.143247
137.050764,1406.391290,8882.471304,1915.238745
137.051073,-3478.967927,4885.359217,6358.592633
137.051383,-222.061783,15248.242405,-4903.011187
137.051692,3108.864956,6439.791695,-8350.440928
137.052001,-888.247130,12361.439231,-4673.182538
137.052311,-888.247130,9918.759623,-2681.334243
137.052620,2072.576638,7402.059420,-1378.971896
137.052930,5477.523971,12435.459826,-153.219100
137.053239,-7698.141797,1628.453072,4060.306139
137.053548,962.267725,8734.430116,4596.572988
137.053858,-2368.659014,5773.606348,-4519.963438
137.054167,5551.544565,10584.944971,-6588.421283
137.054476,2146.597232,9104.533087,-3217.601092
137.054786,-3701.029710,14137.933492,536.266849
137.055095,5033.400406,14137.933492,766.095498
137.055405,-1776.494261,7402.059420,536.266849
137.055714,-1184.329507,9770.718434,-1225.752797
137.056023,-74.020594,8290.306550,-2068.457845
137.056333,1998.556043,8142.265362,-6281.983084
137.056642,518.144159,7550.100608,-4903.011187
137.056951,-1258.350101,12139.377449,766.095498
137.057261,2294.638420,14878.139434,-3677.258390
137.057570,4145.153275,10362.883188,1455.581446
137.057880,-4293.194464,8068.244768,5132.839837
137.058189,-2738.761985,9770.718434,-612.876398
137.058498,5847.626942,8068.244768,-7124.688131
137.058808,-222.061783,10362.883188,-4826.401637
137.059117,-592.164754,8734.430116,1378.971896
137.059426,1110.308913,5773.606348,2911.162892
137.059736,1406.391290,10436.903782,-995.924147
137.060045,296.082377,10288.862594,5592.497135
137.060355,-2516.700203,3330.926739,3983.696590
137.060664,-0.000000,6809.894666,-2451.505594
137.060973,-740.205942,12213.398043,-6128.763984
137.061283,-1554.432478,8142.265362,-4903.011187
137.061592,-1332.370696,9252.574275,-3753.867940
137.061901,-74.020594,16432.571912,-2451.505594
137.062211,3552.988522,11103.089130,612.876398
137.062520,2738.761985,11843.295072,1532.190996
137.062829,-5625.565159,9400.615463,5286.058936
137.063139,1184.329507,9844.739029,0.000000
137.063448,4145.153275,4737.318029,-4903.011187
137.063758,-2960.823768,9178.553681,-4903.011187
137.064067,518.144159,12139.377449,-2911.162892
137.064376,1332.370696,6513.812290,-3140.991542
137.064686,1924.535449,15396.283594,-2987.772442
137.064995,-2220.617826,6217.729913,1532.190996
137.065304,-1628.453072,7550.100608,3677.258390
137.065614,666.185348,4589.276840,-1608.800546
137.065923,-296.082377,5551.544565,-2145.067394
137.066233,962.267725,14359.995275,-919.314598
137.066542,-814.226536,8068.244768,459.657299
137.066851,5625.565159,11325.150913,-5132.839837
137.067161,-666.185348,11695.253884,995.924147
137.067470,-4737.318029,11695.253884,4749.792088
137.067779,-740.205942,10658.965565,-2451.505594
137.068089,2960.823768,7846.182985,-5822.325785
137.068398,1110.308913,9918.759623,-4903.011187
137.068708,-5403.503377,7476.080014,0.000000
137.069017,2516.700203,14730.098246,-842.705048
137.069326,2516.700203,7179.997637,-2145.067394
137.069636,-222.061783,11769.274478,2068.457845
137.069945,-1776.494261,12435.459826,1455.581446
137.070254,1036.288319,4441.235652,-5745.716235
137.070564,1480.411884,10066.800811,-5898.935335
137.070873,-1036.288319,5329.482782,1915.238745
137.071183,1554.432478,4515.256246,3677.258390
137.071492,-740.205942,10955.047942,1072.533697
137.071801,2072.576638,11177.109724,1455.581446
137.072111,-1184.329507,6661.853478,2681.334243
137.072420,-3330.926739,10066.800811,-3983.696590
137.072729,2886.803174,8512.368333,-9346.365076
137.073039,-2368.659014,9992.780217,-7354.516781
137.073348,-2442.679609,11769.274478,-1608.800546
137.073658,2886.803174,10955.047942,-536.266849
137.073967,3552.988522,13101.645173,-689.485948
137.074276,-3256.906145,5403.503377,5975.544884
137.074586,-4293.194464,5403.503377,4826.401637
137.074895,962.267725,7402.059420,-4673.182538
137.075204,3182.885551,9030.512492,-3677.258390
137.075514,-0.000000,12361.439231,-612.876398
137.075823,-296.082377,7402.059420,-4749.792088
137.076133,3256.906145,13101.645173,-4213.525239
137.076442,-2072.576638,7846.182985,4366.744339
137.076751,-3404.947333,8068.244768,2911.162892
137.077061,1480.411884,12065.356855,-4519.963438
137.077370,2738.761985,4441.235652,-5209.449386
137.077679,296.082377,12139.377449,-766.095498
137.077989,-1480.411884,8660.409521,-76.609550
137.078298,2812.782580,8290.306550,-1608.800546
137.078608,-1332.370696,12435.459826,306.438199
137.078917,-1332.370696,6809.894666,5362.668486
137.079226,-1554.432478,8808.450710,1608.800546
137.079536,3627.009116,7772.162391,-3677.258390
137.079845,370.102971,9622.677246,-6818.249932
137.080154,-222.061783,8216.285956,-4060.306139
137.080464,-2516.700203,9622.677246,-995.924147
137.080773,592.164754,14285.974681,-2145.067394
137.081082,3849.070898,9474.636058,612.876398
137.081392,-1554.432478,9400.615463,1685.410096
137.081701,-4589.276840,12139.377449,2911.162892
137.082011,7920.203579,9770.718434,-5056.230287
137.082320,-1110.308913,5847.626942,-8810.098227
137.082629,888.247130,9178.553681,-2604.724693
137.082939,-1776.494261,4959.379811,3753.867940
137.083248,888.247130,7846.182985,2145.067394
137.083557,-0.000000,13027.624579,1532.190996
137.083867,-2664.741391,9030.512492,2604.724693
137.084176,1480.411884,8734.430116,842.705048
137.084486,-74.020594,10881.027347,-6588.421283
137.084795,3627.009116,10362.883188,-9806.022374
137.085104,-1850.514855,5995.668130,-3983.696590
137.085414,-1924.535449,12805.562797,995.924147
137.085723,1554.432478,11473.192101,4443.353888
137.086032,-1184.329507,11621.233289,3830.477490
137.086342,518.144159,12435.459826,2911.162892
137.086651,-1998.556043,12583.501014,-5056.230287
137.086961,4441.235652,4367.215058,-5898.935335
137.087270,-1924.535449,6291.750507,-5056.230287
137.087579,-370.102971,12139.377449,-1762.019645
137.087889,-222.061783,10955.047942,-536.266849
137.088198,-592.164754,12287.418637,1455.581446
137.088507,-740.205942,7846.182985,3064.381992
137.088817,888.247130,8142.265362,-306.438199
137.089126,296.082377,4959.379811,-4366.744339
137.089436,814.226536,5403.503377,-1225.752797
137.089745,-814.226536,7772.162391,-2221.676944
137.090054,1776.494261,10140.821405,0.000000
137.090364,1998.556043,13323.706956,2451.505594
137.090673,-5181.441594,12583.501014,5056.230287
137.090982,888.247130,7402.059420,1991.848295
137.091292,2220.617826,6661.853478,-5592.497135
137.091601,-2294.638420,13027.624579,-8503.660028
137.091911,-666.185348,11399.171507,-6588.421283
137.092220,-518.144159,7179.997637,-6894.859482
137.092529,1554.432478,12435.459826,-1762.019645
137.092839,-296.082377,14508.036463,4673.182538
137.093148,-1776.494261,7624.121203,7584.345430
137.093457,-0.000000,1184.329507,2604.724693
137.093767,3404.947333,6587.832884,-4673.182538
137.094076,1184.329507,8142.265362,-7584.345430
137.094386,2590.720797,2146.597232,-4749.792088
137.094695,-666.185348,11547.212695,0.000000
137.095004,3034.844362,18061.024985,1608.800546
137.095314,2886.803174,8660.409521,3983.696590
137.095623,-2960.823768,5477.523971,4443.353888
137.095932,-888.247130,8660.409521,-1532.190996
137.096242,2146.597232,7402.059420,-8503.660028
137.096551,-1702.473667,11177.109724,-10801.946522
137.096861,-1110.308913,13471.748144,-4290.134789
137.097170,1480.411884,9474.636058,1072.533697
137.097479,-666.185348,13841.851115,5056.230287
137.097789,518.144159,13767.830521,4979.620737
137.098098,-1184.329507,9992.780217,-1225.752797
137.098407,-740.205942,7179.997637,-4826.401637
137.098717,296.082377,9844.739029,-5515.887586
137.099026,1036.288319,10658.965565,-9422.974625
137.099335,444.123565,6735.874072,-766.095498
137.099645,666.185348,10881.027347,6741.640382
137.099954,962.267725,9400.615463,6281.983084
137.100264,-0.000000,7328.038826,1915.238745
137.100573,-2590.720797,3627.009116,1225.752797
137.100882,-2072.576638,7772.162391,-3753.867940
137.101192,1554.432478,8660.409521,-10112.460574
137.101501,-2442.679609,7550.100608,-5515.887586
137.101810,962.267725,12583.501014,-689.485948
137.102120,1258.350101,14359.995275,-995.924147
137.102429,222.061783,12361.439231,1149.143247
137.102739,-3849.070898,7698.141797,8120.612279
137.103048,-1184.329507,7994.224174,1072.533697
137.103357,2664.741391,6587.832884,-6894.859482
137.103667,1850.514855,8364.327145,-7354.516781
137.103976,-1184.329507,7179.997637,-2757.943793
137.104285,-2516.700203,13841.851115,-1149.143247
137.104595,2664.741391,14952.160028,229.828649
137.104904,-592.164754,7476.080014,1608.800546
137.105214,-3849.070898,15692.365970,-1915.238745
137.105523,2442.679609,7105.977043,-4596.572988
137.105832,1924.535449,3849.070898,-6588.421283
137.106142,-3627.009116,10732.986159,-5056.230287
137.106451,2294.638420,6217.729913,842.705048
137.106760,5181.441594,4811.338623,2987.772442
137.107070,-3552.988522,12361.439231,6741.640382
137.107379,-0.000000,9992.780217,7201.297681
137.107689,-518.144159,2516.700203,689.485948
137.107998,1036.288319,11399.171507,-11338.213370
137.108307,444.123565,12509.480420,-10342.289223
137.108617,592.164754,7624.121203,-8733.488677
137.108926,-1332.370696,12731.542202,-2834.553343
137.109235,-1628.453072,15544.324782,5132.839837
137.109545,5181.441594,9918.759623,5592.497135
137.109854,-2220.617826,9548.656652,689.485948
137.110164,-3849.070898,9104.533087,0.000000
137.110473,888.247130,6217.729913,-1149.143247
137.110782,4293.194464,5107.421000,-12947.013916
137.111092,-5477.523971,13397.727550,-8427.050478
137.111401,4589.276840,10510.924376,3370.820191
137.111710,1702.473667,9992.780217,1762.019645
137.112020,-962.267725,14804.118840,2911.162892
137.112329,1258.350101,9030.512492,6741.640382
137.112639,296.082377,296.082377,-4596.572988
137.112948,1184.329507,3923.091493,-6665.030833
137.113257,-4959.379811,5773.606348,153.219100
137.113567,2590.720797,7402.059420,-4749.792088
137.113876,1332.370696,11991.336260,-4060.306139
137.114185,-3330.926739,17616.901420,7431.126331
137.114495,-2072.576638,13101.645173,4903.011187
137.114804,2146.597232,9918.759623,-6818.249932
137.115114,-1554.432478,10584.944971,-2757.943793
137.115423,-2220.617826,8512.368333,-3447.429741
137.115732,-888.247130,9844.739029,-8273.831378
137.116042,1184.329507,10732.986159,-4213.525239
137.116351,-3256.906145,15174.221811,3677.258390
137.116660,-666.185348,14211.954086,2451.505594
137.116970,1628.453072,5403.503377,-1149.143247
137.117279,-296.082377,4293.194464,-3677.258390
137.117588,-222.061783,7105.977043,-5209.449386
137.117898,-962.267725,4737.318029,-153.219100
137.118207,4145.153275,6365.771101,-1378.971896
137.118517,4441.235652,12805.562797,-1532.190996
137.118826,-666.185348,12879.583391,5362.668486
137.119135,-444.123565,6809.894666,8656.879127
137.119445,1332.370696,3923.091493,-995.924147
137.119754,-2812.782580,11399.171507,-10035.851024
137.120063,-0.000000,10732.986159,-7277.907231
137.120373,-2590.720797,7328.038826,-6971.469032
137.120682,2146.597232,15100.201217,-7048.078582
137.120992,-296.082377,16210.510130,536.266849
137.121301,2146.597232,10214.842000,4979.620737
137.121610,-2812.782580,8956.491898,4596.572988
137.121920,-0.000000,11621.233289,2911.162892
137.122229,74.020594,10362.883188,-8120.612279
137.122538,740.205942,7994.224174,-12947.013916
137.122848,-2294.638420,5255.462188,-5975.544884
137.123157,1406.391290,9844.739029,-2145.067394
137.123467,888.247130,11029.068536,-383.047749
137.123776,444.123565,7328.038826,4366.744339
137.124085,-74.020594,8660.409521,5439.278036
137.124395,5181.441594,8142.265362,-1225.752797
137.124704,1258.350101,3330.926739,-919.314598
137.125013,-2886.803174,5181.441594,-76.609550
137.125323,1110.308913,8216.285956,-4979.620737
137.125632,3330.926739,9400.615463,-2987.772442
137.125942,-1924.535449,14952.160028,2068.457845
137.126251,-3775.050304,14285.974681,1455.581446
137.126560,-0.000000,12509.480420,-2528.115143
137.126870,-2886.803174,11769.274478,-2451.505594
137.127179,518.144159,9104.533087,-4596.572988
137.127488,-1332.370696,9770.718434,-8427.050478
137.127798,-2146.597232,13175.665768,-4826.401637
137.128107,2590.720797,8290.306550,5209.449386
137.128417,1258.350101,13027.624579,2451.505594
137.128726,-4145.153275,12213.398043,459.657299
137.129035,2590.720797,7254.018232,-1225.752797
137.129345,962.267725,3256.906145,-3140.991542
137.129654,-74.020594,6809.894666,-5209.449386
137.129963,-2368.659014,8808.450710,-2374.896044
137.130273,4367.215058,8808.450710,-1762.019645
137.130582,2738.761985,7994.224174,1685.410096
137.130892,-4737.318029,12583.501014,5745.716235
137.131201,1184.329507,13397.727550,3753.867940
137.131510,-222.061783,4959.379811,-5286.058936
137.131820,2146.597232,8290.306550,-6435.202183
137.132129,-5551.544565,12287.418637,-4673.182538
137.132438,2294.638420,8808.450710,-6588.421283
137.132748,740.205942,10288.862594,153.219100
137.133057,-2368.659014,16432.571912,2911.162892
137.133367,-3552.988522,11103.089130,0.000000
137.133676,-1850.514855,14804.118840,-2145.067394
137.133985,4367.215058,11399.171507,-4443.353888
137.134295,-0.000000,4441.235652,-6435.202183
137.134604,-5329.482782,10436.903782,-1302.362347
137.134913,5107.421000,8808.450710,229.828649
137.135223,1184.329507,6735.874072,-2451.505594
137.135532,-2294.638420,11177.109724,2068.457845
137.135842,-0.000000,8216.285956,4443.353888
137.136151,7402.059420,4959.379811,-5056.230287
137.136460,1776.494261,4663.297435,-2451.505594
137.136770,-7772.162391,8956.491898,76.609550
137.137079,444.123565,7476.080014,2987.772442
137.137388,6439.791695,10807.006753,-536.266849
137.137698,962.267725,16210.510130,-612.876398
137.138007,-1924.535449,11399.171507,1685.410096
137.138316,2738.761985,10214.842000,-1532.190996
137.138626,-2516.700203,9104.533087,-7277.907231
137.138935,-1998.556043,12361.439231,-6894.859482
137.139245,-3256.906145,7698.141797,-4596.572988
137.139554,-0.000000,12879.583391,-2834.553343
137.139863,-444.123565,15544.324782,3140.991542
137.140173,-148.041188,12213.398043,1838.629195
137.140482,-1184.329507,3627.009116,229.828649
137.140791,1554.432478,8808.450710,-1838.629195
137.141101,-148.041188,6883.915261,-3600.648841
137.141410,-888.247130,3627.009116,-2374.896044
137.141720,2146.597232,6143.709319,0.000000
137.142029,4737.318029,7846.182985,-689.485948
137.142338,-3108.864956,8882.471304,3064.381992
137.142648,-0.000000,6069.688724,7048.078582
137.142957,518.144159,2812.782580,2451.505594
137.143266,1998.556043,12879.583391,-6281.983084
137.143576,-518.144159,9474.636058,-4903.011187
137.143885,-5033.400406,10510.924376,-4903.011187
137.144195,666.185348,16358.551318,-3830.477490
137.144504,3923.091493,12805.562797,-3294.210641
137.144813,-444.123565,14063.912898,2298.286494
137.145123,-7698.141797,9326.594869,1302.362347
137.145432,-296.082377,6883.915261,-1915.238745
137.145741,5107.421000,7920.203579,-4749.792088
137.146051,-370.102971,5551.544565,-3753.867940
137.146360,-5107.421000,11251.130318,-383.047749
137.146670,4441.235652,12139.377449,-2451.505594
137.146979,4515.256246,5921.647536,-1225.752797
137.147288,-4811.338623,7772.162391,4366.744339
137.147598,-2516.700203,10658.965565,2604.724693
137.147907,5033.400406,4441.235652,-5362.668486
137.148217,2368.659014,3849.070898,-2911.162892
137.148526,-3478.967927,8734.430116,0.000000
137.148836,1480.411884,5033.400406,-1532.190996
137.149145,4885.359217,8364.327145,2145.067394
137.149454,-1480.411884,15174.221811,5669.106685
137.149764,-1480.411884,10288.862594,4979.620737
137.150073,-814.226536,9252.574275,-2528.115143
137.150383,962.267725,13101.645173,-7507.735880
137.150692,-2516.700203,9770.718434,-11184.994271
137.151001,-6809.894666,9548.656652,-6971.469032
137.151311,-888.247130,13027.624579,-3447.429741
137.151620,3034.844362,13989.892304,612.876398
137.151930,814.226536,12731.542202,2145.067394
137.152239,-0.000000,10658.965565,5822.325785
137.152549,4145.153275,5181.441594,2374.896044
137.152858,-0.000000,3034.844362,-2834.553343
137.153167,-1628.453072,5847.626942,-2298.286494
137.153477,-0.000000,9178.553681,919.314598
137.153786,5329.482782,10881.027347,-3907.087040
137.154096,1702.473667,10214.842000,-229.828649
137.154405,-3404.947333,14063.912898,5132.839837
137.154715,296.082377,4441.235652,-306.438199
137.155024,-296.082377,6957.935855,-5362.668486
137.155333,-0.000000,15914.427753,-6435.202183
137.155643,-1332.370696,7920.203579,-1915.238745
137.155952,1332.370696,7994.224174,0.000000
137.156262,1850.514855,13397.727550,2528.115143
137.156571,-1258.350101,12657.521608,4903.011187
137.156880,-2812.782580,10362.883188,2221.676944
137.157190,1332.370696,8364.327145,-3370.820191
137.157499,592.164754,10955.047942,-8120.612279
137.157809,-1628.453072,10807.006753,-9116.536426
137.158118,-4663.297435,7328.038826,-4366.744339
137.158428,2368.659014,9252.574275,-1762.019645
137.158737,1554.432478,9400.615463,2987.772442
137.159046,592.164754,7772.162391,7967.393179
137.159356,-1850.514855,4959.379811,5132.839837
137.159665,2368.659014,8438.347739,-5286.058936
137.159975,5033.400406,222.061783,-6894.859482
137.160284,-4441.235652,3701.029710,-3217.601092
137.160594,-2886.803174,11177.109724,-1302.362347
137.160903,4737.318029,14137.933492,-1532.190996
137.161212,3256.906145,12953.603985,2374.896044
137.161522,-2442.679609,12435.459826,3447.429741
137.161831,-592.164754,11103.089130,2145.067394
137.162141,-1998.556043,6513.812290,-5898.935335
137.162450,-1184.329507,4367.215058,-9039.926876
137.162759,-4737.318029,12879.583391,-6435.202183
137.163069,296.082377,13397.727550,-3907.087040
137.163378,1628.453072,10066.800811,-459.657299
137.163688,-222.061783,13397.727550,1915.238745
137.163997,-2516.700203,9696.697840,5439.278036
137.164307,4737.318029,5625.565159,-1532.190996
137.164616,962.267725,6513.812290,-6358.592633
137.164925,-962.267725,5329.482782,-3830.477490
137.165235,-296.082377,6587.832884,-1608.800546
137.165544,5773.606348,9548.656652,-919.314598
137.165854,3330.926739,11103.089130,1149.143247
137.166163,-3552.988522,9474.636058,6281.983084
137.166472,888.247130,7772.162391,4290.134789
137.166782,-1776.494261,8438.347739,-7507.735880
137.167091,666.185348,10584.944971,-9269.755526
137.167401,-222.061783,10584.944971,-7354.516781
137.167710,370.102971,9178.553681,-2068.457845
137.168020,1184.329507,17912.983796,3447.429741
137.168329,-74.020594,14952.160028,5132.839837
137.168638,-1110.308913,10066.800811,5056.230287
137.168948,-0.000000,11177.109724,-689.485948
137.169257,-1628.453072,11991.336260,-8044.002729
137.169567,2368.659014,4663.297435,-8886.707777
137.169876,-5329.482782,6069.688724,-1532.190996
137.170186,3997.112087,12287.418637,-2834.553343
137.170495,1406.391290,8660.409521,-3294.210641
137.170804,-4145.153275,9400.615463,2298.286494
137.171114,-1998.556043,8068.244768,10495.508323
137.171423,6661.853478,6587.832884,-3524.039291
137.171733,2590.720797,7994.224174,-6665.030833
137.172042,-6069.688724,6291.750507,689.485948
137.172351,-222.061783,5995.668130,-1532.190996
137.172661,1924.535449,11399.171507,-6281.983084
137.172970,740.205942,16580.613101,2757.943793
137.173280,-3478.967927,13619.789333,6665.030833
137.173589,6439.791695,7698.141797,0.000000
137.173899,-2590.720797,11695.253884,-4366.744339
137.174208,-2072.576638,8512.368333,-1685.410096
137.174517,-2220.617826,7031.956449,-2374.896044
137.174827,740.205942,12805.562797,-6435.202183
137.175136,3849.070898,12509.480420,-3447.429741
137.175446,-1258.350101,13471.748144,459.657299
137.175755,-3256.906145,11177.109724,3907.087040
137.176065,2516.700203,9104.533087,612.876398
137.176374,3775.050304,9844.739029,-3907.087040
137.176683,-370.102971,2960.823768,-1608.800546
137.176993,-148.041188,3404.947333,2298.286494
137.177302,1258.350101,7476.080014,-766.095498
137.177612,2516.700203,8808.450710,-1991.848295
137.177921,-3330.926739,6661.853478,4826.401637
137.178230,4219.173869,10658.965565,3370.820191
137.178540,-666.185348,10584.944971,-6511.811733
137.178849,666.185348,12065.356855,-6281.983084
137.179159,-3849.070898,8734.430116,919.314598
137.179468,3627.009116,9474.636058,-6894.859482
137.179778,-888.247130,11473.192101,-5056.230287
137.180087,-592.164754,12435.459826,4979.620737
137.180396,-5329.482782,8216.285956,7277.907231
137.180706,4071.132681,15026.180623,-4749.792088
137.181015,814.226536,14952.160028,-4290.134789
137.181325,-592.164754,12065.356855,-6971.469032
137.181634,-2812.782580,5625.565159,-4903.011187
137.181943,1850.514855,6439.791695,-4443.353888
137.182253,5699.585753,6809.894666,-2221.676944
137.182562,-1184.329507,8512.368333,1225.752797
137.182872,-1332.370696,7105.977043,7660.954980
137.183181,4589.276840,11621.233289,2834.553343
137.183491,888.247130,7846.182985,-4290.134789
137.183800,-2220.617826,3923.091493,-4749.792088
137.184109,3034.844362,3404.947333,-2987.772442
137.184419,-0.000000,8882.471304,-5592.497135
137.184728,-1406.391290,14285.974681,-919.314598
137.185038,-4959.379811,12805.562797,6435.202183
137.185347,5773.606348,12953.603985,-1685.410096
137.185657,1924.535449,9548.656652,-2911.162892
137.185966,-3552.988522,7402.059420,1532.190996
137.186275,-5847.626942,6513.812290,-3294.210641
137.186585,3478.967927,7328.038826,-8427.050478
137.186894,370.102971,15174.221811,-3830.477490
137.187204,-1554.432478,11917.315666,-689.485948
137.187513,-3256.906145,11843.295072,1302.362347
137.187822,4515.256246,9992.780217,-536.266849
137.188132,3330.926739,4219.173869,-2987.772442
137.188441,-592.164754,6439.791695,-2068.457845
137.188751,-3552.988522,6513.812290,1072.533697
137.189060,3404.947333,7920.203579,-689.485948
137.189370,5403.503377,7994.224174,-4903.011187
137.189679,-1850.514855,9474.636058,1685.410096
137.189988,-1258.350101,9030.512492,6052.154434
137.190298,-74.020594,12583.501014,-2604.724693
137.190607,3849.070898,9696.697840,-8886.707777
137.190917,222.061783,7624.121203,-3140.991542
137.191226,-2590.720797,8364.327145,0.000000
137.191535,-1924.535449,10658.965565,-1991.848295
137.191845,1036.288319,9474.636058,-306.438199
137.192154,-1850.514855,9474.636058,5822.325785
137.192464,1998.556043,16580.613101,0.000000
137.192773,-666.185348,13471.748144,-4903.011187
137.193083,1036.288319,12287.418637,-4673.182538
137.193392,-3108.864956,7328.038826,-3600.648841
137.193701,1480.411884,12435.459826,-8580.269578
137.194011,-0.000000,8882.471304,-842.705048
137.194320,-3034.844362,8660.409521,6818.249932
137.194630,1998.556043,6661.853478,4749.792088
137.194939,5107.421000,8808.450710,-76.609550
137.195249,-0.000000,10584.944971,-2451.505594
137.195558,-2072.576638,4589.276840,1149.143247
137.195867,1998.556043,2664.741391,-2298.286494
137.196177,-0.000000,13249.686362,-4136.915689
137.196486,-296.082377,10140.821405,-2374.896044
137.196796,-2072.576638,11991.336260,766.095498
137.197105,1184.329507,12139.377449,612.876398
137.197414,3478.967927,11177.109724,-766.095498
137.197724,-2738.761985,10288.862594,-2757.943793
137.198033,-6883.915261,7105.977043,-612.876398
137.198343,-222.061783,11843.295072,-1991.848295
137.198652,5329.482782,12065.356855,-7431.126331
137.198962,-1776.494261,13989.892304,-3524.039291
137.199271,-2812.782580,13175.665768,689.485948
137.199580,962.267725,9474.636058,-4136.915689
137.199890,3627.009116,7772.162391,-7048.078582
137.200199,-3404.947333,5847.626942,1991.848295
137.200509,1406.391290,5107.421000,6128.763984
137.200818,7105.977043,6143.709319,-2987.772442
137.201128,4441.235652,9770.718434,-1685.410096
137.201437,-8068.244768,8438.347739,5592.497135
137.201746,1110.308913,6883.915261,842.705048
137.202056,3478.967927,11251.130318,-9346.365076
137.202365,3256.906145,13915.871710,-10189.070123
137.202675,-5329.482782,11251.130318,1455.581446
137.202984,4219.173869,10658.965565,-1991.848295
137.203293,-0.000000,9474.636058,-3753.867940
137.203603,-2886.803174,7994.224174,2528.115143
137.203912,-10510.924376,5551.544565,8120.612279
137.204222,2072.576638,13397.727550,-2451.505594
137.204531,3256.906145,11325.150913,-9729.412825
137.204841,-2146.597232,13027.624579,-8120.612279
137.205150,-3182.885551,7550.100608,-1225.752797
137.205459,3552.988522,13471.748144,-7737.564530
137.205769,592.164754,6587.832884,-2451.505594
137.206078,-2960.823768,5847.626942,7431.126331
137.206388,-1332.370696,6883.915261,5745.716235
137.206697,6365.771101,9474.636058,-1762.019645
137.207006,5329.482782,6143.709319,-3983.696590
137.207316,-2368.659014,4811.338623,766.095498
137.207625,-1110.308913,4737.318029,0.000000
137.207935,3330.926739,8512.368333,-3217.601092
137.208244,-592.164754,10807.006753,-1302.362347
137.208554,-3256.906145,11325.150913,2451.505594
137.208863,3404.947333,12287.418637,-2451.505594
137.209172,-0.000000,13471.748144,-7890.783629
137.209482,-2812.782580,13249.686362,-3217.601092
137.209791,-6069.688724,5329.482782,2298.286494
137.210101,2294.638420,11991.336260,-4366.744339
137.210410,3775.050304,14211.954086,-6665.030833
137.210720,-5477.523971,11695.253884,5056.230287
137.211029,-6291.750507,7031.956449,6665.030833
137.211338,6069.688724,9844.739029,-5592.497135
137.211648,3849.070898,7105.977043,-10418.898773
137.211957,-2738.761985,4885.359217,-689.485948
137.212267,-3849.070898,4441.235652,5056.230287
137.212576,6365.771101,7624.121203,-2374.896044
137.212885,2960.823768,8290.306550,-229.828649
137.213195,-3923.091493,7402.059420,7890.783629
137.213504,-2072.576638,7105.977043,2221.676944
137.213814,2146.597232,11695.253884,-7660.954980
137.214123,1702.473667,13101.645173,-7354.516781
137.214433,814.226536,10732.986159,-1532.190996
137.214742,3182.885551,12805.562797,-3140.991542
137.215051,-2442.679609,15692.365970,3140.991542
137.215361,-1406.391290,10362.883188,6128.763984
137.215670,-5477.523971,7550.100608,7660.954980
137.215980,2738.761985,11991.336260,-3753.867940
137.216289,518.144159,13249.686362,-9193.145976
137.216599,-3997.112087,9992.780217,-5898.935335
137.216908,-6069.688724,8808.450710,-1455.581446
137.217217,6217.729913,11325.150913,-5515.887586
137.217527,1480.411884,4367.215058,-3370.820191
137.217836,-7031.956449,8068.244768,8656.879127
137.218146,-2960.823768,8364.327145,9959.241474
137.218455,9918.759623,4219.173869,-2757.943793
137.218764,2960.823768,7328.038826,-4749.792088
137.219074,-4071.132681,9474.636058,2451.505594
137.219383,-0.000000,6365.771101,1302.362347
137.219693,1998.556043,8290.306550,-6281.983084
137.220002,-740.205942,10584.944971,1685.410096
137.220312,-3330.926739,13471.748144,4213.525239
137.220621,3256.906145,12065.356855,-306.438199
137.220930,1110.308913,9696.697840,-2987.772442
137.221240,-1924.535449,11251.130318,-1991.848295
137.221549,-2812.782580,11325.150913,-4749.792088
137.221859,-666.185348,8956.491898,-8044.002729
137.222168,-2072.576638,11177.109724,1072.533697
137.222477,1480.411884,13249.686362,2987.772442
137.222787,-8956.491898,11695.253884,3447.429741
137.223096,3997.112087,9622.677246,-1378.971896
137.223406,1258.350101,3552.988522,-6665.030833
137.223715,-666.185348,9178.553681,-7201.297681
137.224025,-1332.370696,4515.256246,306.438199
137.224334,2960.823768,7698.141797,-3983.696590
137.224643,3478.967927,8512.368333,-1838.629195
137.224953,-1258.350101,6661.853478,8580.269578
137.225262,3256.906145,7105.977043,7584.345430
137.225572,1406.391290,7994.224174,-3830.477490
137.225881,1480.411884,10214.842000,-5898.935335
137.226191,-4441.235652,9400.615463,-1455.581446
137.226500,2368.659014,8364.327145,-6128.763984
137.226809,-1184.329507,11843.295072,-5515.887586
137.227119,-3552.988522,15100.201217,4596.572988
137.227428,-4293.194464,13915.871710,6588.421283
137.227738,5847.626942,12509.480420,-5132.839837
137.228047,-2812.782580,11103.089130,-5209.449386
137.228356,-296.082377,14211.954086,-1378.971896
137.228666,-3552.988522,7994.224174,-5362.668486
137.228975,3701.029710,11399.171507,-9652.803275
137.229285,-0.000000,5403.503377,-919.314598
137.229594,-5551.544565,6365.771101,4826.401637
137.229904,-2368.659014,6883.915261,6511.811733
137.230213,5847.626942,8956.491898,-459.657299
137.230522,4293.194464,5477.523971,-6511.811733
137.230832,-1184.329507,7031.956449,-3524.039291
137.231141,-1258.350101,5995.668130,0.000000
137.231451,2960.823768,6069.688724,-1762.019645
137.231760,3182.885551,7105.977043,995.924147
137.232070,-6809.894666,11325.150913,7048.078582
137.232379,-2146.597232,13693.809927,1532.190996
137.232688,3330.926739,9548.656652,-4903.011187
137.232998,888.247130,9474.636058,-6281.983084
137.233307,-2886.803174,14211.954086,-4136.915689
137.233617,-1480.411884,13915.871710,-9806.022374
137.233926,1110.308913,13915.871710,-5056.230287
137.234235,-4737.318029,12731.542202,2681.334243
137.234545,-6735.874072,10214.842000,3370.820191
137.234854,1628.453072,9548.656652,-2451.505594
137.235164,6291.750507,4589.276840,-4903.011187
137.235473,-2590.720797,5995.668130,-1762.019645
137.235783,1184.329507,6069.688724,1225.752797
137.236092,3034.844362,7476.080014,-2757.943793
137.236401,1110.308913,10140.821405,-9576.193725
137.236711,-3404.947333,5255.462188,4596.572988
137.237020,148.041188,3182.885551,6741.640382
137.237330,7105.977043,7254.018232,-2298.286494
137.237639,814.226536,11547.212695,-5209.449386
137.237948,-4737.318029,13175.665768,-76.609550
137.238258,2294.638420,9326.594869,-2068.457845
137.238567,962.267725,11399.171507,-6818.249932
137.238877,-0.000000,11029.068536,459.657299
137.239186,-9696.697840,10658.965565,3677.258390
137.239496,1998.556043,11695.253884,-2451.505594
137.239805,1258.350101,10584.944971,-6741.640382
137.240114,-5255.462188,15692.365970,-6358.592633
137.240424,-3182.885551,10066.800811,-3294.210641
137.240733,2516.700203,8586.388927,-2451.505594
137.241043,-1406.391290,10955.047942,-3753.867940
137.241352,-2960.823768,7105.977043,5439.278036
137.241662,-370.102971,5995.668130,7354.516781
137.241971,5477.523971,7846.182985,-2451.505594
137.242280,2146.597232,6365.771101,-1762.019645
137.242590,518.144159,4219.173869,1455.581446
137.242899,2220.617826,4589.276840,-2298.286494
137.243209,2146.597232,11029.068536,-4596.572988
137.243518,2146.597232,10807.006753,76.609550
137.243827,-5625.565159,11917.315666,4366.744339
137.244137,4515.256246,8734.430116,1762.019645
137.244446,-370.102971,11843.295072,-3294.210641
137.244756,-1702.473667,13619.789333,-4903.011187
137.245065,-4885.359217,10140.821405,0.000000
137.245375,740.205942,12139.377449,-5286.058936
137.245684,2960.823768,11177.109724,-7277.907231
137.245993,-3182.885551,12879.583391,-1378.971896
137.246303,-6069.688724,10955.047942,9116.536426
137.246612,3849.070898,10732.986159,-2757.943793
137.246922,4441.235652,6735.874072,-7507.735880
137.247231,-3997.112087,8512.368333,-229.828649
137.247541,-2072.576638,5921.647536,2068.457845
137.247850,3775.050304,6069.688724,-3677.258390
137.248159,4515.256246,8882.471304,-3677.258390
137.248469,-2146.597232,7031.956449,6511.811733
137.248778,-666.185348,6513.812290,4290.134789
137.249088,3330.926739,7698.141797,-3370.820191
137.249397,2220.617826,7772.162391,-6205.373534
137.249707,-4959.379811,10214.842000,-689.485948
137.250017,2146.597232,9474.636058,153.219100
137.250326,2516.700203,11769.274478,-3447.429741
137.250636,962.267725,13175.665768,-3677.258390
137.250945,-5329.482782,13989.892304,5745.716235
137.251255,888.247130,10955.047942,76.609550
137.251564,-2442.679609,10066.800811,-10265.679673
137.251874,296.082377,10362.883188,-7507.735880
137.252184,-7698.141797,9622.677246,-1225.752797
137.252493,2738.761985,11843.295072,-5056.230287
137.252803,1850.514855,9474.636058,-1072.533697
137.253112,814.226536,10881.027347,6665.030833
137.253422,1850.514855,7846.182985,5056.230287
137.253731,2516.700203,7772.162391,-2604.724693
137.254041,3330.926739,7179.997637,-4290.134789
137.254351,-3256.906145,5403.503377,-2145.067394
137.254660,370.102971,11177.109724,-2221.676944
137.254970,3182.885551,13101.645173,-1072.533697
137.255279,4737.318029,11177.109724,-2528.115143
137.255589,-1258.350101,6809.894666,4903.011187
137.255898,-2886.803174,9918.759623,6281.983084
137.256208,1924.535449,10881.027347,-2911.162892
137.256518,518.144159,7994.224174,-6971.469032
137.256827,-5477.523971,13619.789333,0.000000
137.257137,148.041188,11103.089130,-2834.553343
137.257446,2294.638420,12805.562797,-7814.174080
137.257756,-296.082377,12435.459826,-3294.210641
137.258065,-7105.977043,9770.718434,5439.278036
137.258375,2590.720797,11251.130318,-1838.629195
137.258685,3182.885551,4441.235652,-5439.278036
137.258994,-1184.329507,7846.182985,-766.095498
137.259304,-7105.977043,5033.400406,4213.525239
137.259613,6735.874072,8586.388927,-1378.971896
137.259923,4885.359217,6291.750507,-5209.449386
137.260232,-1554.432478,9104.533087,2681.334243
137.260542,-1776.494261,8586.388927,6665.030833
137.260852,888.247130,9030.512492,-3983.696590
137.261161,5033.400406,6365.771101,-5975.544884
137.261471,-4959.379811,10436.903782,842.705048
137.261780,-518.144159,12213.398043,0.000000
137.262090,2960.823768,9770.718434,-3370.820191
137.262399,3923.091493,12139.377449,-3447.429741
137.262709,-9622.677246,9844.739029,6435.202183
137.263018,370.102971,10140.821405,1838.629195
137.263328,1406.391290,9178.553681,-9422.974625
137.263638,-2220.617826,9918.759623,-9806.022374
137.263947,-5699.585753,7994.224174,3140.991542
137.264257,1332.370696,7846.182985,-1149.143247
137.264566,4885.359217,8586.388927,-5515.887586
137.264876,-1702.473667,6069.688724,5362.668486
137.265185,-5477.523971,8216.285956,9116.536426
137.265495,2368.659014,9252.574275,-2757.943793
137.265805,3330.926739,8734.430116,-10648.727422
137.266114,-3404.947333,6957.935855,-3983.696590
137.266424,-444.123565,8068.244768,2374.896044
137.266733,5699.585753,11843.295072,-766.095498
137.267043,3701.029710,9252.574275,0.000000
137.267352,-2516.700203,9844.739029,6665.030833
137.267662,666.185348,7402.059420,5286.058936
137.267972,296.082377,13545.768739,-2987.772442
137.268281,888.247130,8142.265362,-6971.469032
137.268591,-5847.626942,11695.253884,-3677.258390
137.268900,-2590.720797,13989.892304,-3983.696590
137.269210,6439.791695,10214.842000,-6971.469032
137.269519,-1776.494261,15248.242405,-2221.676944
137.269829,-4441.235652,9770.718434,4826.401637
137.270139,-296.082377,8512.368333,-919.314598
137.270448,1924.535449,1702.473667,-2987.772442
137.270758,-0.000000,2886.803174,2911.162892
137.271067,-2294.638420,5329.482782,4596.572988
137.271377,5403.503377,8586.388927,0.000000
137.271686,5847.626942,8956.491898,-2068.457845
137.271996,-4145.153275,10288.862594,1378.971896
137.272306,-2368.659014,8068.244768,2451.505594
137.272615,2072.576638,11547.212695,-4979.620737
137.272925,4145.153275,9474.636058,-11108.384721
137.273234,-5921.647536,13545.768739,-2221.676944
137.273544,3256.906145,12287.418637,4290.134789
137.273853,4219.173869,11991.336260,-1072.533697
137.274163,2368.659014,11103.089130,0.000000
137.274473,-5699.585753,10510.924376,9882.631924
137.274782,2886.803174,11325.150913,1225.752797
137.275092,1332.370696,9548.656652,-10955.165621
137.275401,370.102971,9696.697840,-9269.755526
137.275711,-7772.162391,8808.450710,-229.828649
137.276020,6143.709319,11695.253884,-4366.744339
137.276330,592.164754,9400.615463,-4443.353888
137.276640,-3256.906145,8734.430116,3370.820191
137.276949,-2960.823768,4293.194464,8580.269578
137.277259,3849.070898,3849.070898,-153.219100
137.277568,4071.132681,4959.379811,-6435.202183
137.277878,-1110.308913,8956.491898,-3830.477490
137.278187,222.061783,8364.327145,459.657299
137.278497,2072.576638,13175.665768,-1302.362347
137.278806,1110.308913,9400.615463,-919.314598
137.279116,-666.185348,12287.418637,2834.553343
137.279426,1258.350101,8882.471304,1915.238745
137.279735,-1850.514855,12805.562797,-3294.210641
137.280045,592.164754,11251.130318,-7431.126331
137.280354,-6587.832884,11325.150913,-4749.792088
137.280664,-148.041188,16506.592507,-6971.469032
137.280973,1480.411884,11843.295072,-6665.030833
137.281283,-296.082377,13693.809927,-4979.620737
137.281593,-4737.318029,10584.944971,2374.896044
137.281902,-0.000000,9992.780217,-3140.991542
137.282212,1036.288319,5773.606348,-10112.460574
137.282521,1184.329507,7994.224174,-8963.317327
137.282831,-2590.720797,7476.080014,-1302.362347
137.283140,7698.141797,11103.089130,-5286.058936
137.283450,888.247130,7994.224174,-12563.966167
137.283760,814.226536,8882.471304,-1608.800546
137.284069,-5699.585753,7254.018232,612.876398
137.284379,2738.761985,9030.512492,-10495.508323
137.284688,-888.247130,7328.038826,-16241.224558
137.284998,2220.617826,8882.471304,-13100.233016
137.285307,-5033.400406,8956.491898,-9729.412825
137.285617,7105.977043,10510.924376,-6818.249932
137.285927,3330.926739,8512.368333,-4979.620737
137.286236,2590.720797,9992.780217,0.000000
137.286546,-4367.215058,6513.812290,3294.210641
137.286855,3701.029710,7624.121203,-8120.612279
137.287165,1554.432478,7550.100608,-21220.845295
137.287474,4441.235652,9326.594869,-18462.901502
137.287784,-8882.471304,13323.706956,-12027.699319
137.288094,-296.082377,15692.365970,-9576.193725
137.288403,4589.276840,15766.386565,-12793.794817
137.288713,5625.565159,10658.965565,-8963.317327
137.289022,-3108.864956,5033.400406,-153.219100
137.289332,-2146.597232,-1258.350101,1838.629195
137.289641,4219.173869,5403.503377,-9806.022374
137.289951,3552.988522,8364.327145,-19612.044749
137.290261,-222.061783,11843.295072,-12563.966167
137.290570,-7624.121203,14285.974681,-7277.907231
137.290880,222.061783,13545.768739,-11031.775171
137.291189,4293.194464,14211.954086,-18769.339701
137.291499,3552.988522,9252.574275,-11568.042020
137.291808,-8068.244768,4663.297435,-1608.800546
137.292118,-3552.988522,3923.091493,1762.019645
137.292428,666.185348,8956.491898,-10418.898773
137.292737,4811.338623,9770.718434,-17466.977354
137.293047,-2886.803174,9992.780217,-10725.336972
137.293356,-2960.823768,13397.727550,-6052.154434
137.293666,-2886.803174,12805.562797,-9499.584175
137.293975,1924.535449,13915.871710,-17237.148705
137.294285,2368.659014,10732.986159,-17543.586904
137.294594,-888.247130,7105.977043,-9576.193725
137.294904,-370.102971,2368.659014,-3753.867940
137.295214,-222.061783,6069.688724,-3983.696590
137.295523,1776.494261,10066.800811,-7431.126331
137.295833,2886.803174,8660.409521,-9959.241474
137.296142,-1332.370696,9622.677246,-11108.384721
137.296452,1850.514855,11103.089130,-16088.005458
137.296761,592.164754,13915.871710,-15781.567259
137.297071,1554.432478,12879.583391,-12487.356617
137.297381,-2590.720797,7698.141797,-10189.070123
137.297690,-0.000000,7402.059420,-11031.775171
137.298000,4071.132681,8142.265362,-8810.098227
137.298309,5181.441594,8808.450710,-5822.325785
137.298619,1998.556043,6365.771101,-1378.971896
137.298928,-592.164754,9474.636058,-1378.971896
137.299238,-2960.823768,10362.883188,-4136.915689
137.299548,-1480.411884,11029.068536,-16088.005458
137.299857,-814.226536,12805.562797,-18922.558801
137.300167,-1110.308913,14508.036463,-17083.929605
137.300476,-666.185348,12065.356855,-13330.061665
137.300786,-148.041188,11103.089130,-10418.898773
137.301095,-1332.370696,12361.439231,-6281.983084
137.301405,-3182.885551,10955.047942,-1838.629195
137.301715,-0.000000,10288.862594,-6818.249932
137.302024,2590.720797,6735.874072,-15475.129060
137.302334,3034.844362,5403.503377,-14249.376263
137.302643,-3404.947333,5625.565159,-6818.249932
137.302953,-3849.070898,8438.347739,-5056.230287
137.303262,3478.967927,9252.574275,-7660.954980
137.303572,74.020594,11843.295072,-9422.974625
137.303882,-3775.050304,9104.533087,-7507.735880
137.304191,-1480.411884,8512.368333,-11414.822920
137.304501,3404.947333,7550.100608,-18386.291952
137.304810,-1332.370696,8512.368333,-16011.395908
137.305120,-3701.029710,11695.253884,-6435.202183
137.305429,666.185348,14063.912898,-4443.353888
137.305739,3627.009116,12435.459826,-10035.851024
137.306049,444.123565,9548.656652,-8503.660028
137.306358,-2516.700203,7105.977043,-6818.249932
137.306668,-3108.864956,9252.574275,-12334.137518
137.306977,1554.432478,10881.027347,-17850.025103
137.307287,3330.926739,13249.686362,-18922.558801
137.307596,2812.782580,11991.336260,-11261.603821
137.307906,-962.267725,10658.965565,-689.485948
137.308215,1332.370696,5625.565159,-2451.505594
137.308525,1628.453072,4219.173869,-7354.516781
137.308835,444.123565,3256.906145,-5975.544884
137.309144,-4367.215058,6513.812290,-5209.449386
137.309454,-888.247130,9474.636058,-14249.376263
137.309763,-0.000000,17024.736666,-19995.092498
137.310073,-1258.350101,20059.581028,-19305.606550
137.310382,-2072.576638,18949.272115,-17160.539155
137.310692,-2072.576638,14878.139434,-12717.185267
137.311002,2146.597232,10362.883188,-9806.022374
137.311311,2738.761985,3478.967927,-5975.544884
137.311621,592.164754,962.267725,-2451.505594
137.311930,-814.226536,-814.226536,229.828649
137.312240,-2146.597232,2220.617826,-3447.429741
137.312549,-0.000000,8808.450710,-12640.575717
137.312859,740.205942,13397.727550,-17466.977354
137.313169,-2960.823768,16654.633695,-17773.415554
137.313478,-0.000000,15692.365970,-18999.168350
137.313788,-148.041188,15322.262999,-16471.053207
137.314097,592.164754,8142.265362,-12947.013916
137.314407,-1406.391290,4515.256246,-5898.935335
137.314716,-222.061783,4219.173869,-1685.410096
137.315026,1924.535449,7254.018232,-4290.134789
137.315336,3330.926739,9474.636058,-8427.050478
137.315645,1850.514855,11843.295072,-12947.013916
137.315955,-1110.308913,12213.398043,-12793.794817
137.316264,-296.082377,13841.851115,-12104.308868
137.316574,1110.308913,12953.603985,-14325.985813
137.316883,1184.329507,10658.965565,-13713.109414
137.317193,-1850.514855,6587.832884,-7354.516781
137.317503,-0.000000,370.102971,-5592.497135
137.317812,-1776.494261,3849.070898,-5898.935335
137.318122,222.061783,7994.224174,-7507.735880
137.318431,592.164754,11695.253884,-6281.983084
137.318741,1554.432478,13767.830521,-10265.679673
137.319050,1776.494261,13249.686362,-13023.623466
137.319360,-1110.308913,12361.439231,-10495.508323
137.319670,-1184.329507,10436.903782,-10801.946522
137.319979,-370.102971,7105.977043,-11261.603821
137.320289,-0.000000,8216.285956,-9806.022374
137.320598,-666.185348,7402.059420,-5592.497135
137.320908,-222.061783,9252.574275,-6588.421283
137.321217,-518.144159,9326.594869,-10265.679673
137.321527,-888.247130,7846.182985,-10495.508323
137.321837,444.123565,7031.956449,-7967.393179
137.322146,1850.514855,6809.894666,-6511.811733
137.322456,-1628.453072,5995.668130,-4060.306139
137.322765,666.185348,7846.182985,-1378.971896
137.323075,2590.720797,7772.162391,-5822.325785
137.323384,2368.659014,7698.141797,-8273.831378
137.323694,-1184.329507,12435.459826,-3600.648841
137.324003,-962.267725,13841.851115,-4443.353888
137.324313,-0.000000,13619.789333,-9576.193725
137.324623,-2664.741391,12657.521608,-10189.070123
137.324932,-1628.453072,10214.842000,-7431.126331
137.325242,-3182.885551,9696.697840,-13789.718964
137.325551,-2886.803174,9326.594869,-13330.061665
137.325861,-1628.453072,11991.336260,-11031.775171
137.326170,666.185348,12213.398043,-11031.775171
137.326480,1332.370696,15396.283594,-11108.384721
137.326790,518.144159,12805.562797,-8503.660028
137.327099,-666.185348,13027.624579,-9422.974625
137.327409,-740.205942,12583.501014,-11644.651570
137.327718,-1480.411884,10658.965565,-14249.376263
137.328028,814.226536,8364.327145,-18079.853753
137.328337,814.226536,7550.100608,-17007.320056
137.328647,1332.370696,6883.915261,-13023.623466
137.328957,2072.576638,5551.544565,-9729.412825
137.329266,6587.832884,2294.638420,-8044.002729
137.329576,-7920.203579,-0.000000,766.095498
137.329885,4811.338623,8438.347739,-766.095498
137.330195,-222.061783,2368.659014,-11031.775171
137.330504,7994.224174,11399.171507,-23059.474490
137.330814,-8882.471304,9622.677246,-19841.873398
137.331124,-4737.318029,14878.139434,-18539.511052
137.331433,-444.123565,15914.427753,-19841.873398
137.331743,3849.070898,15544.324782,-20301.530697
137.332052,3552.988522,11325.150913,-8963.317327
137.332362,-2442.679609,5921.647536,-2068.457845
137.332671,592.164754,5995.668130,-4903.011187
137.332981,27091.537477,3701.029710,-9806.022374
137.333291,-17468.860231,-7920.203579,229.828649
137.333600,-10658.965565,-3923.091493,-6971.469032
137.333910,2294.638420,13101.645173,-32329.230016
137.334219,592.164754,24204.734303,-18309.682402
137.334529,5477.523971,16654.633695,-4903.011187
137.334838,-13841.851115,4663.297435,-11644.651570
137.335148,4663.297435,5477.523971,-25970.637382
137.335458,-2664.741391,10066.800811,-10112.460574
137.335767,-2960.823768,8734.430116,-9652.803275
137.336077,-1850.514855,8808.450710,-9806.022374
137.336386,-296.082377,10140.821405,-9346.365076
137.336696,14434.015869,15544.324782,-17007.320056
137.337005,-7031.956449,2812.782580,-15934.786358
137.337315,-3701.029710,15322.262999,612.876398
137.337625,-7550.100608,3775.050304,-383.047749
137.337934,4811.338623,8364.327145,-29188.238474
137.338244,370.102971,2146.597232,-22829.645840
137.338553,-4663.297435,9178.553681,-9116.536426
137.338863,-4071.132681,5995.668130,-8120.612279
137.339172,5551.544565,13841.851115,-14632.424012
137.339482,6735.874072,9104.533087,-10418.898773
137.339791,-1924.535449,6587.832884,-3907.087040
137.340101,-2664.741391,6365.771101,4903.011187
137.340411,-3034.844362,6735.874072,-3677.258390
137.340720,4145.153275,12139.377449,-23442.522239
137.341030,2220.617826,11991.336260,-23289.303139
137.341339,-6365.771101,14285.974681,-11721.261119
137.341649,1554.432478,14211.954086,-10342.289223
137.341958,5773.606348,18061.024985,-12947.013916
137.342268,-2442.679609,13101.645173,-3524.039291
137.342578,-1850.514855,7846.182985,1838.629195
137.342887,-0.000000,3478.967927,-6741.640382
137.343197,1776.494261,7402.059420,-15092.081311
137.343506,666.185348,7105.977043,-14709.033562
137.343816,2960.823768,11325.150913,-11874.480219
137.344125,-518.144159,15544.324782,-6205.373534
137.344435,-2368.659014,15914.427753,-2145.067394
137.344745,-1406.391290,13841.851115,-5822.325785
137.345054,1776.494261,10214.842000,-13253.452115
137.345364,-666.185348,9252.574275,-11644.651570
137.345673,-3849.070898,4589.276840,-9346.365076
137.345983,-2960.823768,7402.059420,-10342.289223
137.346292,-3404.947333,9030.512492,-8656.879127
137.346602,-3330.926739,11991.336260,-6281.983084
137.346912,962.267725,14359.995275,-9039.926876
137.347221,2812.782580,12879.583391,-10955.165621
137.347531,-0.000000,10214.842000,-5669.106685
137.347840,-4663.297435,5625.565159,1072.533697
137.348150,-1110.308913,2220.617826,-10495.508323
137.348459,-2442.679609,7179.997637,-10725.336972
137.348769,2072.576638,12953.603985,-10189.070123
137.349079,518.144159,12139.377449,-15321.909960
137.349388,-2220.617826,16210.510130,-10495.508323
137.349698,-296.082377,10584.944971,-8580.269578
137.350007,-4293.194464,7328.038826,-13713.109414
137.350317,1850.514855,8808.450710,-13789.718964
137.350626,3552.988522,3627.009116,-5439.278036
137.350936,-5255.462188,6513.812290,-5822.325785
137.351245,814.226536,8142.265362,-5669.106685
137.351555,444.123565,7105.977043,-14019.547613
137.351864,3775.050304,14211.954086,-18845.949251
137.352174,1110.308913,13323.706956,-13023.623466
137.352483,-5181.441594,14137.933492,-9652.803275
137.352793,3849.070898,10955.047942,-14555.814462
137.353102,3330.926739,6661.853478,-20224.921147
137.353412,4811.338623,5847.626942,-12947.013916
137.353721,-888.247130,4145.153275,-3753.867940
137.354031,-2220.617826,8660.409521,0.000000
137.354340,4885.359217,10658.965565,-8733.488677
137.354650,7772.162391,11029.068536,-18386.291952
137.354959,-2886.803174,12435.459826,-18233.072852
137.355269,-4367.215058,10732.986159,-7814.174080
137.355578,-5773.606348,14211.954086,-13253.452115
137.355888,7328.038826,9326.594869,-21986.940793
137.356197,1702.473667,7402.059420,-15475.129060
137.356507,-6143.709319,2442.679609,-1149.143247
137.356816,-3182.885551,5921.647536,3524.039291
137.357125,-888.247130,4811.338623,-7431.126331
137.357435,6735.874072,10955.047942,-14479.204912
137.357744,-888.247130,6957.935855,-8503.660028
137.358054,-740.205942,10658.965565,-3830.477490
137.358363,-6439.791695,11399.171507,-9652.803275
137.358673,11695.253884,10955.047942,-18539.511052
137.358982,444.123565,5773.606348,-10572.117872
137.359292,-3923.091493,5995.668130,7737.564530
137.359601,-6365.771101,8216.285956,6588.421283
137.359911,9252.574275,7254.018232,-6894.859482
137.360220,814.226536,11547.212695,-9959.241474
137.360530,-2368.659014,7550.100608,-4060.306139
137.360839,-6809.894666,14063.912898,-2987.772442
137.361149,6069.688724,10807.006753,-12870.404366
137.361458,1776.494261,11103.089130,-7890.783629
137.361768,-4145.153275,9548.656652,5822.325785
137.362077,-4293.194464,6513.812290,11721.261119
137.362387,3404.947333,6439.791695,76.609550
137.362696,1628.453072,6291.750507,-2068.457845
137.363006,1036.288319,8586.388927,-1608.800546
137.363315,-3256.906145,9770.718434,-3140.991542
137.363625,3034.844362,12213.398043,-5898.935335
137.363934,-3775.050304,13841.851115,-3677.258390
137.364244,1850.514855,14582.057057,-1225.752797
137.364553,1332.370696,14508.036463,766.095498
137.364863,1554.432478,13027.624579,-459.657299
137.365172,370.102971,8290.306550,383.047749
137.365481,1702.473667,6883.915261,-2451.505594
137.365791,1332.370696,9474.636058,-2604.724693
137.366100,444.123565,8586.388927,-459.657299
137.366410,-592.164754,11177.109724,2451.505594
137.366719,-0.000000,16728.654289,3064.381992
137.367029,814.226536,10658.965565,-1838.629195
137.367338,370.102971,6513.812290,-5209.449386
137.367648,-1850.514855,6143.709319,-2834.553343
137.367957,296.082377,7179.997637,-1455.581446
137.368267,3108.864956,5181.441594,-1225.752797
137.368576,2368.659014,11917.315666,1915.238745
137.368886,1036.288319,9622.677246,9116.536426
137.369195,-4959.379811,11917.315666,6435.202183
137.369505,2886.803174,6883.915261,1685.410096
137.369814,1480.411884,12065.356855,-4979.620737
137.370124,-2886.803174,5107.421000,-4673.182538
137.370433,-592.164754,10584.944971,-5975.544884
137.370743,1554.432478,13619.789333,-10342.289223
137.371052,-888.247130,11843.295072,-2068.457845
137.371362,-2442.679609,12361.439231,11108.384721
137.371671,2886.803174,10510.924376,6358.592633
137.371981,370.102971,8216.285956,-306.438199
137.372290,-4515.256246,5033.400406,3217.601092
137.372600,-4959.379811,5995.668130,229.828649
137.372909,2146.597232,7698.141797,-13866.328514
137.373219,5255.462188,12213.398043,-11568.042020
137.373528,-1850.514855,10362.883188,1455.581446
137.373837,1036.288319,9918.759623,2757.943793
137.374147,2590.720797,10436.903782,4903.011187
137.374456,-370.102971,8364.327145,5056.230287
137.374766,-1480.411884,1998.556043,153.219100
137.375075,1110.308913,3552.988522,-3140.991542
137.375385,1554.432478,6439.791695,-8120.612279
137.375694,-2368.659014,10214.842000,-6741.640382
137.376004,-3849.070898,10732.986159,-612.876398
137.376313,2886.803174,13545.768739,-4060.306139
137.376623,370.102971,16802.674883,-8733.488677
137.376932,740.205942,10658.965565,-4903.011187
137.377242,-5181.441594,6661.853478,229.828649
137.377551,6291.750507,7920.203579,-3370.820191
137.377861,7402.059420,8586.388927,-7201.297681
137.378170,-1998.556043,7772.162391,2604.724693
137.378480,-2886.803174,8734.430116,5745.716235
137.378789,4515.256246,10658.965565,-4673.182538
137.379099,7698.141797,7698.141797,-6435.202183
137.379408,-2738.761985,7772.162391,-1915.238745
137.379718,-3034.844362,8512.368333,0.000000
137.380027,3108.864956,6957.935855,-2681.334243
137.380337,3256.906145,11547.212695,-4290.134789
137.380646,-1184.329507,3182.885551,-2145.067394
137.380956,-1776.494261,8956.491898,5209.449386
137.381265,-3478.967927,14359.995275,2528.115143
137.381575,148.041188,10807.006753,-3907.087040
137.381884,-2442.679609,12287.418637,-5439.278036
137.382194,1850.514855,15396.283594,-6205.373534
137.382503,2072.576638,14211.954086,-6741.640382
137.382812,-2516.700203,9030.512492,-3753.867940
137.383122,1406.391290,9030.512492,3370.820191
137.383431,5033.400406,7698.141797,5822.325785
137.383741,222.061783,5255.462188,3677.258390
137.384050,-5255.462188,7402.059420,7124.688131
137.384360,-2738.761985,5773.606348,1685.410096
137.384669,4737.318029,7624.121203,-10955.165621
137.384979,2664.741391,5699.585753,-5745.716235
137.385288,-1850.514855,5773.606348,2451.505594
137.385598,-1480.411884,6883.915261,3907.087040
137.385907,1036.288319,9474.636058,4136.915689
137.386217,1480.411884,8290.306550,8427.050478
137.386526,-2146.597232,4737.318029,6128.763984
137.386836,-814.226536,9548.656652,1455.581446
137.387145,-666.185348,11029.068536,-1991.848295
137.387455,-592.164754,13027.624579,-5745.716235
137.387764,-1480.411884,12731.542202,-689.485948
137.388074,-888.247130,17764.942608,-3140.991542
137.388383,-444.123565,14359.995275,-2834.553343
137.388693,-148.041188,10510.924376,-1991.848295
137.389002,888.247130,12065.356855,1149.143247
137.389312,3330.926739,7624.121203,3524.039291
137.389621,1924.535449,7920.203579,919.314598
137.389931,-2220.617826,6957.935855,2298.286494
137.390240,3849.070898,9030.512492,2987.772442
137.390550,1184.329507,9104.533087,-3064.381992
137.390859,1776.494261,8586.388927,-8044.002729
137.391168,-3256.906145,8660.409521,1685.410096
137.391478,2146.597232,9696.697840,1838.629195
137.391787,1036.288319,7476.080014,-3447.429741
137.392097,-962.267725,7846.182985,1915.238745
137.392406,814.226536,4071.132681,7048.078582
137.392716,-2220.617826,11177.109724,229.828649
137.393025,888.247130,11251.130318,-2834.553343
137.393335,-4811.338623,16950.716072,-3370.820191
137.393644,-148.041188,10288.862594,-4749.792088
137.393954,-1258.350101,12213.398043,-5898.935335
137.394263,2146.597232,12805.562797,-5669.106685
137.394573,-1036.288319,11177.109724,-5592.497135
137.394882,-2738.761985,8364.327145,919.314598
137.395192,-962.267725,9178.553681,6435.202183
137.395501,370.102971,5773.606348,3294.210641
137.395811,1332.370696,7550.100608,0.000000
137.396120,-0.000000,5477.523971,-2298.286494
137.396430,2664.741391,5625.565159,-5209.449386
137.396739,962.267725,8068.244768,-6205.373534
137.397049,-222.061783,9622.677246,-306.438199
137.397358,-1036.288319,9326.594869,2604.724693
137.397668,4737.318029,8068.244768,-306.438199
137.397977,-1332.370696,8734.430116,-1608.800546
137.398287,-1776.494261,9474.636058,4136.915689
137.398596,-0.000000,7624.121203,536.266849
137.398906,888.247130,11029.068536,-5669.106685
137.399215,-4663.297435,13989.892304,1225.752797
137.399524,-5329.482782,11991.336260,842.705048
137.399834,-1998.556043,16728.654289,-5132.839837
137.400143,5921.647536,12361.439231,-8886.707777
137.400453,-888.247130,12805.562797,-10572.117872
137.400762,-4071.132681,6217.729913,689.485948
137.401072,1628.453072,8512.368333,3370.820191
137.401381,3478.967927,7105.977043,1991.848295
137.401691,444.123565,7328.038826,3753.867940
137.402000,-2146.597232,5255.462188,8273.831378
137.402310,2442.679609,4293.194464,-2987.772442
137.402619,5773.606348,10732.986159,-11184.994271
137.402929,-1110.308913,9474.636058,-6588.421283
137.403238,296.082377,7105.977043,-1225.752797
137.403548,888.247130,10807.006753,229.828649
137.403857,296.082377,10732.986159,3677.258390
137.404167,-1110.308913,7254.018232,5975.544884
137.404476,-296.082377,10362.883188,1915.238745
137.404786,-1628.453072,12435.459826,-5975.544884
137.405095,-2664.741391,8586.388927,-4749.792088
137.405405,-2812.782580,12065.356855,-6665.030833
137.405714,-0.000000,19245.354492,-6894.859482
137.406024,2886.803174,15544.324782,-3140.991542
137.406333,-3330.926739,10362.883188,2221.676944
137.406643,-2294.638420,10658.965565,4366.744339
137.406952,5329.482782,4293.194464,76.609550
137.407262,-0.000000,4219.173869,-1915.238745
137.407571,-2664.741391,4885.359217,4136.915689
137.407880,1184.329507,4885.359217,3370.820191
137.408190,4737.318029,9770.718434,-4596.572988
137.408499,1776.494261,7402.059420,-3677.258390
137.408809,-3775.050304,4811.338623,5515.887586
137.409118,-4663.297435,11177.109724,1762.019645
137.409428,7105.977043,7920.203579,-3447.429741
137.409737,-1036.288319,6735.874072,-2911.162892
137.410047,2960.823768,5329.482782,1455.581446
137.410356,-5625.565159,7254.018232,2451.505594
137.410666,2590.720797,14582.057057,1685.410096
137.410975,148.041188,10955.047942,1149.143247
137.411285,-296.082377,14211.954086,-766.095498
137.411594,-2812.782580,15100.201217,-1072.533697
137.411904,740.205942,8586.388927,-2834.553343
137.412213,-2886.803174,13471.748144,-5822.325785
137.412523,2812.782580,8068.244768,-5439.278036
137.412832,1258.350101,11473.192101,-2757.943793
137.413142,-2368.659014,9696.697840,4136.915689
137.413451,-2886.803174,10066.800811,14632.424012
137.413761,3701.029710,8290.306550,4443.353888
137.414070,4811.338623,6587.832884,-3294.210641
137.414380,-3552.988522,4737.318029,-1532.190996
137.414689,-518.144159,5625.565159,0.000000
137.414999,2368.659014,7179.997637,-3830.477490
137.415308,4071.132681,6587.832884,-3294.210641
137.415618,-2220.617826,10881.027347,4979.620737
137.415927,-1406.391290,9030.512492,6281.983084
137.416236,-888.247130,8956.491898,0.000000
137.416546,1702.473667,9622.677246,-3140.991542
137.416855,-0.000000,12509.480420,-4903.011187
137.417165,-2886.803174,8512.368333,-5209.449386
137.417474,-2590.720797,14285.974681,-2221.676944
137.417784,1998.556043,12361.439231,-4826.401637
137.418093,1036.288319,10288.862594,-229.828649
137.418403,-3034.844362,10436.903782,8427.050478
137.418712,-1554.432478,9252.574275,1532.190996
137.419022,5181.441594,3552.988522,-7660.954980
137.419331,-3701.029710,6587.832884,-4136.915689
137.419641,962.267725,3182.885551,1685.410096
137.419950,1702.473667,7920.203579,-1991.848295
137.420260,-1110.308913,7550.100608,-2451.505594
137.420569,4737.318029,5107.421000,1225.752797
137.420879,-518.144159,6957.935855,2298.286494
137.421188,-518.144159,7772.162391,-689.485948
137.421498,1110.308913,7550.100608,229.828649
137.421807,3404.947333,7402.059420,-4903.011187
137.422117,-1998.556043,9622.677246,-7277.907231
137.422426,-1480.411884,16284.530724,1608.800546
137.422736,370.102971,14878.139434,2451.505594
137.423045,-2516.700203,9844.739029,-2451.505594
137.423355,-4441.235652,14656.077652,2221.676944
137.423664,2368.659014,11029.068536,-3524.039291
137.423974,444.123565,10288.862594,-8197.221829
137.424283,-4811.338623,13471.748144,-3753.867940
137.424592,1480.411884,7698.141797,0.000000
137.424902,-592.164754,10584.944971,-3830.477490
137.425211,1406.391290,9030.512492,2681.334243
137.425521,-3256.906145,6661.853478,7201.297681
137.425830,3256.906145,6809.894666,612.876398
137.426140,4515.256246,8290.306550,-5592.497135
137.426449,3182.885551,5699.585753,-3217.601092
137.426759,-3034.844362,8142.265362,0.000000
137.427068,-1110.308913,10288.862594,-1838.629195
137.427378,1406.391290,9030.512492,2528.115143
137.427687,-1332.370696,12583.501014,3600.648841
137.427997,-3478.967927,10436.903782,-306.438199
137.428306,-3404.947333,16506.592507,-383.047749
137.428616,1998.556043,11695.253884,-6205.373534
137.428925,-888.247130,10955.047942,-9193.145976
137.429235,-3256.906145,16062.468941,-5745.716235
137.429544,1332.370696,11473.192101,-995.924147
137.429854,592.164754,11917.315666,995.924147
137.430163,518.144159,8216.285956,6435.202183
137.430473,-0.000000,7031.956449,7890.783629
137.430782,-148.041188,4071.132681,-766.095498
137.431092,-1184.329507,3404.947333,229.828649
137.431401,-1554.432478,5477.523971,383.047749
137.431711,2072.576638,11621.233289,-6358.592633
137.432020,4737.318029,13027.624579,-6588.421283
137.432330,1184.329507,8216.285956,-1225.752797
137.432639,1184.329507,10584.944971,3753.867940
137.432948,-518.144159,7031.956449,5898.935335
137.433258,-3034.844362,11473.192101,2834.553343
137.433567,1776.494261,4959.379811,1378.971896
137.433877,-1110.308913,9622.677246,-4060.306139
137.434186,1998.556043,13693.809927,-4060.306139
137.434496,-2812.782580,14730.098246,-2604.724693
137.434805,222.061783,12805.562797,-6052.154434
137.435115,-666.185348,15100.201217,-3677.258390
137.435424,-2146.597232,13323.706956,-1455.581446
137.435734,-2294.638420,7698.141797,-2374.896044
137.436043,592.164754,3478.967927,-3370.820191
137.436353,3256.906145,7402.059420,-3830.477490
137.436662,-0.000000,5477.523971,0.000000
137.436972,-1036.288319,5625.565159,2528.115143
137.437281,1036.288319,6513.812290,3064.381992
137.437591,2368.659014,10214.842000,-766.095498
137.437900,1554.432478,9178.553681,-4596.572988
137.438210,814.226536,6513.812290,-4903.011187
137.438519,-1184.329507,7105.977043,-2221.676944
137.438829,1776.494261,6291.750507,689.485948
137.439138,-1776.494261,10955.047942,-2681.334243
137.439448,1184.329507,10214.842000,459.657299
137.439757,-2960.823768,12879.583391,2298.286494
137.440067,296.082377,13915.871710,-842.705048
137.440376,-2368.659014,15248.242405,-8120.612279
137.440686,-0.000000,9696.697840,-8733.488677
137.440995,-1628.453072,15174.221811,-7354.516781
137.441304,-1110.308913,9252.574275,-7277.907231
137.441614,-444.123565,10955.047942,-1915.238745
137.441923,814.226536,9252.574275,3370.820191
137.442233,296.082377,3256.906145,4596.572988
137.442542,-2220.617826,4885.359217,5822.325785
137.442852,1480.411884,6513.812290,689.485948
137.443161,4293.194464,2368.659014,-5209.449386
137.443471,-5403.503377,7105.977043,-6665.030833
137.443780,-148.041188,10510.924376,-3600.648841
137.444090,-444.123565,11251.130318,-5745.716235
137.444399,-1702.473667,9400.615463,-4749.792088
137.444709,1850.514855,13545.768739,2221.676944
137.445018,-0.000000,9992.780217,2757.943793
137.445328,-962.267725,7624.121203,0.000000
137.445637,-888.247130,7031.956449,536.266849
137.445947,592.164754,11769.274478,-612.876398
137.446256,-814.226536,9326.594869,612.876398
137.446566,-5329.482782,14137.933492,1532.190996
137.446875,-1554.432478,16210.510130,-459.657299
137.447185,1702.473667,15544.324782,-9806.022374
137.447494,1406.391290,11917.315666,-8733.488677
137.447804,-1850.514855,3997.112087,-3140.991542
137.448113,-1554.432478,6069.688724,306.438199
137.448423,-1036.288319,4219.173869,2604.724693
137.448732,2516.700203,7476.080014,2911.162892
137.449042,-2146.597232,4145.153275,2451.505594
137.449351,1036.288319,7254.018232,-919.314598
137.449660,3330.926739,7105.977043,-4213.525239
137.449970,888.247130,6957.935855,-3907.087040
137.450279,-0.000000,8438.347739,536.266849
137.450589,-888.247130,13915.871710,1991.848295
137.450899,2664.741391,10362.883188,-2451.505594
137.451208,-1480.411884,8216.285956,-229.828649
137.451518,-4071.132681,12139.377449,3064.381992
137.451827,814.226536,13989.892304,-766.095498
137.452137,-1554.432478,15840.407159,-8120.612279
137.452446,-0.000000,10807.006753,-7431.126331
137.452756,-4293.194464,14359.995275,-3830.477490
137.453065,-1406.391290,12287.418637,-3600.648841
137.453375,666.185348,8290.306550,-1225.752797
137.453684,2294.638420,5699.585753,459.657299
137.453994,518.144159,5699.585753,1991.848295
137.454303,-592.164754,6143.709319,4903.011187
137.454613,-370.102971,3849.070898,2681.334243
137.454922,2294.638420,5551.544565,153.219100
137.455232,3330.926739,12213.398043,-4443.353888
137.455541,2368.659014,6661.853478,-4673.182538
137.455851,-2368.659014,6809.894666,-2757.943793
137.456160,-3923.091493,8882.471304,2987.772442
137.456470,592.164754,10362.883188,-2374.896044
137.456779,2738.761985,9252.574275,-4903.011187
137.457089,-1850.514855,10362.883188,-919.314598
137.457398,-2516.700203,12953.603985,153.219100
137.457708,2146.597232,13175.665768,-383.047749
137.458017,370.102971,11843.295072,-2451.505594
137.458327,-3849.070898,13323.706956,-1532.190996
137.458636,-2812.782580,15322.262999,-2757.943793
137.458946,-0.000000,11695.253884,-6052.154434
137.459255,1776.494261,13841.851115,-5975.544884
137.459565,296.082377,7624.121203,-4979.620737
137.459874,-370.102971,9400.615463,-3294.210641
137.460184,592.164754,1998.556043,1532.190996
