#time,accel_x,accel_y,accel_z
101.445380,-0.000000,8734.430116,-1225.752797
101.445690,-444.123565,9252.574275,-1532.190996
101.445999,370.102971,10288.862594,-3677.258390
101.446308,-666.185348,9844.739029,-842.705048
101.446618,-296.082377,9992.780217,-766.095498
101.446927,444.123565,9326.594869,-1378.971896
101.447237,-74.020594,8882.471304,-995.924147
101.447546,-222.061783,7772.162391,-2374.896044
101.447856,370.102971,9622.677246,-1991.848295
101.448165,-0.000000,9474.636058,-1532.190996
101.448474,-296.082377,9992.780217,-612.876398
101.448784,666.185348,9548.656652,-1302.362347
101.449093,148.041188,8808.450710,-919.314598
101.449403,-592.164754,9400.615463,-689.485948
101.449712,-296.082377,9548.656652,-1532.190996
101.450022,1184.329507,9474.636058,-2604.724693
101.450331,1406.391290,8216.285956,-1072.533697
101.450641,740.205942,10214.842000,-306.438199
101.450950,296.082377,9474.636058,-919.314598
101.451259,-370.102971,8364.327145,-1302.362347
101.451569,666.185348,9178.553681,-1225.752797
101.451878,-222.061783,9548.656652,0.000000
101.452188,666.185348,9252.574275,-536.266849
101.452497,148.041188,9178.553681,-153.219100
101.452807,1184.329507,8216.285956,536.266849
101.453116,740.205942,6809.894666,1378.971896
101.453425,3997.112087,5625.565159,919.314598
101.453735,3108.864956,7105.977043,5822.325785
101.454044,2886.803174,7476.080014,10495.508323
101.454354,-1702.473667,4959.379811,10878.556072
101.454663,6957.935855,9844.739029,6971.469032
101.454973,5255.462188,6513.812290,2834.553343
101.455282,888.247130,8068.244768,5745.716235
101.455591,-1850.514855,10214.842000,14938.862211
101.455901,1184.329507,11769.274478,10725.336972
101.456210,2516.700203,11103.089130,3983.696590
101.456520,-814.226536,12213.398043,9269.755526
101.456829,-1110.308913,12213.398043,10801.946522
101.457139,-17320.819043,10881.027347,5286.058936
101.457448,19689.478057,21984.116477,-8580.269578
101.457758,-4219.173869,4959.379811,10955.165621
101.458067,-11917.315666,10732.986159,30720.429470
101.458376,2072.576638,16580.613101,14096.157163
101.458686,-4441.235652,6661.853478,-4060.306139
101.458995,11473.192101,12879.583391,-4596.572988
101.459305,-16358.551318,-0.000000,13406.671215
101.459614,1628.453072,15988.448347,4290.134789
101.459924,666.185348,4885.359217,3447.429741
101.460233,-5551.544565,7624.121203,10725.336972
101.460542,4885.359217,4811.338623,16088.005458
101.460852,-4737.318029,-1480.411884,11951.089769
101.461161,4219.173869,6661.853478,11951.089769
101.461471,-4589.276840,3182.885551,14938.862211
101.461780,296.082377,9474.636058,536.266849
101.462090,-4441.235652,6957.935855,5209.449386
101.462399,1776.494261,16358.551318,2987.772442
101.462708,3997.112087,10658.965565,-4136.915689
101.463018,3108.864956,12805.562797,6052.154434
101.463327,-2072.576638,13471.748144,23595.741338
101.463637,-888.247130,3034.844362,23442.522239
101.463946,6217.729913,7476.080014,13176.842566
101.464256,-888.247130,3923.091493,8733.488677
101.464565,-1036.288319,13027.624579,4749.792088
101.464875,5477.523971,13989.892304,-2145.067394
101.465184,3849.070898,16950.716072,-1532.190996
101.465493,-1406.391290,15840.407159,11951.089769
101.465803,-8956.491898,13323.706956,19152.387450
101.466112,-1406.391290,10510.924376,11644.651570
101.466422,4071.132681,8068.244768,-3600.648841
101.466731,5625.565159,7994.224174,-4213.525239
101.467041,-0.000000,8956.491898,8963.317327
101.467350,-1184.329507,10732.986159,16700.881856
101.467659,-3034.844362,9770.718434,13713.109414
101.467969,5107.421000,7105.977043,4443.353888
101.468278,2738.761985,2220.617826,919.314598
101.468588,-6291.750507,2368.659014,6205.373534
101.468897,-4441.235652,7031.956449,8197.221829
101.469207,4441.235652,9770.718434,-3830.477490
101.469516,8660.409521,8364.327145,-7277.907231
101.469825,-666.185348,7254.018232,10878.556072
101.470135,-9770.718434,8882.471304,24208.617737
101.470444,-2220.617826,11843.295072,12717.185267
101.470754,5921.647536,12139.377449,-3753.867940
101.471063,-888.247130,10732.986159,-4366.744339
101.471373,-7328.038826,14211.954086,1915.238745
101.471682,-2368.659014,12805.562797,-6818.249932
101.471991,7698.141797,14137.933492,-9346.365076
101.472301,2072.576638,12879.583391,6894.859482
101.472610,-6957.935855,8438.347739,24974.713235
101.472920,-2220.617826,7476.080014,19841.873398
101.473229,12361.439231,5921.647536,-3677.258390
101.473539,6217.729913,6365.771101,-4749.792088
101.473848,-7920.203579,8068.244768,1991.848295
101.474158,-148.041188,6809.894666,-1838.629195
101.474467,10510.924376,10362.883188,-9116.536426
101.474776,2590.720797,5551.544565,4136.915689
101.475086,-11251.130318,3552.988522,26813.342430
101.475395,1776.494261,6883.915261,18079.853753
101.475705,4589.276840,3330.926739,-7201.297681
101.476014,2368.659014,10436.903782,-11338.213370
101.476324,-814.226536,11843.295072,-1838.629195
101.476633,3701.029710,13471.748144,-9806.022374
101.476942,5551.544565,13397.727550,-4903.011187
101.477252,-5625.565159,15396.283594,12870.404366
101.477561,-2812.782580,8512.368333,12870.404366
101.477871,-2886.803174,9622.677246,6435.202183
101.478180,-740.205942,12805.562797,689.485948
101.478490,7105.977043,13767.830521,-11797.870669
101.478799,7920.203579,10955.047942,-18309.682402
101.479108,-3552.988522,13915.871710,4366.744339
101.479418,-2368.659014,17838.963202,18156.463303
101.479727,6143.709319,10732.986159,3830.477490
101.480037,1036.288319,10066.800811,612.876398
101.480346,-10881.027347,7105.977043,15781.567259
101.480656,1628.453072,4737.318029,-1455.581446
101.480965,12435.459826,3330.926739,-20378.140247
101.481275,-1258.350101,5181.441594,1532.190996
101.481584,-4811.338623,9252.574275,22446.598091
101.481893,3849.070898,5329.482782,9269.755526
101.482203,1628.453072,6365.771101,-1302.362347
101.482512,-8512.368333,7772.162391,9652.803275
101.482822,1998.556043,10584.944971,-1072.533697
101.483131,3775.050304,7179.997637,-21986.940793
101.483441,-6513.812290,9622.677246,-536.266849
101.483750,-4293.194464,11917.315666,15245.300410
101.484059,-1184.329507,6439.791695,76.609550
101.484369,-2220.617826,13545.768739,-4519.963438
101.484678,-5477.523971,16580.613101,2451.505594
101.484988,2294.638420,14730.098246,-6358.592633
101.485297,370.102971,10658.965565,-11184.994271
101.485607,-1850.514855,11177.109724,4366.744339
101.485916,-2294.638420,7846.182985,6128.763984
101.486225,-1480.411884,4737.318029,-7737.564530
101.486535,370.102971,9104.533087,-3447.429741
101.486844,-1184.329507,10288.862594,4903.011187
101.487154,3997.112087,10066.800811,-3907.087040
101.487463,1628.453072,10807.006753,306.438199
101.487773,-1776.494261,6069.688724,7354.516781
101.488082,-2812.782580,4959.379811,1685.410096
101.488392,-148.041188,6143.709319,-11491.432470
101.488701,3478.967927,12953.603985,-10495.508323
101.489010,1924.535449,11695.253884,-6358.592633
101.489320,-1110.308913,12213.398043,1991.848295
101.489629,222.061783,11991.336260,7737.564530
101.489939,5329.482782,6439.791695,2451.505594
101.490248,888.247130,2294.638420,-9729.412825
101.490558,518.144159,7105.977043,-5592.497135
101.490867,4441.235652,8216.285956,-3294.210641
101.491176,4367.215058,12509.480420,-7354.516781
101.491486,2146.597232,12657.521608,2374.896044
101.491795,148.041188,8882.471304,11951.089769
101.492105,-1998.556043,6365.771101,1532.190996
101.492414,-0.000000,5329.482782,-10418.898773
101.492724,6439.791695,7476.080014,-10189.070123
101.493033,6217.729913,10955.047942,-10572.117872
101.493342,814.226536,13101.645173,-4443.353888
101.493652,-3330.926739,11917.315666,14325.985813
101.493961,-0.000000,8734.430116,10495.508323
101.494271,1184.329507,5625.565159,-8044.002729
101.494580,-592.164754,7846.182985,-1685.410096
101.494890,-3552.988522,11621.233289,306.438199
101.495199,3108.864956,11547.212695,-14325.985813
101.495509,1258.350101,12805.562797,-10648.727422
101.495818,-7328.038826,11547.212695,10572.117872
101.496127,-5477.523971,5847.626942,3907.087040
101.496437,-1036.288319,7328.038826,-12947.013916
101.496746,-592.164754,11177.109724,-5975.544884
101.497056,-592.164754,11103.089130,-1685.410096
101.497365,-0.000000,7846.182985,-2987.772442
101.497675,1554.432478,8956.491898,4979.620737
101.497984,-1628.453072,4145.153275,9269.755526
101.498293,-1628.453072,1776.494261,306.438199
101.498603,444.123565,5551.544565,536.266849
101.498912,962.267725,12139.377449,-1455.581446
101.499222,2590.720797,9992.780217,-5975.544884
101.499531,148.041188,11843.295072,995.924147
101.499841,-5477.523971,10955.047942,8120.612279
101.500150,-5625.565159,6587.832884,-1302.362347
101.500459,1110.308913,11103.089130,-11031.775171
101.500754,2072.576638,12805.562797,-7507.735880
101.501064,2960.823768,13693.809927,-1762.019645
101.501374,740.205942,11473.192101,6281.983084
101.501683,3256.906145,10362.883188,13406.671215
101.501993,1554.432478,6439.791695,7814.174080
101.502303,-2220.617826,3552.988522,-1302.362347
101.502612,3701.029710,8068.244768,-2145.067394
101.502922,2886.803174,8586.388927,-5286.058936
101.503232,4885.359217,12213.398043,-4290.134789
101.503541,-888.247130,14211.954086,6435.202183
101.503851,-6587.832884,9770.718434,9729.412825
101.504161,-1110.308913,7402.059420,-4903.011187
101.504470,-1332.370696,9474.636058,-12180.918418
101.504780,518.144159,13471.748144,-7124.688131
101.505090,5181.441594,16432.571912,-4749.792088
101.505399,1924.535449,13767.830521,-1991.848295
101.505709,-1776.494261,10658.965565,12487.356617
101.506019,-592.164754,5847.626942,11031.775171
101.506328,1406.391290,2664.741391,-5745.716235
101.506638,-2812.782580,5255.462188,-3447.429741
101.506948,1850.514855,8438.347739,-766.095498
101.507257,2738.761985,9030.512492,-10495.508323
101.507567,-2442.679609,11399.171507,-1915.238745
101.507877,-7179.997637,9104.533087,8886.707777
101.508186,-5181.441594,4071.132681,-5515.887586
101.508496,222.061783,8216.285956,-13330.061665
101.508806,1554.432478,12509.480420,-5745.716235
101.509115,3775.050304,10140.821405,-2604.724693
101.509425,1258.350101,11399.171507,2681.334243
101.509735,370.102971,9992.780217,14862.252661
101.510044,592.164754,5477.523971,6435.202183
101.510354,666.185348,4885.359217,-3524.039291
101.510664,2368.659014,11843.295072,-2604.724693
101.510973,2960.823768,14730.098246,-5132.839837
101.511283,-444.123565,12213.398043,-8350.440928
101.511593,-1554.432478,13249.686362,5132.839837
101.511902,-4145.153275,10066.800811,6665.030833
101.512212,-2590.720797,6291.750507,-9269.755526
101.512522,-1480.411884,9326.594869,-8733.488677
101.512831,370.102971,12435.459826,-1455.581446
101.513141,6883.915261,11251.130318,-4366.744339
101.513451,1628.453072,11843.295072,3140.991542
101.513760,-666.185348,9770.718434,16700.881856
101.514070,-74.020594,3034.844362,4366.744339
101.514380,-1480.411884,4367.215058,-6435.202183
101.514689,-962.267725,9326.594869,0.000000
101.514999,2812.782580,8882.471304,-6358.592633
101.515309,2072.576638,11843.295072,-13483.280765
101.515618,-6513.812290,10362.883188,2834.553343
101.515928,-8142.265362,7328.038826,7431.126331
101.516238,-2146.597232,5625.565159,-11721.261119
101.516547,-1036.288319,7994.224174,-11184.994271
101.516857,148.041188,11843.295072,919.314598
101.517167,4293.194464,10881.027347,-2374.896044
101.517476,2590.720797,9844.739029,76.609550
101.517786,-222.061783,8512.368333,12563.966167
101.518096,2368.659014,3923.091493,1762.019645
101.518405,-1110.308913,4959.379811,-6971.469032
101.518715,592.164754,12361.439231,1838.629195
101.519025,5403.503377,11325.150913,-4979.620737
101.519334,3034.844362,12805.562797,-10955.165621
101.519644,-5107.421000,13693.809927,5745.716235
101.519954,-4663.297435,7179.997637,6281.983084
101.520263,296.082377,7105.977043,-13176.842566
101.520573,-888.247130,12879.583391,-8273.831378
101.520883,4515.256246,14582.057057,0.000000
101.521192,4219.173869,14878.139434,-4903.011187
101.521502,-814.226536,12879.583391,6281.983084
101.521812,-222.061783,8882.471304,13100.233016
101.522121,-370.102971,1628.453072,612.876398
101.522431,-1998.556043,4811.338623,-2451.505594
101.522741,222.061783,11029.068536,3064.381992
101.523050,3330.926739,10362.883188,-9729.412825
101.523360,1924.535449,10955.047942,-7354.516781
101.523670,-7624.121203,11103.089130,9422.974625
101.523979,-6883.915261,6809.894666,5209.449386
101.524289,-666.185348,6291.750507,-12717.185267
101.524599,-2368.659014,9918.759623,-9346.365076
101.524908,-2442.679609,12583.501014,0.000000
101.525218,3552.988522,14285.974681,-4903.011187
101.525528,1480.411884,10807.006753,1302.362347
101.525837,-518.144159,7105.977043,13023.623466
101.526147,370.102971,4515.256246,5592.497135
101.526457,-74.020594,3404.947333,-1915.238745
101.526766,3330.926739,8956.491898,-536.266849
101.527076,4737.318029,9326.594869,-8273.831378
101.527386,1480.411884,11621.233289,-11797.870669
101.527695,-5995.668130,11177.109724,6358.592633
101.528005,-3256.906145,9030.512492,-842.705048
101.528315,-0.000000,7402.059420,-13942.938064
101.528624,-2368.659014,12805.562797,-6511.811733
101.528934,-0.000000,13693.809927,2298.286494
101.529244,6587.832884,12435.459826,-7507.735880
101.529553,3701.029710,12065.356855,2528.115143
101.529863,888.247130,7254.018232,12257.527968
101.530173,2812.782580,3775.050304,842.705048
101.530482,-1184.329507,6069.688724,-2834.553343
101.530792,2960.823768,10732.986159,1302.362347
101.531102,6143.709319,8734.430116,-9959.241474
101.531411,592.164754,9326.594869,-6665.030833
101.531721,-5255.462188,11621.233289,6818.249932
101.532031,-3182.885551,8364.327145,-2757.943793
101.532340,-1702.473667,6143.709319,-17007.320056
101.532650,-3849.070898,10881.027347,-5362.668486
101.532960,592.164754,14508.036463,-1915.238745
101.533269,2442.679609,11843.295072,-9422.974625
101.533579,-74.020594,10807.006753,4519.963438
101.533889,-1406.391290,6217.729913,13866.328514
101.534198,1924.535449,1628.453072,-1225.752797
101.534508,-592.164754,5477.523971,-2145.067394
101.534818,2146.597232,7550.100608,2298.286494
101.535127,2812.782580,10807.006753,-7967.393179
101.535437,-1332.370696,9844.739029,-5515.887586
101.535747,-4589.276840,13175.665768,6971.469032
101.536056,-4441.235652,6587.832884,-229.828649
101.536366,-2368.659014,7772.162391,-17390.367805
101.536676,-3627.009116,13471.748144,-5745.716235
101.536985,1628.453072,12139.377449,-2298.286494
101.537295,5625.565159,10362.883188,-8656.879127
101.537605,-222.061783,11029.068536,5515.887586
101.537914,-0.000000,7772.162391,15858.176809
101.538224,1628.453072,2886.803174,2374.896044
101.538534,1628.453072,9252.574275,-3217.601092
101.538843,3108.864956,11547.212695,-4903.011187
101.539153,2664.741391,9178.553681,-11414.822920
101.539463,-444.123565,9474.636058,-3830.477490
101.539772,-4515.256246,9104.533087,7737.564530
101.540082,-3256.906145,8512.368333,-4596.572988
101.540392,-5107.421000,10288.862594,-10495.508323
101.540701,-1258.350101,11991.336260,-3064.381992
101.541011,3701.029710,11547.212695,-6511.811733
101.541321,3552.988522,11399.171507,-6511.811733
101.541631,222.061783,11547.212695,13023.623466
101.541940,-1406.391290,5551.544565,14479.204912
101.542250,2368.659014,4589.276840,-919.314598
101.542560,-1332.370696,8068.244768,689.485948
101.542869,2812.782580,11843.295072,-1149.143247
101.543179,5625.565159,13249.686362,-12870.404366
101.543489,-296.082377,10436.903782,-1455.581446
101.543798,-5995.668130,9474.636058,11951.089769
101.544108,-5255.462188,8364.327145,-5439.278036
101.544418,-2442.679609,7624.121203,-13100.233016
101.544727,-2072.576638,10214.842000,-2451.505594
101.545037,4515.256246,12361.439231,-7507.735880
101.545347,4737.318029,13619.789333,-10112.460574
101.545656,-2590.720797,12361.439231,13483.280765
101.545966,1702.473667,7105.977043,15934.786358
101.546276,-0.000000,2442.679609,-2757.943793
101.546585,962.267725,7254.018232,-536.266849
101.546895,4293.194464,11029.068536,-2374.896044
101.547205,6291.750507,12657.521608,-14096.157163
101.547514,-2738.761985,12065.356855,766.095498
101.547824,-4589.276840,8216.285956,9652.803275
101.548134,-1184.329507,5847.626942,-10878.556072
101.548443,-3775.050304,7476.080014,-13330.061665
101.548753,-3182.885551,11843.295072,3600.648841
101.549063,4959.379811,14359.995275,-6052.154434
101.549372,6883.915261,12805.562797,-9346.365076
101.549682,-1850.514855,9844.739029,14632.424012
101.549992,-1924.535449,7994.224174,14019.547613
101.550301,-518.144159,4737.318029,-6052.154434
101.550611,740.205942,8290.306550,-2068.457845
101.550921,4737.318029,12805.562797,-4519.963438
101.551230,3256.906145,10584.944971,-10648.727422
101.551540,-5033.400406,12509.480420,4903.011187
101.551850,-4737.318029,9474.636058,8963.317327
101.552159,-370.102971,5181.441594,-10801.946522
101.552469,-3627.009116,9104.533087,-11031.775171
101.552779,-2516.700203,13101.645173,0.000000
101.553088,7846.182985,13249.686362,-8580.269578
101.553398,2590.720797,14285.974681,-3753.867940
101.553708,-4885.359217,12287.418637,19228.997000
101.554017,592.164754,5625.565159,11721.261119
101.554327,-1110.308913,3034.844362,-6358.592633
101.554637,-888.247130,9400.615463,1225.752797
101.554946,2664.741391,11103.089130,-3830.477490
101.555256,3552.988522,9844.739029,-13713.109414
101.555566,-4293.194464,11103.089130,3370.820191
101.555875,-5403.503377,9844.739029,6818.249932
101.556185,-1406.391290,4515.256246,-13559.890315
101.556495,-5255.462188,8438.347739,-8350.440928
101.556804,-2368.659014,13323.706956,2451.505594
101.557114,7846.182985,10732.986159,-11951.089769
101.557424,3478.967927,13397.727550,-7048.078582
101.557733,-4293.194464,8808.450710,18462.901502
101.558043,370.102971,2368.659014,8044.002729
101.558353,962.267725,4293.194464,-8580.269578
101.558662,740.205942,9918.759623,-842.705048
101.558972,6809.894666,12435.459826,-4596.572988
101.559282,2812.782580,11621.233289,-10648.727422
101.559591,-3256.906145,12139.377449,6741.640382
101.559901,-3627.009116,6957.935855,7354.516781
101.560211,-1406.391290,4515.256246,-15475.129060
101.560520,-4737.318029,9252.574275,-9039.926876
101.560830,2664.741391,10955.047942,689.485948
101.561140,6735.874072,13471.748144,-10495.508323
101.561449,-0.000000,13323.706956,153.219100
101.561759,-1628.453072,11029.068536,19382.216099
101.562069,1110.308913,3849.070898,5286.058936
101.562378,-814.226536,5107.421000,-7124.688131
101.562688,-74.020594,10140.821405,2528.115143
101.562998,6291.750507,11621.233289,-4903.011187
101.563307,5847.626942,11621.233289,-13636.499864
101.563617,-5033.400406,11843.295072,7660.954980
101.563927,-5107.421000,7846.182985,8963.317327
101.564236,-3182.885551,2368.659014,-10418.898773
101.564546,-1924.535449,10658.965565,-8733.488677
101.564856,-666.185348,13471.748144,-153.219100
101.565165,7402.059420,13693.809927,-12563.966167
101.565475,-148.041188,13397.727550,-3600.648841
101.565785,-3552.988522,9992.780217,14785.643111
101.566094,-740.205942,6217.729913,3753.867940
101.566404,-0.000000,5181.441594,-7660.954980
101.566714,2220.617826,10732.986159,1991.848295
101.567023,4145.153275,8882.471304,-2911.162892
101.567333,444.123565,9622.677246,-9116.536426
101.567643,-2368.659014,9400.615463,6818.249932
101.567952,-2294.638420,4441.235652,2757.943793
101.568262,-592.164754,4885.359217,-15321.909960
101.568572,-5625.565159,11325.150913,-6894.859482
101.568881,2368.659014,11769.274478,1302.362347
101.569191,6069.688724,12879.583391,-12334.137518
101.569501,518.144159,15100.201217,766.095498
101.569810,-2072.576638,8142.265362,17237.148705
101.570120,-888.247130,4663.297435,2145.067394
101.570430,-74.020594,3701.029710,-5822.325785
101.570739,3923.091493,11769.274478,2221.676944
101.571049,5551.544565,10955.047942,-7277.907231
101.571359,1406.391290,11177.109724,-6281.983084
101.571668,-3552.988522,12361.439231,12104.308868
101.571978,-0.000000,7476.080014,-1302.362347
101.572288,-2294.638420,6143.709319,-14402.595362
101.572597,-6957.935855,11325.150913,-919.314598
101.572907,5181.441594,11843.295072,-4443.353888
101.573217,4663.297435,11695.253884,-14938.862211
101.573526,-3330.926739,12435.459826,8810.098227
101.573836,-2960.823768,7179.997637,19535.435199
101.574146,1924.535449,2886.803174,-1991.848295
101.574455,-222.061783,8290.306550,-4060.306139
101.574765,-370.102971,11621.233289,6052.154434
101.575075,5181.441594,11769.274478,-10035.851024
101.575384,666.185348,11991.336260,-13023.623466
101.575694,-4145.153275,13027.624579,5745.716235
101.576004,-2516.700203,6217.729913,-3064.381992
101.576313,-3552.988522,5403.503377,-12410.747068
101.576623,-3404.947333,13397.727550,536.266849
101.576933,4367.215058,10881.027347,-2145.067394
101.577242,6439.791695,7994.224174,-12027.699319
101.577552,-2812.782580,11103.089130,6281.983084
101.577862,-2738.761985,4589.276840,15321.909960
101.578171,5403.503377,2812.782580,-6128.763984
101.578481,-1184.329507,8142.265362,-5745.716235
101.578791,-148.041188,11621.233289,5056.230287
101.579100,5329.482782,11917.315666,-7354.516781
101.579410,296.082377,11473.192101,-9116.536426
101.579720,-4441.235652,12139.377449,8044.002729
101.580029,-518.144159,6661.853478,-1762.019645
101.580339,-1480.411884,4589.276840,-14709.033562
101.580649,-888.247130,12879.583391,-919.314598
101.580958,4515.256246,11991.336260,-3370.820191
101.581268,4959.379811,9918.759623,-9116.536426
101.581578,-2220.617826,11177.109724,14555.814462
101.581887,-740.205942,7772.162391,15934.786358
101.582197,2368.659014,2738.761985,-6665.030833
101.582507,814.226536,7402.059420,-3983.696590
101.582816,-370.102971,11473.192101,4290.134789
101.583126,5107.421000,8216.285956,-6435.202183
101.583436,592.164754,12065.356855,-4979.620737
101.583745,-3182.885551,9326.594869,10265.679673
101.584055,-1924.535449,5921.647536,383.047749
101.584365,-5847.626942,7698.141797,-7277.907231
101.584674,222.061783,12287.418637,-1225.752797
101.584984,6661.853478,12509.480420,-11184.994271
101.585294,2886.803174,11103.089130,-10035.851024
101.585603,-1776.494261,13915.871710,13253.452115
101.585913,-1850.514855,7550.100608,12947.013916
101.586223,518.144159,4145.153275,-6205.373534
101.586532,-2590.720797,7105.977043,2221.676944
101.586842,814.226536,11769.274478,2068.457845
101.587152,6069.688724,9474.636058,-15245.300410
101.587461,-0.000000,12213.398043,-4826.401637
101.587771,-4589.276840,9992.780217,9346.365076
101.588081,-1110.308913,4959.379811,-4673.182538
101.588390,-3404.947333,6217.729913,-7890.783629
101.588700,-1332.370696,12361.439231,1378.971896
101.589010,6735.874072,10955.047942,-8197.221829
101.589319,3182.885551,12287.418637,-8273.831378
101.589629,-2442.679609,12213.398043,15475.129060
101.589939,370.102971,6365.771101,9499.584175
101.590248,4589.276840,5255.462188,-7431.126331
101.590558,-4737.318029,8290.306550,3447.429741
101.590868,1184.329507,12361.439231,2298.286494
101.591177,6957.935855,11621.233289,-16011.395908
101.591487,-1924.535449,14285.974681,-2757.943793
101.591797,-5921.647536,9918.759623,13253.452115
101.592107,-1554.432478,4589.276840,-4903.011187
101.592416,-4071.132681,9326.594869,-10035.851024
101.592726,-0.000000,12287.418637,1225.752797
101.593036,8142.265362,10658.965565,-7277.907231
101.593345,1332.370696,12287.418637,-4979.620737
101.593655,-3034.844362,11917.315666,17313.758255
101.593965,2368.659014,3849.070898,11108.384721
101.594274,-148.041188,3478.967927,-5056.230287
101.594584,-5033.400406,8512.368333,2451.505594
101.594894,2220.617826,11843.295072,-612.876398
101.595203,7105.977043,13101.645173,-17007.320056
101.595513,-1406.391290,13471.748144,-3830.477490
101.595823,-6217.729913,10807.006753,11108.384721
101.596132,-4219.173869,5995.668130,-4366.744339
101.596442,-3108.864956,9474.636058,-9806.022374
101.596752,222.061783,11473.192101,-459.657299
101.597061,4293.194464,11399.171507,-6128.763984
101.597371,4885.359217,11251.130318,76.609550
101.597681,-592.164754,9030.512492,12947.013916
101.597990,1258.350101,5255.462188,8580.269578
101.598300,-2294.638420,4293.194464,-2374.896044
101.598610,-1110.308913,9696.697840,2834.553343
101.598919,6809.894666,8956.491898,-2451.505594
101.599229,3330.926739,11177.109724,-15092.081311
101.599539,-2886.803174,12731.542202,2374.896044
101.599848,-4071.132681,9844.739029,9499.584175
101.600158,-1036.288319,6069.688724,-7737.564530
101.600468,-3404.947333,10955.047942,-7584.345430
101.600777,-148.041188,12805.562797,229.828649
101.601087,7994.224174,9844.739029,-9806.022374
101.601397,1850.514855,12361.439231,-2451.505594
101.601706,-1998.556043,10658.965565,18079.853753
101.602016,1332.370696,2812.782580,9039.926876
101.602326,-1036.288319,3627.009116,-3064.381992
101.602635,-2368.659014,9918.759623,5515.887586
101.602945,6291.750507,10214.842000,-3370.820191
101.603254,4959.379811,10140.821405,-14709.033562
101.603564,-2738.761985,12805.562797,3600.648841
101.603874,-5033.400406,8438.347739,11797.870669
101.604183,-3478.967927,6809.894666,-7584.345430
101.604493,-2368.659014,10955.047942,-8427.050478
101.604803,1776.494261,13841.851115,-2681.334243
101.605112,5181.441594,11991.336260,-10495.508323
101.605422,-0.000000,12805.562797,-383.047749
101.605731,-0.000000,8956.491898,18233.072852
101.606041,962.267725,3404.947333,10725.336972
101.606351,-1850.514855,3034.844362,-3677.258390
101.606660,-2294.638420,6735.874072,3830.477490
101.606970,4589.276840,9030.512492,-6818.249932
101.607279,4441.235652,12953.603985,-16777.491406
101.607589,-4589.276840,10955.047942,3370.820191
101.607899,-7105.977043,7846.182985,8120.612279
101.608208,-2368.659014,5773.606348,-11874.480219
101.608518,-3034.844362,9918.759623,-9729.412825
101.608828,222.061783,10807.006753,229.828649
101.609137,4663.297435,11103.089130,-7048.078582
101.609447,3701.029710,13471.748144,0.000000
101.609756,222.061783,9918.759623,16164.615008
101.610066,1702.473667,2664.741391,5286.058936
101.610376,-1554.432478,4071.132681,-4826.401637
101.610685,-1554.432478,11103.089130,2681.334243
101.610995,4515.256246,11399.171507,-7124.688131
101.611304,4959.379811,13397.727550,-15321.909960
101.611614,-4663.297435,12435.459826,6435.202183
101.611924,-6143.709319,7476.080014,7431.126331
101.612233,-2368.659014,5477.523971,-10725.336972
101.612543,-1332.370696,9770.718434,-8656.879127
101.612853,3627.009116,12583.501014,0.000000
101.613162,6513.812290,10362.883188,-4673.182538
101.613472,-370.102971,12287.418637,5132.839837
101.613781,-74.020594,9252.574275,18079.853753
101.614091,3701.029710,3404.947333,1991.848295
101.614401,-2442.679609,4737.318029,-5669.106685
101.614710,-1554.432478,11251.130318,4749.792088
101.615020,4441.235652,11843.295072,-8350.440928
101.615329,4071.132681,11843.295072,-15321.909960
101.615639,-5181.441594,14582.057057,6128.763984
101.615949,-8290.306550,9992.780217,5822.325785
101.616258,-2886.803174,7476.080014,-15934.786358
101.616568,-1110.308913,9696.697840,-10342.289223
101.616877,1110.308913,11621.233289,153.219100
101.617187,6587.832884,11917.315666,-4443.353888
101.617497,3552.988522,9770.718434,4903.011187
101.617806,-74.020594,6809.894666,17466.977354
101.618116,1554.432478,814.226536,3753.867940
101.618426,-4515.256246,4145.153275,-2681.334243
101.618735,-444.123565,10807.006753,1991.848295
101.619045,7254.018232,10955.047942,-12257.527968
101.619354,2590.720797,13989.892304,-15628.348159
101.619664,-6143.709319,13471.748144,5592.497135
101.619974,-5921.647536,6365.771101,7201.297681
101.620283,-3034.844362,10066.800811,-8733.488677
101.620593,-1850.514855,11843.295072,-6511.811733
101.620902,4367.215058,13323.706956,1302.362347
101.621212,5477.523971,12805.562797,-5898.935335
101.621522,1332.370696,11399.171507,3677.258390
101.621831,518.144159,7105.977043,12027.699319
101.622141,1258.350101,1258.350101,1072.533697
101.622451,-2590.720797,5033.400406,-842.705048
101.622760,-148.041188,8660.409521,7048.078582
101.623070,3849.070898,9326.594869,-3753.867940
101.623379,2664.741391,10288.862594,-11031.775171
101.623689,-4293.194464,10732.986159,5515.887586
101.623999,-6365.771101,5403.503377,3447.429741
101.624308,-2146.597232,8882.471304,-12257.527968
101.624618,-1628.453072,11769.274478,-5439.278036
101.624927,1110.308913,12953.603985,-229.828649
101.625237,3552.988522,14359.995275,-4060.306139
101.625547,592.164754,12953.603985,3600.648841
101.625856,1110.308913,7698.141797,10112.460574
101.626166,-1110.308913,3552.988522,612.876398
101.626476,-2664.741391,5107.421000,-1072.533697
101.626785,3108.864956,8290.306550,1378.971896
101.627095,5921.647536,7698.141797,-10342.289223
101.627404,962.267725,11029.068536,-7814.174080
101.627714,-5551.544565,11843.295072,9652.803275
101.628024,-3923.091493,4959.379811,-1455.581446
101.628333,-1998.556043,6587.832884,-14938.862211
101.628643,-2220.617826,11843.295072,-6435.202183
101.628952,2812.782580,11843.295072,-1608.800546
101.629262,5477.523971,15914.427753,-8963.317327
101.629572,-962.267725,12657.521608,5669.106685
101.629881,518.144159,6439.791695,12947.013916
101.630191,-1554.432478,2960.823768,3217.601092
101.630501,-3552.988522,6957.935855,3370.820191
101.630810,4663.297435,8808.450710,766.095498
101.631120,7179.997637,9326.594869,-15321.909960
101.631429,-2516.700203,13397.727550,-7201.297681
101.631739,-4737.318029,11251.130318,5286.058936
101.632049,-814.226536,8956.491898,-6818.249932
101.632358,-2368.659014,8364.327145,-14249.376263
101.632668,-5403.503377,11103.089130,2911.162892
101.632977,1924.535449,10881.027347,459.657299
101.633287,8438.347739,12879.583391,-9346.365076
101.633597,1332.370696,11251.130318,6281.983084
101.633906,-888.247130,5921.647536,14709.033562
101.634216,-222.061783,3256.906145,1838.629195
101.634526,-2368.659014,5921.647536,4290.134789
101.634835,5033.400406,10436.903782,459.657299
101.635145,3478.967927,10584.944971,-11491.432470
101.635454,-3108.864956,12435.459826,-5515.887586
101.635764,-6439.791695,10214.842000,7048.078582
101.636074,-2738.761985,10066.800811,-10189.070123
101.636383,-2368.659014,10066.800811,-17083.929605
101.636693,-2886.803174,14063.912898,-2681.334243
101.637002,4293.194464,11843.295072,-2451.505594
101.637312,3478.967927,11029.068536,-4519.963438
101.637622,-888.247130,10732.986159,11951.089769
101.637931,666.185348,2664.741391,15628.348159
101.638241,666.185348,1258.350101,-766.095498
101.638550,-1776.494261,7179.997637,1378.971896
101.638860,5255.462188,9474.636058,-3064.381992
101.639170,6439.791695,10955.047942,-16164.615008
101.639479,-2368.659014,14582.057057,-4366.744339
101.639789,-6735.874072,13989.892304,9729.412825
101.640099,-2368.659014,7254.018232,-7967.393179
101.640408,-2886.803174,7994.224174,-14785.643111
101.640718,-2368.659014,12731.542202,995.924147
101.641027,3552.988522,11325.150913,-5056.230287
101.641337,5181.441594,12287.418637,-8580.269578
101.641647,-74.020594,12953.603985,15551.738609
101.641956,-0.000000,5699.585753,15628.348159
101.642266,-1110.308913,2960.823768,-1225.752797
101.642575,-2368.659014,6587.832884,3983.696590
101.642885,3627.009116,9178.553681,0.000000
101.643195,6883.915261,10658.965565,-17543.586904
101.643504,-1998.556043,11251.130318,-1991.848295
101.643814,-7920.203579,10214.842000,11874.480219
101.644124,-2960.823768,7476.080014,-7201.297681
101.644433,-2516.700203,10066.800811,-12717.185267
101.644743,-2812.782580,15988.448347,-1072.533697
101.645052,4367.215058,14063.912898,-6511.811733
101.645362,5847.626942,12583.501014,-8733.488677
101.645672,666.185348,11843.295072,12334.137518
101.645981,-1184.329507,2812.782580,13636.499864
101.646291,-2664.741391,2886.803174,612.876398
101.646600,-1184.329507,9622.677246,1838.629195
101.646910,5403.503377,8586.388927,-5592.497135
101.647220,4219.173869,10955.047942,-18156.463303
101.647529,-3849.070898,11177.109724,-842.705048
101.647839,-3108.864956,9474.636058,7890.783629
101.648149,-3034.844362,6513.812290,-8733.488677
101.648458,-4367.215058,8216.285956,-8886.707777
101.648768,-3627.009116,11251.130318,3294.210641
101.649077,5699.585753,11843.295072,-7507.735880
101.649387,5329.482782,12805.562797,-8656.879127
101.649697,-592.164754,11103.089130,10495.508323
101.650006,592.164754,5551.544565,9729.412825
101.650316,-814.226536,5033.400406,-766.095498
101.650625,-1998.556043,8068.244768,1072.533697
101.650935,3256.906145,7179.997637,-2451.505594
101.651245,3404.947333,10436.903782,-11568.042020
101.651554,-1850.514855,11177.109724,1685.410096
101.651864,-4737.318029,9622.677246,8197.221829
101.652174,-1924.535449,6143.709319,-10495.508323
101.652483,-3923.091493,7550.100608,-12947.013916
101.652793,814.226536,12953.603985,-1608.800546
101.653102,7031.956449,13471.748144,-6818.249932
101.653412,1776.494261,13175.665768,-3217.601092
101.653722,370.102971,10066.800811,17237.148705
101.654031,-444.123565,4737.318029,11721.261119
101.654341,-1406.391290,2960.823768,-3370.820191
101.654650,370.102971,10066.800811,-1762.019645
101.654960,4071.132681,9474.636058,-8733.488677
101.655270,2294.638420,12287.418637,-14019.547613
101.655579,-3849.070898,14063.912898,4443.353888
101.655889,-5551.544565,9030.512492,1302.362347
101.656199,-1036.288319,6587.832884,-12410.747068
101.656508,-4145.153275,7846.182985,-8580.269578
101.656818,-1406.391290,10658.965565,919.314598
101.657127,8290.306550,11103.089130,-11031.775171
101.657437,1184.329507,11991.336260,-4519.963438
101.657747,-2294.638420,10362.883188,15934.786358
101.658056,-518.144159,3775.050304,9193.145976
101.658366,-592.164754,4367.215058,-3983.696590
101.658675,-74.020594,8290.306550,459.657299
101.658985,6365.771101,9326.594869,-7124.688131
101.659295,2664.741391,10658.965565,-11414.822920
101.659604,-3997.112087,12879.583391,5362.668486
101.659914,-4959.379811,10214.842000,5669.106685
101.660223,-370.102971,7031.956449,-15321.909960
101.660533,-3330.926739,8364.327145,-8656.879127
101.660843,-814.226536,12953.603985,383.047749
101.661152,5181.441594,12953.603985,-9116.536426
101.661462,4811.338623,11473.192101,-4060.306139
101.661772,-592.164754,10066.800811,15858.176809
101.662081,-2220.617826,3330.926739,11031.775171
101.662391,-1702.473667,5699.585753,-766.095498
101.662700,1480.411884,9104.533087,76.609550
101.663010,6069.688724,7698.141797,-5056.230287
101.663320,1924.535449,13545.768739,-7737.564530
101.663629,-2738.761985,14508.036463,5975.544884
101.663939,-3701.029710,7698.141797,2757.943793
101.664248,-1628.453072,7328.038826,-9806.022374
101.664558,-8512.368333,11325.150913,-4749.792088
101.664868,888.247130,12731.542202,-2068.457845
101.665177,6735.874072,14878.139434,-11797.870669
101.665487,2442.679609,12879.583391,-1991.848295
101.665797,-1702.473667,11843.295072,14709.033562
101.666106,-2812.782580,5329.482782,6281.983084
101.666416,-1110.308913,3330.926739,-3370.820191
101.666725,3034.844362,7772.162391,2068.457845
101.667035,3923.091493,8882.471304,-4673.182538
101.667345,1332.370696,9918.759623,-6665.030833
101.667654,-3478.967927,10288.862594,5286.058936
101.667964,-2516.700203,5921.647536,-153.219100
101.668273,-4071.132681,5699.585753,-11951.089769
101.668583,-4737.318029,8882.471304,-5745.716235
101.668893,5181.441594,10510.924376,-995.924147
101.669202,5551.544565,14656.077652,-10878.556072
101.669512,-444.123565,13619.789333,2911.162892
101.669822,-1702.473667,9252.574275,14019.547613
101.670131,-0.000000,4441.235652,3447.429741
101.670441,-1628.453072,6809.894666,153.219100
101.670750,1776.494261,10510.924376,2068.457845
101.671060,7920.203579,9030.512492,-9269.755526
101.671370,-148.041188,10288.862594,-7507.735880
101.671679,-3997.112087,11177.109724,3217.601092
101.671989,-2368.659014,6365.771101,76.609550
101.672298,-2442.679609,6587.832884,-12257.527968
101.672608,-3182.885551,10288.862594,-536.266849
101.672918,1406.391290,12139.377449,-1302.362347
101.673227,8956.491898,13323.706956,-12947.013916
101.673537,592.164754,12213.398043,2451.505594
101.673847,-1406.391290,8068.244768,16011.395908
101.674156,-370.102971,5773.606348,2451.505594
101.674466,-2886.803174,5181.441594,1149.143247
101.674775,1036.288319,9696.697840,3907.087040
101.675085,4293.194464,10584.944971,-8044.002729
101.675395,296.082377,11843.295072,-10725.336972
101.675704,-4811.338623,11103.089130,5056.230287
101.676014,-3108.864956,9104.533087,-5209.449386
101.676323,-3182.885551,7328.038826,-15781.567259
101.676633,-2738.761985,9104.533087,-3600.648841
101.676943,814.226536,10510.924376,-1149.143247
101.677252,6217.729913,10288.862594,-10495.508323
101.677562,2590.720797,10362.883188,3370.820191
101.677871,-2812.782580,6809.894666,18079.853753
101.678181,1258.350101,2960.823768,2068.457845
101.678491,-148.041188,4811.338623,-2757.943793
101.678800,74.020594,12361.439231,2987.772442
101.679110,4293.194464,11917.315666,-10572.117872
101.679420,-370.102971,13175.665768,-10265.679673
101.679729,-5477.523971,13693.809927,6741.640382
101.680039,-1776.494261,8216.285956,-1072.533697
101.680348,-2368.659014,10214.842000,-14096.157163
101.680658,-3849.070898,10214.842000,-1455.581446
101.680968,4589.276840,11325.150913,-1838.629195
101.681277,5477.523971,10881.027347,-10955.165621
101.681587,-962.267725,11843.295072,6358.592633
101.681896,-222.061783,6069.688724,15858.176809
101.682206,592.164754,2516.700203,229.828649
101.682516,-1554.432478,7994.224174,-612.876398
101.682825,296.082377,9178.553681,4443.353888
101.683135,7550.100608,10362.883188,-11031.775171
101.683445,148.041188,11325.150913,-9576.193725
101.683754,-5107.421000,12065.356855,8044.002729
101.684064,-4071.132681,6365.771101,459.657299
101.684373,-2886.803174,5847.626942,-11338.213370
101.684683,-1110.308913,11029.068536,229.828649
101.684993,1702.473667,12953.603985,-2451.505594
101.685302,3849.070898,13249.686362,-9959.241474
101.685612,962.267725,12509.480420,6281.983084
101.685921,-2442.679609,8290.306550,14402.595362
101.686231,-962.267725,5329.482782,459.657299
101.686541,-666.185348,8512.368333,-1685.410096
101.686850,2664.741391,10732.986159,-383.047749
101.687160,4367.215058,9696.697840,-11721.261119
101.687470,-3552.988522,13101.645173,-5439.278036
101.687779,-2220.617826,9548.656652,8427.050478
101.688089,-1776.494261,5033.400406,-3600.648841
101.688398,-5403.503377,6365.771101,-8580.269578
101.688708,-1480.411884,8882.471304,995.924147
101.689018,5699.585753,10140.821405,-6052.154434
101.689327,5773.606348,15322.262999,-9806.022374
101.689637,-1332.370696,11547.212695,8273.831378
101.689946,-1702.473667,5995.668130,12180.918418
101.690256,-2294.638420,3330.926739,1838.629195
101.690566,-962.267725,8068.244768,1149.143247
101.690875,2886.803174,11251.130318,-2145.067394
101.691185,3627.009116,11399.171507,-12870.404366
101.691495,-222.061783,12879.583391,-3140.991542
101.691804,-2072.576638,8216.285956,7201.297681
101.692114,-2812.782580,6883.915261,-3600.648841
101.692423,-4885.359217,6217.729913,-5362.668486
101.692733,222.061783,10362.883188,-153.219100
101.693043,5329.482782,8660.409521,-7277.907231
101.693352,3478.967927,11769.274478,-6511.811733
101.693662,-888.247130,11177.109724,12947.013916
101.693971,1406.391290,4441.235652,11261.603821
101.694281,-666.185348,4515.256246,-612.876398
101.694591,-3775.050304,11695.253884,4673.182538
101.694900,2368.659014,11103.089130,-1608.800546
101.695210,4811.338623,11843.295072,-15551.738609
101.695520,-1332.370696,14434.015869,-3294.210641
101.695829,-5773.606348,9474.636058,8503.660028
101.696139,-3330.926739,8660.409521,-6741.640382
101.696448,-2664.741391,9030.512492,-11568.042020
101.696758,1036.288319,11251.130318,-3217.601092
101.697068,3775.050304,10140.821405,-6435.202183
101.697377,2960.823768,9400.615463,-3140.991542
101.697687,1332.370696,9548.656652,13636.499864
101.697996,666.185348,3701.029710,11414.822920
101.698306,-1998.556043,2812.782580,-1838.629195
101.698616,-2442.679609,6587.832884,383.047749
101.698925,5699.585753,10362.883188,-6052.154434
101.699235,3552.988522,12583.501014,-15092.081311
101.699544,-2516.700203,15470.304188,-766.095498
101.699854,-3701.029710,9548.656652,6358.592633
101.700164,-6365.771101,6069.688724,-6128.763984
101.700473,-4293.194464,10881.027347,-8120.612279
101.700783,2442.679609,11325.150913,-5056.230287
101.701093,6735.874072,10066.800811,-10342.289223
101.701402,2516.700203,13471.748144,229.828649
101.701712,-148.041188,6069.688724,18386.291952
101.702021,2072.576638,4293.194464,8886.707777
101.702331,-2664.741391,3849.070898,1302.362347
101.702641,-1702.473667,9400.615463,5132.839837
101.702950,5625.565159,9178.553681,-5822.325785
101.703260,6069.688724,11843.295072,-17237.148705
101.703569,-3849.070898,12731.542202,1838.629195
101.703879,-4959.379811,9548.656652,10648.727422
101.704189,-3923.091493,7846.182985,-6052.154434
101.704498,-4663.297435,10881.027347,-10801.946522
101.704808,962.267725,12065.356855,-612.876398
101.705117,4441.235652,12361.439231,-8044.002729
101.705427,3849.070898,14211.954086,-3830.477490
101.705736,1554.432478,11029.068536,12793.794817
101.706046,-1184.329507,4811.338623,8580.269578
101.706355,-3478.967927,2072.576638,1991.848295
101.706664,-1332.370696,7994.224174,5439.278036
101.706974,6217.729913,7994.224174,-6205.373534
101.707283,2590.720797,11103.089130,-15934.786358
101.707593,-3108.864956,12953.603985,1225.752797
101.707902,-5107.421000,7254.018232,5286.058936
101.708212,-3404.947333,7846.182985,-9959.241474
101.708521,-3775.050304,9844.739029,-9422.974625
101.708830,5773.606348,9400.615463,842.705048
101.709140,3775.050304,10362.883188,-5515.887586
101.709449,3701.029710,12879.583391,766.095498
101.709759,1110.308913,9030.512492,12717.185267
101.710068,296.082377,4959.379811,8503.660028
101.710377,-1998.556043,8142.265362,1838.629195
101.710687,1998.556043,9844.739029,306.438199
101.710996,5107.421000,10288.862594,-10725.336972
101.711306,1036.288319,12953.603985,-11721.261119
101.711615,-4515.256246,14582.057057,2604.724693
101.711925,-3182.885551,7698.141797,3677.258390
101.712234,-4367.215058,8586.388927,-7890.783629
101.712543,-3108.864956,9474.636058,-4673.182538
101.712853,2590.720797,9326.594869,-1685.410096
101.713162,7105.977043,12509.480420,-7584.345430
101.713472,1776.494261,13101.645173,3600.648841
101.713781,2368.659014,7994.224174,14709.033562
101.714091,-3256.906145,2368.659014,8120.612279
101.714400,-2072.576638,5403.503377,1762.019645
101.714709,2442.679609,8068.244768,0.000000
101.715019,3108.864956,8956.491898,-9269.755526
101.715328,-0.000000,13693.809927,-7507.735880
101.715638,-2072.576638,12583.501014,3907.087040
101.715947,-4663.297435,7105.977043,-1532.190996
101.716256,-5551.544565,8808.450710,-10418.898773
101.716566,-3256.906145,10362.883188,-5286.058936
101.716875,2812.782580,11843.295072,-4290.134789
101.717185,4663.297435,13027.624579,-7660.954980
101.717494,1924.535449,10955.047942,6052.154434
101.717804,1036.288319,8364.327145,13866.328514
101.718113,296.082377,2516.700203,4290.134789
101.718422,-3701.029710,2442.679609,2068.457845
101.718732,-0.000000,8216.285956,1685.410096
101.719041,5995.668130,7328.038826,-12104.308868
101.719351,2516.700203,12213.398043,-12870.404366
101.719660,-5625.565159,14285.974681,3753.867940
101.719969,-5107.421000,7550.100608,76.609550
101.720279,-3478.967927,7031.956449,-10112.460574
101.720588,-370.102971,11177.109724,-3983.696590
101.720898,1998.556043,11769.274478,-3294.210641
101.721207,5255.462188,11325.150913,-6511.811733
101.721517,1628.453072,13841.851115,3907.087040
101.721826,2516.700203,8882.471304,10418.898773
101.722135,370.102971,4367.215058,4903.011187
101.722445,-3478.967927,6735.874072,3907.087040
101.722754,2590.720797,9696.697840,1915.238745
101.723064,4441.235652,5921.647536,-10265.679673
101.723373,-296.082377,9918.759623,-6588.421283
101.723683,-3701.029710,12213.398043,6128.763984
101.723992,-3552.988522,6661.853478,-612.876398
101.724301,-3849.070898,9030.512492,-9499.584175
101.724611,-5773.606348,13471.748144,-842.705048
101.724920,2442.679609,13693.809927,-3830.477490
101.725230,4663.297435,13027.624579,-9729.412825
101.725539,1184.329507,14878.139434,3064.381992
101.725848,74.020594,9474.636058,15628.348159
101.726158,-296.082377,3182.885551,2987.772442
101.726467,-2886.803174,4959.379811,2451.505594
101.726777,3775.050304,6069.688724,2911.162892
101.727086,3256.906145,5625.565159,-9269.755526
101.727396,-1480.411884,9104.533087,-6281.983084
101.727705,-3552.988522,10362.883188,6665.030833
101.728014,-3775.050304,6735.874072,-3600.648841
101.728324,-3997.112087,8586.388927,-13559.890315
101.728633,-3404.947333,13101.645173,-5669.106685
101.728943,3478.967927,13397.727550,-6665.030833
101.729252,5107.421000,14878.139434,-11874.480219
101.729561,1406.391290,13989.892304,3370.820191
101.729871,-962.267725,7550.100608,14709.033562
101.730180,1628.453072,2812.782580,4826.401637
101.730490,-1110.308913,5107.421000,4596.572988
101.730799,3997.112087,9178.553681,2374.896044
101.731109,4515.256246,7772.162391,-10801.946522
101.731418,-148.041188,10362.883188,-7124.688131
101.731727,-4219.173869,10881.027347,2757.943793
101.732037,-2738.761985,8364.327145,-4060.306139
101.732346,-3108.864956,9178.553681,-9959.241474
101.732656,-3404.947333,13027.624579,-2451.505594
101.732965,-0.000000,11769.274478,-3677.258390
101.733274,4145.153275,11473.192101,-6128.763984
101.733584,962.267725,11325.150913,5592.497135
101.733893,1554.432478,6883.915261,11108.384721
101.734203,-296.082377,3849.070898,5975.544884
101.734512,-3182.885551,10436.903782,8427.050478
101.734822,1628.453072,8142.265362,689.485948
101.735131,3923.091493,8216.285956,-11644.651570
101.735440,-592.164754,11843.295072,-5209.449386
101.735750,-6661.853478,11843.295072,5515.887586
101.736059,-2516.700203,9696.697840,-6894.859482
101.736369,-2664.741391,9770.718434,-15092.081311
101.736678,-3404.947333,13175.665768,-4443.353888
101.736988,518.144159,12805.562797,-4290.134789
101.737297,5329.482782,12435.459826,-10265.679673
101.737606,4663.297435,10807.006753,4903.011187
101.737916,-518.144159,5551.544565,15321.909960
101.738225,-1036.288319,3330.926739,7431.126331
101.738535,222.061783,5551.544565,3907.087040
101.738844,3404.947333,9326.594869,-1838.629195
101.739153,3997.112087,8364.327145,-12257.527968
101.739463,-2072.576638,14359.995275,-6435.202183
101.739772,-4589.276840,12435.459826,2451.505594
101.740082,-5033.400406,9030.512492,-6894.859482
101.740391,-4367.215058,12287.418637,-12257.527968
101.740701,-4737.318029,12657.521608,-4596.572988
101.741010,3108.864956,11695.253884,-4826.401637
101.741319,5107.421000,11621.233289,-7354.516781
101.741629,2072.576638,8808.450710,7507.735880
101.741938,-888.247130,5551.544565,15245.300410
101.742248,-2072.576638,3478.967927,9269.755526
101.742557,518.144159,4441.235652,4443.353888
101.742866,5773.606348,10214.842000,-4903.011187
101.743176,2590.720797,8956.491898,-8120.612279
101.743485,-2812.782580,10955.047942,766.095498
101.743795,-4589.276840,9474.636058,6358.592633
101.744104,-2368.659014,7698.141797,-6894.859482
101.744414,-6069.688724,11843.295072,-13100.233016
101.744723,-2886.803174,12583.501014,-5132.839837
101.745032,3997.112087,11843.295072,-7277.907231
101.745342,2590.720797,14285.974681,-6128.763984
101.745651,1628.453072,13101.645173,7584.345430
101.745961,592.164754,6439.791695,10955.165621
101.746270,-3256.906145,4811.338623,6205.373534
101.746580,1554.432478,9622.677246,3677.258390
101.746889,5847.626942,7476.080014,-5209.449386
101.747198,3404.947333,9030.512492,-13253.452115
101.747508,-2886.803174,10584.944971,-306.438199
101.747817,-3997.112087,8142.265362,5132.839837
101.748127,-4737.318029,8364.327145,-9422.974625
101.748436,-3552.988522,10362.883188,-12257.527968
101.748745,-2960.823768,9548.656652,1685.410096
101.749055,3997.112087,10140.821405,-7048.078582
101.749364,5921.647536,12953.603985,-6741.640382
101.749674,3182.885551,12879.583391,7124.688131
101.749983,-2886.803174,5477.523971,12257.527968
101.750293,-4515.256246,7846.182985,8886.707777
101.750602,1184.329507,8438.347739,1532.190996
101.750911,8142.265362,10214.842000,-10342.289223
101.751221,2664.741391,10214.842000,-12257.527968
101.751530,-6809.894666,10955.047942,5592.497135
101.751840,-4219.173869,10362.883188,7201.297681
101.752149,-962.267725,6587.832884,-10725.336972
101.752458,-4071.132681,6735.874072,-9116.536426
101.752768,-2886.803174,11399.171507,-612.876398
101.753077,3997.112087,7698.141797,-8963.317327
101.753387,5921.647536,12953.603985,-5286.058936
101.753696,1110.308913,14211.954086,11338.213370
101.754006,-2516.700203,7254.018232,11797.870669
101.754315,-2738.761985,5403.503377,6205.373534
101.754624,1184.329507,11325.150913,1838.629195
101.754934,7328.038826,8586.388927,-10112.460574
101.755243,2516.700203,8956.491898,-11644.651570
101.755553,-5773.606348,12435.459826,6511.811733
101.755862,-4885.359217,9622.677246,6205.373534
101.756172,-1628.453072,7179.997637,-12027.699319
101.756481,-5551.544565,9622.677246,-7737.564530
101.756790,-1036.288319,11473.192101,-2068.457845
101.757100,6587.832884,11251.130318,-12257.527968
101.757409,4515.256246,14359.995275,-4290.134789
101.757719,-4367.215058,9770.718434,13330.061665
101.758028,-2590.720797,6587.832884,11031.775171
101.758337,-444.123565,5625.565159,-612.876398
101.758647,3627.009116,9474.636058,3370.820191
101.758956,6291.750507,6883.915261,-7660.954980
101.759266,1036.288319,8068.244768,-10112.460574
101.759575,-5773.606348,10436.903782,6894.859482
101.759885,-2738.761985,8290.306550,6358.592633
101.760194,-4885.359217,7846.182985,-11644.651570
101.760503,-3478.967927,9770.718434,-10342.289223
101.760813,222.061783,11769.274478,-3524.039291
101.761122,3034.844362,11843.295072,-10035.851024
101.761432,3330.926739,15470.304188,-4519.963438
101.761741,296.082377,8734.430116,11108.384721
101.762050,-3478.967927,5699.585753,10035.851024
101.762360,-1406.391290,6291.750507,4826.401637
101.762669,4515.256246,8216.285956,306.438199
101.762979,7846.182985,8660.409521,-9269.755526
101.763288,1776.494261,6957.935855,-6205.373534
101.763598,-4737.318029,9992.780217,9729.412825
101.763907,-4811.338623,7328.038826,4749.792088
101.764216,-2072.576638,8142.265362,-10342.289223
101.764526,-3849.070898,9844.739029,-7431.126331
101.764835,-0.000000,9622.677246,-5515.887586
101.765145,6365.771101,13249.686362,-12257.527968
101.765454,148.041188,13767.830521,-2374.896044
101.765764,-1776.494261,10732.986159,13559.890315
101.766073,-740.205942,5033.400406,7201.297681
101.766382,-1110.308913,8142.265362,0.000000
101.766692,2220.617826,10881.027347,0.000000
101.767001,6661.853478,8512.368333,-7814.174080
101.767311,1776.494261,8512.368333,-7814.174080
101.767620,-4663.297435,10362.883188,6588.421283
101.767929,-4367.215058,6587.832884,4443.353888
101.768239,-2442.679609,5995.668130,-10035.851024
101.768548,-2960.823768,10436.903782,-8580.269578
101.768858,-0.000000,14878.139434,-4443.353888
101.769167,5033.400406,11177.109724,-12410.747068
101.769477,592.164754,12657.521608,-3524.039291
101.769786,-1628.453072,9474.636058,11414.822920
101.770095,-1480.411884,4515.256246,5362.668486
101.770405,1258.350101,7105.977043,536.266849
101.770714,3775.050304,8734.430116,1378.971896
101.771024,6957.935855,6883.915261,-4979.620737
101.771333,-1258.350101,10732.986159,-4519.963438
101.771642,-3775.050304,7698.141797,5975.544884
101.771952,-2368.659014,7179.997637,1302.362347
101.772261,-3997.112087,10510.924376,-13559.890315
101.772571,-222.061783,11399.171507,-10342.289223
101.772880,-0.000000,11843.295072,-4673.182538
101.773190,3923.091493,12213.398043,-7354.516781
101.773499,2368.659014,10362.883188,1991.848295
101.773808,-592.164754,7550.100608,13100.233016
101.774118,-1702.473667,5995.668130,8656.879127
101.774427,592.164754,4885.359217,5132.839837
101.774737,7328.038826,7772.162391,-536.266849
101.775046,3923.091493,8512.368333,-8273.831378
101.775355,-370.102971,13323.706956,-4903.011187
101.775665,-5033.400406,12435.459826,4903.011187
101.775974,-2886.803174,8586.388927,-3370.820191
101.776284,-4071.132681,9252.574275,-10189.070123
101.776593,-1332.370696,12953.603985,-6128.763984
101.776903,2220.617826,11177.109724,-7890.783629
101.777212,7031.956449,8438.347739,-12487.356617
101.777521,740.205942,11769.274478,4826.401637
101.777831,-2812.782580,6587.832884,15245.300410
101.778140,1036.288319,5921.647536,5209.449386
101.778450,2442.679609,7105.977043,-459.657299
101.778759,4219.173869,9918.759623,0.000000
101.779069,2664.741391,9178.553681,-7507.735880
101.779378,-814.226536,11029.068536,-7660.954980
101.779687,-3404.947333,11103.089130,1225.752797
101.779997,-4071.132681,9104.533087,-306.438199
101.780306,-4663.297435,9622.677246,-5669.106685
101.780616,-0.000000,10955.047942,-5056.230287
101.780925,3108.864956,9918.759623,-5822.325785
101.781234,2368.659014,8882.471304,-6205.373534
101.781544,-814.226536,9696.697840,5975.544884
101.781853,-666.185348,7476.080014,11184.994271
101.782163,-814.226536,7105.977043,2834.553343
101.782472,1258.350101,9326.594869,1455.581446
101.782782,4515.256246,8734.430116,-383.047749
101.783091,3404.947333,9474.636058,-9116.536426
101.783400,-2072.576638,9696.697840,-1991.848295
101.783710,-3775.050304,9992.780217,7354.516781
101.784019,-2146.597232,7179.997637,-919.314598
101.784329,-2590.720797,9992.780217,-6971.469032
101.784638,-0.000000,9992.780217,-3983.696590
101.784947,2738.761985,8438.347739,-6588.421283
101.785257,3701.029710,9548.656652,-6128.763984
101.785566,-4293.194464,10732.986159,8350.440928
101.785876,-0.000000,7920.203579,6971.469032
101.786185,296.082377,7105.977043,-306.438199
101.786495,2294.638420,10066.800811,-2451.505594
101.786804,2812.782580,10140.821405,-1838.629195
101.787113,1554.432478,7624.121203,-7890.783629
101.787423,-1702.473667,10732.986159,-3907.087040
101.787732,-2072.576638,8734.430116,4443.353888
101.788042,-2812.782580,8142.265362,-842.705048
101.788351,-3923.091493,8734.430116,-6281.983084
101.788661,592.164754,11029.068536,-4290.134789
101.788970,3108.864956,8586.388927,-8580.269578
101.789279,2368.659014,10066.800811,-6741.640382
101.789589,666.185348,12435.459826,4979.620737
101.789898,-148.041188,7402.059420,8120.612279
101.790208,592.164754,8364.327145,4366.744339
101.790517,-740.205942,9622.677246,2451.505594
101.790826,6069.688724,8734.430116,-3217.601092
101.791136,2146.597232,7624.121203,-9652.803275
101.791445,-3034.844362,10658.965565,-842.705048
101.791755,-2368.659014,10732.986159,6128.763984
101.792064,-2516.700203,8808.450710,-3294.210641
101.792374,-2368.659014,10288.862594,-6588.421283
101.792683,-0.000000,9696.697840,-4443.353888
101.792992,4737.318029,6217.729913,-7354.516781
101.793302,592.164754,9400.615463,-2298.286494
101.793611,-148.041188,10214.842000,11644.651570
101.793921,-0.000000,8364.327145,9729.412825
101.794230,-296.082377,6957.935855,1685.410096
101.794539,-296.082377,12065.356855,1532.190996
101.794849,4885.359217,8586.388927,-4366.744339
101.795158,1998.556043,8956.491898,-9806.022374
101.795468,-2886.803174,13175.665768,1302.362347
101.795777,-3997.112087,10732.986159,8580.269578
101.796087,-5403.503377,9992.780217,-5286.058936
101.796396,-1406.391290,11399.171507,-9806.022374
101.796705,1776.494261,10214.842000,-7814.174080
101.797015,4515.256246,8808.450710,-9499.584175
101.797324,1776.494261,7994.224174,-4136.915689
101.797634,-1628.453072,8956.491898,13023.623466
101.797943,-0.000000,5107.421000,11184.994271
101.798253,-0.000000,5625.565159,536.266849
101.798562,1332.370696,9326.594869,-1378.971896
101.798871,3034.844362,6735.874072,-5439.278036
101.799181,2294.638420,7994.224174,-9729.412825
101.799490,-2664.741391,12435.459826,0.000000
101.799800,-4589.276840,14137.933492,4749.792088
101.800109,-5255.462188,10066.800811,-3600.648841
101.800418,-1406.391290,12435.459826,-8350.440928
101.800728,2590.720797,12509.480420,-9039.926876
101.801037,3108.864956,8290.306550,-9116.536426
101.801347,592.164754,10436.903782,919.314598
101.801656,-370.102971,7254.018232,13100.233016
101.801966,1702.473667,5773.606348,8656.879127
101.802275,-0.000000,5847.626942,3524.039291
101.802584,592.164754,7179.997637,3370.820191
101.802894,5921.647536,5921.647536,-2834.553343
101.803203,2664.741391,7105.977043,-8197.221829
101.803513,-4071.132681,11695.253884,3217.601092
101.803822,-6143.709319,12065.356855,6511.811733
101.804131,-2960.823768,11621.233289,-6588.421283
101.804441,-222.061783,14878.139434,-14555.814462
101.804750,1850.514855,12509.480420,-8273.831378
101.805060,2442.679609,8734.430116,-7584.345430
101.805369,-222.061783,9400.615463,1455.581446
101.805678,962.267725,10881.027347,13866.328514
101.805988,-370.102971,6587.832884,10189.070123
101.806297,-296.082377,3849.070898,2374.896044
101.806607,2516.700203,7328.038826,-689.485948
101.806916,4367.215058,6883.915261,-8350.440928
101.807225,-1554.432478,10955.047942,-7048.078582
101.807535,-2812.782580,12139.377449,306.438199
101.807844,-3923.091493,10214.842000,1991.848295
101.808153,-5329.482782,11843.295072,-5362.668486
101.808463,-444.123565,12509.480420,-9806.022374
101.808772,5033.400406,6439.791695,-13866.328514
101.809082,3256.906145,8216.285956,-6435.202183
101.809391,148.041188,9992.780217,7048.078582
101.809700,518.144159,10214.842000,12410.747068
101.810010,1110.308913,8512.368333,5975.544884
101.810319,-0.000000,8290.306550,1685.410096
101.810629,1628.453072,8882.471304,-2145.067394
101.810938,5921.647536,10288.862594,-10495.508323
101.811247,-1850.514855,7772.162391,-8273.831378
101.811557,-4737.318029,14285.974681,7277.907231
101.811866,-4737.318029,10510.924376,1532.190996
101.812175,-4145.153275,9918.759623,-8120.612279
101.812485,148.041188,8882.471304,-8273.831378
101.812794,5403.503377,7772.162391,-6358.592633
101.813104,3330.926739,9474.636058,-3983.696590
101.813413,-888.247130,9844.739029,9269.755526
101.813722,666.185348,8586.388927,14402.595362
101.814032,1480.411884,5847.626942,4826.401637
101.814341,-370.102971,7550.100608,1532.190996
101.814651,2146.597232,9252.574275,-1608.800546
101.814960,3478.967927,6957.935855,-10342.289223
101.815269,-2590.720797,11991.336260,-7737.564530
101.815579,-4811.338623,15322.262999,2298.286494
101.815888,-3330.926739,11769.274478,-3140.991542
101.816197,-3997.112087,11103.089130,-9269.755526
101.816507,-1406.391290,11177.109724,-6971.469032
101.816816,4293.194464,6661.853478,-5898.935335
101.817126,3108.864956,7476.080014,-2757.943793
101.817435,-4219.173869,11251.130318,9193.145976
101.817744,3478.967927,8290.306550,11874.480219
101.818054,4441.235652,6217.729913,2528.115143
101.818363,-2368.659014,7105.977043,1532.190996
101.818673,-814.226536,7772.162391,-5745.716235
101.818982,5107.421000,7031.956449,-12563.966167
101.819291,-1776.494261,10436.903782,-9729.412825
101.819601,-4737.318029,14508.036463,3600.648841
101.819910,-3997.112087,12213.398043,76.609550
101.820219,-4441.235652,10584.944971,-7201.297681
101.820529,444.123565,11473.192101,-6281.983084
101.820838,5403.503377,8512.368333,-6741.640382
101.821148,296.082377,7402.059420,-4673.182538
101.821457,-1998.556043,10732.986159,10342.289223
101.821766,3034.844362,10732.986159,11874.480219
101.822076,3997.112087,6291.750507,1302.362347
101.822385,-2812.782580,6217.729913,3140.991542
101.822695,2886.803174,6291.750507,3983.696590
101.823004,3997.112087,4515.256246,-13100.233016
101.823313,-1702.473667,9844.739029,-6205.373534
101.823623,-4959.379811,10510.924376,7431.126331
101.823932,-5477.523971,10955.047942,2451.505594
101.824241,-1850.514855,11547.212695,-8656.879127
101.824551,814.226536,13545.768739,-9882.631924
101.824860,2072.576638,10881.027347,-7737.564530
101.825170,518.144159,11843.295072,-2528.115143
101.825479,-1924.535449,13767.830521,7967.393179
101.825788,5551.544565,7698.141797,9576.193725
101.826098,1258.350101,6291.750507,2528.115143
101.826407,-1850.514855,5403.503377,6511.811733
101.826717,2590.720797,6365.771101,1532.190996
101.827026,3404.947333,4515.256246,-10265.679673
101.827335,-1628.453072,6883.915261,-2987.772442
101.827645,-3627.009116,10510.924376,4136.915689
101.827954,-2960.823768,11103.089130,-3830.477490
101.828263,-2146.597232,10436.903782,-10648.727422
101.828573,-0.000000,13397.727550,-8580.269578
101.828882,4145.153275,10732.986159,-7431.126331
101.829192,-444.123565,10584.944971,-2374.896044
101.829501,-592.164754,11325.150913,9116.536426
101.829810,4071.132681,9548.656652,6894.859482
101.830120,2738.761985,9474.636058,-612.876398
101.830429,-3034.844362,7698.141797,5439.278036
101.830739,4293.194464,9474.636058,-995.924147
101.831048,4145.153275,5699.585753,-13176.842566
101.831357,-2812.782580,7920.203579,-2604.724693
101.831667,-5773.606348,14137.933492,7967.393179
101.831976,-888.247130,9252.574275,-4443.353888
101.832285,-3627.009116,11251.130318,-8197.221829
101.832595,-1850.514855,11029.068536,-3064.381992
101.832904,2516.700203,8586.388927,-7354.516781
101.833214,2516.700203,9104.533087,-5592.497135
101.833523,-1110.308913,13693.809927,8503.660028
101.833832,3330.926739,8068.244768,7277.907231
101.834142,1332.370696,6365.771101,2451.505594
101.834451,-4293.194464,9178.553681,6128.763984
101.834761,3108.864956,7846.182985,1915.238745
101.835070,6661.853478,5625.565159,-12334.137518
101.835379,-4441.235652,10955.047942,-4596.572988
101.835689,-4885.359217,12583.501014,5362.668486
101.835998,-814.226536,10584.944971,-5898.935335
101.836307,-3108.864956,10140.821405,-12640.575717
101.836617,-1924.535449,11695.253884,-5439.278036
101.836926,888.247130,9844.739029,-8350.440928
101.837236,2664.741391,7846.182985,-4903.011187
101.837545,1332.370696,8808.450710,9116.536426
101.837854,3552.988522,6439.791695,10648.727422
101.838164,1776.494261,5995.668130,4443.353888
101.838473,-962.267725,7105.977043,6511.811733
101.838783,3701.029710,6217.729913,153.219100
101.839092,2812.782580,7476.080014,-12257.527968
101.839401,-3701.029710,11843.295072,-4443.353888
101.839711,-4515.256246,13619.789333,2374.896044
101.840020,-2368.659014,13545.768739,-9806.022374
101.840329,-4663.297435,13101.645173,-10648.727422
101.840639,-1850.514855,14137.933492,-5362.668486
101.840948,4441.235652,8956.491898,-9269.755526
101.841258,2072.576638,7772.162391,-3677.258390
101.841567,-1628.453072,13397.727550,12027.699319
101.841876,3552.988522,6957.935855,11491.432470
101.842186,666.185348,4811.338623,6511.811733
101.842495,-0.000000,5625.565159,7814.174080
101.842805,4071.132681,7105.977043,-1991.848295
101.843114,2812.782580,8364.327145,-11491.432470
101.843423,-3108.864956,9992.780217,-766.095498
101.843733,-4663.297435,13693.809927,5362.668486
101.844042,-4367.215058,11769.274478,-6358.592633
101.844351,-3849.070898,11399.171507,-4596.572988
101.844661,-1850.514855,14211.954086,-5209.449386
101.844970,4737.318029,10658.965565,-11644.651570
101.845280,-666.185348,10955.047942,-3677.258390
101.845589,-962.267725,13175.665768,12870.404366
101.845898,3923.091493,7550.100608,7890.783629
101.846208,-1480.411884,6365.771101,2604.724693
101.846517,-888.247130,8290.306550,8197.221829
101.846827,6735.874072,4293.194464,-4290.134789
101.847136,3182.885551,4811.338623,-14172.766713
101.847445,-5847.626942,9326.594869,3600.648841
101.847755,-6365.771101,12213.398043,7660.954980
101.848064,-518.144159,9326.594869,-9959.241474
101.848373,-3034.844362,11177.109724,-12027.699319
101.848683,-4367.215058,12805.562797,-536.266849
101.848992,4145.153275,10807.006753,-10878.556072
101.849302,1628.453072,10362.883188,-5822.325785
101.849611,148.041188,14137.933492,10495.508323
101.849920,1406.391290,10807.006753,9806.022374
101.850230,296.082377,5625.565159,3600.648841
101.850539,-0.000000,9622.677246,4366.744339
101.850849,6069.688724,7550.100608,-4749.792088
101.851158,4737.318029,7031.956449,-12640.575717
101.851467,-5033.400406,9400.615463,1302.362347
101.851777,-4811.338623,11251.130318,5592.497135
101.852086,-3552.988522,9474.636058,-7737.564530
101.852395,-2146.597232,11843.295072,-11184.994271
101.852705,962.267725,9696.697840,-7277.907231
101.853014,962.267725,5625.565159,-7660.954980
101.853324,1702.473667,11399.171507,306.438199
101.853633,2590.720797,11843.295072,11338.213370
101.853942,1554.432478,8808.450710,9116.536426
101.854252,-3034.844362,6439.791695,6128.763984
101.854561,1702.473667,10584.944971,4519.963438
101.854871,8290.306550,9326.594869,-8656.879127
101.855180,-740.205942,8068.244768,-12257.527968
101.855489,-5625.565159,13397.727550,3140.991542
101.855799,-3256.906145,9178.553681,4596.572988
101.856108,-1924.535449,9178.553681,-10112.460574
101.856417,-2516.700203,11399.171507,-7124.688131
101.856727,370.102971,11621.233289,-5669.106685
101.857036,4367.215058,6291.750507,-9882.631924
101.857346,-2220.617826,12287.418637,612.876398
101.857655,518.144159,11177.109724,11644.651570
101.857964,2960.823768,6957.935855,3907.087040
101.858274,-740.205942,6069.688724,1455.581446
101.858583,-518.144159,9400.615463,919.314598
101.858893,6735.874072,6439.791695,-9269.755526
101.859202,148.041188,9622.677246,-10572.117872
101.859511,-4145.153275,12435.459826,4596.572988
101.859821,-2146.597232,10807.006753,1991.848295
101.860130,-666.185348,6735.874072,-4903.011187
101.860439,-2960.823768,9622.677246,-4060.306139
101.860749,1258.350101,11769.274478,-7048.078582
101.861058,4959.379811,9548.656652,-13100.233016
101.861368,-3552.988522,11177.109724,1378.971896
101.861677,592.164754,11769.274478,11951.089769
101.861986,5107.421000,7254.018232,2221.676944
101.862296,-1850.514855,8290.306550,1838.629195
101.862605,518.144159,7105.977043,7890.783629
101.862915,6587.832884,3108.864956,-5898.935335
101.863224,518.144159,6883.915261,-8044.002729
101.863533,-6143.709319,10732.986159,9959.241474
101.863843,-2516.700203,9622.677246,5515.887586
101.864152,-1776.494261,10658.965565,-11414.822920
101.864461,-4145.153275,13767.830521,-6741.640382
101.864771,814.226536,10214.842000,-6052.154434
101.865080,1702.473667,9326.594869,-10112.460574
101.865390,-1184.329507,14359.995275,-689.485948
101.865699,-518.144159,12805.562797,7354.516781
101.866008,2442.679609,7402.059420,5362.668486
101.866318,-222.061783,6291.750507,3830.477490
101.866627,1184.329507,9252.574275,4366.744339
101.866937,6809.894666,4367.215058,-5439.278036
101.867246,1332.370696,7105.977043,-4213.525239
101.867555,-6587.832884,9992.780217,5822.325785
101.867865,-1850.514855,9770.718434,153.219100
101.868174,-1184.329507,10658.965565,-12640.575717
101.868483,-4737.318029,11991.336260,-8656.879127
101.868793,2368.659014,8586.388927,-6511.811733
101.869102,1110.308913,9326.594869,-10955.165621
101.869412,-296.082377,11917.315666,1608.800546
101.869721,444.123565,10955.047942,10189.070123
101.870030,2886.803174,7846.182985,3370.820191
101.870340,-148.041188,6809.894666,3370.820191
101.870649,1998.556043,8586.388927,4366.744339
101.870959,6439.791695,7402.059420,-5669.106685
101.871268,-1110.308913,6291.750507,-6128.763984
101.871577,-6661.853478,13249.686362,4213.525239
101.871887,-1554.432478,13027.624579,-2834.553343
101.872196,-1110.308913,9104.533087,-13866.328514
101.872505,-2886.803174,10584.944971,-5592.497135
101.872815,518.144159,9474.636058,-3140.991542
101.873124,2072.576638,9252.574275,-8580.269578
101.873434,222.061783,8216.285956,4903.011187
101.873743,962.267725,9770.718434,13406.671215
101.874052,1628.453072,6069.688724,5209.449386
101.874362,-666.185348,7179.997637,306.438199
101.874671,2146.597232,8364.327145,3217.601092
101.874981,3256.906145,8734.430116,-6741.640382
101.875290,-2664.741391,11325.150913,-5286.058936
101.875599,-5921.647536,15470.304188,2911.162892
101.875909,1258.350101,11843.295072,-7277.907231
101.876218,-4737.318029,9548.656652,-12487.356617
101.876528,-3182.885551,10140.821405,-3830.477490
101.876837,2812.782580,8438.347739,-4596.572988
101.877146,3108.864956,8438.347739,-5898.935335
101.877456,814.226536,9178.553681,6588.421283
101.877765,1406.391290,7254.018232,11951.089769
101.878074,3701.029710,5699.585753,1072.533697
101.878384,-814.226536,7105.977043,1762.019645
101.878693,4663.297435,11325.150913,0.000000
101.879003,3182.885551,7179.997637,-10648.727422
101.879312,-2812.782580,11325.150913,-4979.620737
101.879621,-3627.009116,14285.974681,4903.011187
101.879931,-1184.329507,10732.986159,-6052.154434
101.880240,-3478.967927,12139.377449,-12563.966167
101.880550,-4367.215058,9474.636058,-2298.286494
101.880859,3627.009116,10436.903782,-6818.249932
101.881168,3478.967927,8734.430116,-8733.488677
101.881478,-888.247130,10510.924376,10035.851024
101.881787,3034.844362,6439.791695,11568.042020
101.882096,2886.803174,6069.688724,2757.943793
101.882406,-2072.576638,9474.636058,4596.572988
101.882715,2368.659014,7846.182985,1991.848295
101.883025,4589.276840,6513.812290,-8044.002729
101.883334,-5181.441594,8734.430116,-3140.991542
101.883643,-3627.009116,13249.686362,4596.572988
101.883953,1110.308913,10288.862594,-6358.592633
101.884262,-2590.720797,10214.842000,-4903.011187
101.884572,-2738.761985,11029.068536,2528.115143
101.884881,1258.350101,10881.027347,-3907.087040
101.885190,2516.700203,9030.512492,-8350.440928
101.885500,-1776.494261,12065.356855,6511.811733
101.885809,-0.000000,7624.121203,4749.792088
101.886118,1554.432478,6143.709319,-1991.848295
101.886428,-592.164754,10362.883188,2451.505594
101.886737,4367.215058,7920.203579,842.705048
101.887047,2146.597232,7254.018232,-8733.488677
101.887356,-3997.112087,8586.388927,-1072.533697
101.887665,-3701.029710,8882.471304,6052.154434
101.887975,-444.123565,9178.553681,-6588.421283
101.888284,-2516.700203,11029.068536,-8656.879127
101.888594,-1110.308913,13175.665768,-4979.620737
101.888903,4441.235652,9474.636058,-11184.994271
101.889212,1406.391290,10955.047942,-7354.516781
101.889522,370.102971,10881.027347,9576.193725
101.889831,2146.597232,9548.656652,8810.098227
101.890140,1924.535449,7846.182985,4366.744339
101.890450,-2960.823768,8660.409521,5975.544884
101.890759,3256.906145,7624.121203,-2604.724693
101.891069,5847.626942,7328.038826,-13176.842566
101.891378,-4811.338623,11695.253884,-1915.238745
101.891687,-2368.659014,13915.871710,5209.449386
101.891997,740.205942,9400.615463,-6818.249932
101.892306,-5847.626942,12953.603985,-4596.572988
101.892616,-2294.638420,9178.553681,1225.752797
101.892925,6735.874072,7846.182985,-12640.575717
101.893234,3775.050304,6217.729913,-5669.106685
101.893544,-2960.823768,8068.244768,14172.766713
101.893853,2220.617826,7846.182985,10112.460574
101.894162,592.164754,6883.915261,919.314598
101.894472,-3256.906145,12435.459826,6971.469032
101.894781,3034.844362,9474.636058,-1302.362347
101.895091,2368.659014,9622.677246,-14555.814462
101.895400,-3701.029710,11843.295072,-3370.820191
101.895709,-3923.091493,13101.645173,-1608.800546
101.896019,-592.164754,11621.233289,-8427.050478
101.896328,-3849.070898,13619.789333,-6741.640382
101.896638,-0.000000,11251.130318,-995.924147
101.896947,6069.688724,5625.565159,-9039.926876
101.897256,2220.617826,8142.265362,-2451.505594
101.897566,-1554.432478,9030.512492,14709.033562
101.897875,2738.761985,7698.141797,8044.002729
101.898184,1406.391290,6069.688724,-995.924147
101.898494,-666.185348,8956.491898,2374.896044
101.898803,3182.885551,9400.615463,-7048.078582
101.899113,2960.823768,9918.759623,-14325.985813
101.899422,-2146.597232,12139.377449,689.485948
101.899731,-4737.318029,13693.809927,4366.744339
101.900041,-2294.638420,8956.491898,-8503.660028
101.900350,-6217.729913,11473.192101,-4903.011187
101.900660,1258.350101,11843.295072,-4443.353888
101.900969,5699.585753,6513.812290,-12410.747068
101.901278,1110.308913,9622.677246,-2681.334243
101.901588,-1924.535449,10436.903782,13176.842566
101.901897,2516.700203,6291.750507,8656.879127
101.902206,1628.453072,6217.729913,2221.676944
101.902516,-1332.370696,6883.915261,5132.839837
101.902825,5255.462188,5773.606348,-5056.230287
101.903135,2738.761985,5625.565159,-9039.926876
101.903444,-6587.832884,11325.150913,5209.449386
101.903753,-4145.153275,12509.480420,3370.820191
101.904063,-962.267725,11843.295072,-10342.289223
101.904372,-5107.421000,12361.439231,-4443.353888
101.904682,1480.411884,13915.871710,-4519.963438
101.904991,5107.421000,10658.965565,-12717.185267
101.905300,-962.267725,8364.327145,1378.971896
101.905610,-888.247130,11917.315666,16011.395908
101.905919,4441.235652,5181.441594,7584.345430
101.906229,1036.288319,4737.318029,4290.134789
101.906538,-740.205942,7920.203579,5515.887586
101.906848,3404.947333,5995.668130,-8427.050478
101.907157,888.247130,7402.059420,-12870.404366
101.907467,-4071.132681,12435.459826,1225.752797
101.907776,-1184.329507,13175.665768,-2681.334243
101.908086,-1776.494261,11991.336260,-9882.631924
101.908395,-4663.297435,13027.624579,-2681.334243
101.908705,2516.700203,8808.450710,-5669.106685
101.909014,6069.688724,6587.832884,-10801.946522
101.909324,1184.329507,8956.491898,3830.477490
101.909633,-1924.535449,9104.533087,13559.890315
101.909943,3627.009116,8364.327145,1378.971896
101.910252,-222.061783,8734.430116,1762.019645
101.910562,1036.288319,10807.006753,2834.553343
101.910871,4811.338623,7105.977043,-9499.584175
101.911181,-222.061783,10362.883188,-10418.898773
101.911490,-5107.421000,12361.439231,3677.258390
101.911800,-2886.803174,9770.718434,459.657299
101.912109,-1998.556043,11177.109724,-5745.716235
101.912419,-2738.761985,12065.356855,-3294.210641
101.912728,5181.441594,9178.553681,-6894.859482
101.913038,4367.215058,7920.203579,-8427.050478
101.913347,-1480.411884,8808.450710,7737.564530
101.913657,1406.391290,9030.512492,14019.547613
101.913966,4441.235652,7328.038826,3983.696590
101.914276,-1554.432478,8142.265362,6818.249932
101.914586,740.205942,7105.977043,4060.306139
101.914895,3701.029710,6217.729913,-8503.660028
101.915205,-2738.761985,9474.636058,-7354.516781
101.915514,-5699.585753,13545.768739,2374.896044
101.915824,-2960.823768,14063.912898,-6588.421283
101.916133,-2146.597232,13767.830521,-11644.651570
101.916443,-2812.782580,11547.212695,-5745.716235
101.916752,3849.070898,9178.553681,-7124.688131
101.917062,4515.256246,6217.729913,-5592.497135
101.917371,-2812.782580,5921.647536,10572.117872
101.917681,1850.514855,5181.441594,13176.842566
101.917990,5107.421000,4885.359217,3677.258390
101.918300,592.164754,9474.636058,2604.724693
101.918609,1850.514855,12435.459826,2834.553343
101.918919,4219.173869,7031.956449,-11644.651570
101.919228,-4589.276840,11473.192101,-9269.755526
101.919538,-3552.988522,14285.974681,1225.752797
101.919847,-1628.453072,12361.439231,-6588.421283
101.920157,-3552.988522,12213.398043,-9806.022374
101.920466,-3997.112087,13249.686362,-1762.019645
101.920776,3997.112087,11029.068536,-6281.983084
101.921085,7254.018232,7772.162391,-8656.879127
101.921395,-1110.308913,9770.718434,6358.592633
101.921704,-0.000000,8364.327145,13483.280765
101.922014,3627.009116,6069.688724,3370.820191
101.922323,-962.267725,7254.018232,3677.258390
101.922633,2960.823768,8734.430116,1608.800546
101.922942,5477.523971,4293.194464,-10648.727422
101.923252,-518.144159,5625.565159,-4290.134789
101.923562,-4737.318029,9622.677246,6205.373534
101.923871,-3034.844362,11769.274478,-2145.067394
101.924181,-3478.967927,10807.006753,-6435.202183
101.924490,-2960.823768,13471.748144,-1072.533697
101.924800,3997.112087,11991.336260,-9422.974625
101.925109,2590.720797,9474.636058,-9729.412825
101.925419,-1850.514855,11843.295072,5592.497135
101.925728,518.144159,10732.986159,6205.373534
101.926038,4589.276840,5773.606348,1532.190996
101.926347,-1332.370696,7328.038826,5898.935335
101.926657,4219.173869,7550.100608,3447.429741
101.926966,3552.988522,3034.844362,-7737.564530
101.927276,-2590.720797,5625.565159,-2834.553343
101.927585,-4071.132681,11103.089130,4060.306139
101.927895,-592.164754,8956.491898,-7507.735880
101.928204,-1480.411884,12065.356855,-11108.384721
101.928514,-4293.194464,15470.304188,-3294.210641
101.928823,2812.782580,10955.047942,-10725.336972
101.929133,2738.761985,8882.471304,-8120.612279
101.929442,-1184.329507,15322.262999,6511.811733
101.929752,2442.679609,9992.780217,8044.002729
101.930061,5181.441594,6069.688724,1838.629195
101.930371,-1702.473667,9178.553681,6435.202183
101.930680,3849.070898,8956.491898,2298.286494
101.930990,4589.276840,3701.029710,-8044.002729
101.931299,-4441.235652,7476.080014,-995.924147
101.931609,-4811.338623,11547.212695,5592.497135
101.931918,-1184.329507,9474.636058,-7737.564530
101.932228,-1776.494261,10955.047942,-11568.042020
101.932537,-3775.050304,13545.768739,-3217.601092
101.932847,4071.132681,12731.542202,-10725.336972
101.933157,2072.576638,9474.636058,-7967.393179
101.933466,-222.061783,9178.553681,9039.926876
101.933776,4071.132681,8216.285956,10725.336972
101.934085,1924.535449,5329.482782,5669.106685
101.934395,-592.164754,6661.853478,11184.994271
101.934704,2368.659014,8660.409521,3677.258390
101.935014,4071.132681,6735.874072,-9193.145976
101.935323,-4811.338623,9104.533087,-2451.505594
101.935633,-7031.956449,13101.645173,1991.848295
101.935942,-444.123565,12805.562797,-11414.822920
101.936252,-5551.544565,16210.510130,-12257.527968
101.936561,-3478.967927,15322.262999,-4903.011187
101.936871,4737.318029,9326.594869,-10265.679673
101.937180,3404.947333,7254.018232,-10418.898773
101.937490,-1110.308913,7846.182985,10801.946522
101.937799,3701.029710,3849.070898,13483.280765
101.938109,2812.782580,3552.988522,6588.421283
101.938418,-666.185348,6587.832884,7354.516781
101.938728,5181.441594,6069.688724,-1225.752797
101.939037,3256.906145,7772.162391,-13559.890315
101.939347,-1850.514855,12361.439231,-4903.011187
101.939656,-6217.729913,14804.118840,1302.362347
101.939966,-3775.050304,13693.809927,-11338.213370
101.940275,-4441.235652,12287.418637,-7967.393179
101.940585,-5403.503377,17246.798449,-4136.915689
101.940894,7105.977043,9844.739029,-12717.185267
101.941204,2886.803174,9844.739029,-10035.851024
101.941513,1406.391290,12731.542202,5822.325785
101.941823,3997.112087,8142.265362,11644.651570
101.942132,3404.947333,7402.059420,6588.421283
101.942442,148.041188,6587.832884,9499.584175
101.942752,6365.771101,6365.771101,2528.115143
101.943061,4515.256246,2072.576638,-8120.612279
101.943371,-5921.647536,5847.626942,536.266849
101.943680,-4737.318029,10732.986159,4749.792088
101.943990,-1850.514855,11621.233289,-11414.822920
101.944299,-2886.803174,14137.933492,-11644.651570
101.944609,-2664.741391,16284.530724,-3677.258390
101.944918,2738.761985,11029.068536,-12563.966167
101.945228,3034.844362,9178.553681,-8120.612279
101.945537,-1628.453072,10510.924376,11184.994271
101.945847,296.082377,7920.203579,13330.061665
101.946156,3108.864956,4811.338623,7201.297681
101.946466,1998.556043,7698.141797,6588.421283
101.946775,5181.441594,6809.894666,-3140.991542
101.947085,2738.761985,3034.844362,-13483.280765
101.947394,-4811.338623,9474.636058,-153.219100
101.947704,-6809.894666,13323.706956,0.000000
101.948013,-1628.453072,9844.739029,-12257.527968
101.948323,-3997.112087,11843.295072,-9193.145976
101.948632,888.247130,10881.027347,-6665.030833
101.948942,5255.462188,7254.018232,-12563.966167
101.949251,1850.514855,8660.409521,-2911.162892
101.949561,-222.061783,11029.068536,12410.747068
101.949870,3256.906145,7476.080014,9499.584175
101.950180,1110.308913,8956.491898,4366.744339
101.950489,740.205942,10732.986159,4366.744339
101.950799,6957.935855,7402.059420,-6358.592633
101.951108,1554.432478,6439.791695,-12257.527968
101.951418,-7994.224174,9622.677246,2681.334243
101.951728,-3108.864956,10140.821405,4903.011187
101.952037,-2516.700203,10807.006753,-8733.488677
101.952347,-2368.659014,11695.253884,-6665.030833
101.952656,-1406.391290,12879.583391,-2528.115143
101.952966,5181.441594,8956.491898,-11644.651570
101.953275,592.164754,5551.544565,-4136.915689
101.953585,-1480.411884,9474.636058,11797.870669
101.953894,-0.000000,9844.739029,9806.022374
101.954204,4885.359217,8364.327145,4136.915689
101.954513,1184.329507,10066.800811,6052.154434
101.954823,4071.132681,7328.038826,-3294.210641
101.955132,2220.617826,5033.400406,-8733.488677
101.955442,-6291.750507,8808.450710,4443.353888
101.955751,-6661.853478,11843.295072,6741.640382
101.956061,-2146.597232,12657.521608,-9882.631924
101.956370,-2886.803174,12287.418637,-8427.050478
101.956680,-296.082377,13767.830521,-8427.050478
101.956989,2220.617826,7179.997637,-13942.938064
101.957299,-1258.350101,6291.750507,-3064.381992
101.957608,-3552.988522,8586.388927,13713.109414
101.957918,3701.029710,7772.162391,8810.098227
101.958227,1702.473667,7846.182985,3140.991542
101.958537,5995.668130,7105.977043,536.266849
101.958846,6439.791695,5773.606348,-5669.106685
101.959156,592.164754,4737.318029,-8044.002729
101.959465,-7179.997637,10140.821405,4213.525239
101.959775,-3404.947333,13323.706956,1838.629195
101.960084,-2072.576638,13619.789333,-14785.643111
101.960394,-1258.350101,15174.221811,-9576.193725
101.960703,666.185348,12213.398043,-7660.954980
101.961013,1924.535449,8142.265362,-11797.870669
101.961323,-1628.453072,8660.409521,-4290.134789
101.961632,-1184.329507,11399.171507,9576.193725
101.961942,3701.029710,7846.182985,5515.887586
101.962251,1776.494261,8364.327145,5132.839837
101.962561,2368.659014,9030.512492,6894.859482
101.962870,5625.565159,4811.338623,-4903.011187
101.963180,444.123565,3256.906145,-5669.106685
101.963489,-7550.100608,8364.327145,8427.050478
101.963799,-2368.659014,12065.356855,1455.581446
101.964108,-74.020594,9770.718434,-11414.822920
101.964418,-3182.885551,13545.768739,-5975.544884
101.964727,-2220.617826,11991.336260,-5745.716235
101.965037,740.205942,9178.553681,-12180.918418
101.965346,-518.144159,9918.759623,-2221.676944
101.965656,-1998.556043,11325.150913,7048.078582
101.965965,3775.050304,9622.677246,2911.162892
101.966275,1406.391290,8882.471304,4826.401637
101.966584,3034.844362,10288.862594,5286.058936
101.966894,5847.626942,4515.256246,-3830.477490
101.967203,-592.164754,4071.132681,-5898.935335
101.967513,-4885.359217,6957.935855,6665.030833
101.967822,-1036.288319,10807.006753,-1455.581446
101.968132,-2442.679609,11177.109724,-11797.870669
101.968441,-3256.906145,13471.748144,-6818.249932
101.968751,1036.288319,12509.480420,-8886.707777
101.969060,2294.638420,9030.512492,-13789.718964
101.969370,-3182.885551,10140.821405,-1225.752797
101.969679,-296.082377,8734.430116,9576.193725
101.969989,3997.112087,7476.080014,6894.859482
101.970298,2738.761985,8882.471304,5592.497135
101.970608,1776.494261,11843.295072,6128.763984
101.970918,6217.729913,5699.585753,-4826.401637
101.971227,-2368.659014,6291.750507,-4443.353888
101.971537,-6365.771101,14211.954086,4290.134789
101.971846,-2146.597232,9030.512492,-4213.525239
101.972156,-1258.350101,13397.727550,-11568.042020
101.972465,-3627.009116,12435.459826,-4136.915689
101.972775,3478.967927,9548.656652,-5132.839837
101.973084,2220.617826,5995.668130,-8580.269578
101.973394,-4071.132681,6587.832884,7890.783629
101.973703,518.144159,8438.347739,11491.432470
101.974013,5107.421000,8068.244768,306.438199
101.974322,-0.000000,13915.871710,7354.516781
101.974632,3701.029710,9770.718434,6205.373534
101.974941,5255.462188,8882.471304,-8350.440928
101.975251,-888.247130,7550.100608,-3753.867940
101.975560,-7105.977043,12065.356855,8197.221829
101.975870,-2812.782580,11843.295072,-3983.696590
101.976179,-0.000000,11177.109724,-14019.547613
101.976489,-2886.803174,12213.398043,-4749.792088
101.976798,-148.041188,10510.924376,-5592.497135
101.977108,2886.803174,7031.956449,-9116.536426
101.977417,74.020594,7105.977043,4136.915689
101.977727,444.123565,7846.182985,9882.631924
101.978036,5255.462188,7105.977043,2604.724693
101.978346,-1110.308913,6587.832884,5439.278036
101.978655,1924.535449,6883.915261,6588.421283
101.978965,4959.379811,7254.018232,-8580.269578
101.979274,-2590.720797,7846.182985,-6358.592633
101.979584,-3775.050304,14137.933492,3140.991542
101.979894,-1480.411884,11029.068536,-8273.831378
101.980203,-4071.132681,13027.624579,-10495.508323
101.980513,-1480.411884,13397.727550,-4060.306139
101.980822,370.102971,10807.006753,-7737.564530
101.981132,2664.741391,5921.647536,-8503.660028
101.981441,-740.205942,3923.091493,4596.572988
101.981751,2220.617826,8068.244768,8503.660028
101.982060,666.185348,6291.750507,3753.867940
101.982370,1480.411884,9474.636058,7201.297681
101.982679,4071.132681,9474.636058,2221.676944
101.982989,4515.256246,8142.265362,-9806.022374
101.983298,-4293.194464,7846.182985,-2068.457845
101.983608,-6143.709319,10288.862594,3524.039291
101.983917,-888.247130,10214.842000,-7354.516781
101.984227,-444.123565,9474.636058,-9499.584175
101.984536,-3627.009116,14211.954086,0.000000
101.984846,3775.050304,11103.089130,-6435.202183
101.985155,1406.391290,7550.100608,-6281.983084
101.985465,-1998.556043,10288.862594,8427.050478
101.985774,3108.864956,9178.553681,6281.983084
101.986084,3478.967927,7994.224174,-306.438199
101.986393,-1924.535449,10288.862594,3294.210641
101.986703,3256.906145,11843.295072,-1225.752797
101.987012,2664.741391,4441.235652,-10495.508323
101.987322,-1998.556043,10140.821405,-689.485948
101.987631,-3997.112087,11177.109724,4979.620737
101.987941,-1480.411884,7772.162391,-4673.182538
101.988250,-3182.885551,10955.047942,-4826.401637
101.988560,-1628.453072,8586.388927,1149.143247
101.988869,4589.276840,9030.512492,-10725.336972
101.989179,222.061783,6217.729913,-7584.345430
101.989489,-2516.700203,8956.491898,6435.202183
101.989798,1628.453072,9104.533087,5362.668486
101.990108,1998.556043,11473.192101,-1915.238745
101.990417,-1036.288319,12805.562797,5286.058936
101.990727,4145.153275,9622.677246,-459.657299
101.991036,4663.297435,6143.709319,-10725.336972
101.991346,-4441.235652,5995.668130,-2221.676944
101.991655,-3775.050304,10584.944971,5439.278036
101.991965,-1554.432478,9400.615463,-5669.106685
101.992274,-1554.432478,14137.933492,-6588.421283
101.992584,-1702.473667,13693.809927,-2145.067394
101.992893,3108.864956,6661.853478,-11338.213370
101.993203,2886.803174,6365.771101,-6281.983084
101.993512,-3552.988522,7624.121203,10112.460574
101.993822,222.061783,5995.668130,9882.631924
101.994131,740.205942,6217.729913,4443.353888
101.994441,1480.411884,12139.377449,4136.915689
101.994750,1924.535449,7994.224174,-2145.067394
101.995060,1924.535449,7105.977043,-10801.946522
101.995369,-4663.297435,9622.677246,-1762.019645
101.995679,-3997.112087,12731.542202,1685.410096
101.995988,-592.164754,14804.118840,-7354.516781
101.996298,-3627.009116,13767.830521,-4519.963438
101.996607,1554.432478,14137.933492,-2221.676944
101.996917,2738.761985,5921.647536,-9269.755526
101.997226,-0.000000,5477.523971,-2604.724693
101.997536,-3404.947333,5921.647536,11031.775171
101.997845,2738.761985,6217.729913,5286.058936
101.998155,1998.556043,8660.409521,766.095498
101.998465,1258.350101,10436.903782,2757.943793
101.998774,4293.194464,8586.388927,-3983.696590
101.999084,2812.782580,6217.729913,-11108.384721
101.999393,-2516.700203,9548.656652,383.047749
101.999703,-5995.668130,11621.233289,3753.867940
102.000012,-2220.617826,13693.809927,-7048.078582
102.000322,-2960.823768,15618.345376,-5515.887586
102.000631,2738.761985,14359.995275,-6205.373534
102.000941,5847.626942,8068.244768,-12563.966167
102.001250,-444.123565,7772.162391,-3370.820191
102.001560,-4219.173869,8734.430116,12947.013916
102.001869,2960.823768,7105.977043,6665.030833
102.002179,3108.864956,7328.038826,2987.772442
102.002488,444.123565,8882.471304,7277.907231
102.002798,4811.338623,7772.162391,-995.924147
102.003107,1850.514855,3478.967927,-6818.249932
102.003417,-3849.070898,9178.553681,2987.772442
102.003726,-6439.791695,13323.706956,2604.724693
102.004036,-666.185348,12287.418637,-7431.126331
102.004345,-2294.638420,15100.201217,-6665.030833
102.004655,148.041188,15840.407159,-8197.221829
102.004964,4885.359217,7698.141797,-11338.213370
102.005274,-2368.659014,5255.462188,1532.190996
102.005583,-2442.679609,8216.285956,13942.938064
102.005893,2516.700203,7328.038826,7277.907231
102.006203,2590.720797,6883.915261,3907.087040
102.006512,1850.514855,8142.265362,6435.202183
102.006822,4441.235652,6957.935855,-5439.278036
102.007131,222.061783,2886.803174,-13636.499864
102.007441,-7402.059420,9696.697840,2528.115143
102.007750,-3997.112087,13249.686362,383.047749
102.008060,-0.000000,14730.098246,-11261.603821
102.008370,-2294.638420,16432.571912,-8197.221829
102.008679,1776.494261,13471.748144,-8656.879127
102.008989,6143.709319,5477.523971,-10725.336972
102.009298,-814.226536,9178.553681,3140.991542
102.009608,-2368.659014,7846.182985,15092.081311
102.009918,3552.988522,7031.956449,9806.022374
102.010227,888.247130,8364.327145,3524.039291
102.010537,2664.741391,8882.471304,4749.792088
102.010846,4811.338623,6439.791695,-8120.612279
102.011156,-2220.617826,7105.977043,-12104.308868
102.011465,-4737.318029,12065.356855,-153.219100
102.011775,-4145.153275,10288.862594,-919.314598
102.012085,-2516.700203,13101.645173,-8580.269578
102.012394,-1406.391290,14952.160028,-4136.915689
102.012704,2294.638420,9474.636058,-5056.230287
102.013013,5995.668130,3701.029710,-7124.688131
102.013323,-1332.370696,3182.885551,5822.325785
102.013632,-1850.514855,7105.977043,14325.985813
102.013942,3256.906145,8290.306550,5898.935335
102.014252,2368.659014,11029.068536,1915.238745
102.014561,296.082377,11843.295072,3753.867940
102.014871,2516.700203,9548.656652,-7737.564530
102.015180,-2220.617826,8068.244768,-10112.460574
102.015490,-6217.729913,12657.521608,-689.485948
102.015799,-3034.844362,13989.892304,-6358.592633
102.016109,-0.000000,12731.542202,-9882.631924
102.016419,-518.144159,15248.242405,-4673.182538
102.016728,2590.720797,8734.430116,-2681.334243
102.017038,3182.885551,3330.926739,-2911.162892
102.017347,-1554.432478,5107.421000,6971.469032
102.017657,-148.041188,5625.565159,12180.918418
102.017966,6365.771101,8660.409521,3140.991542
102.018276,1036.288319,8438.347739,1072.533697
102.018586,1110.308913,11843.295072,6894.859482
102.018895,740.205942,9844.739029,-9269.755526
102.019205,-1924.535449,8364.327145,-8427.050478
102.019514,-6735.874072,11917.315666,995.924147
102.019824,-3182.885551,10955.047942,-4673.182538
102.020133,-962.267725,12361.439231,-9652.803275
102.020443,-1184.329507,14211.954086,-4213.525239
102.020753,2664.741391,13323.706956,-6665.030833
102.021062,4811.338623,5033.400406,-6665.030833
102.021372,-2886.803174,7328.038826,9193.145976
102.021681,-888.247130,7846.182985,13023.623466
102.021991,4737.318029,4737.318029,4290.134789
102.022300,1258.350101,10066.800811,3830.477490
102.022610,1702.473667,8586.388927,1762.019645
102.022920,5625.565159,4885.359217,-9806.022374
102.023229,-6587.832884,6365.771101,-5209.449386
102.023539,-7254.018232,11399.171507,4749.792088
102.023848,-888.247130,12509.480420,-5209.449386
102.024158,-74.020594,14952.160028,-11644.651570
102.024467,-2368.659014,15396.283594,-459.657299
102.024777,2146.597232,11399.171507,-6665.030833
102.025087,3330.926739,6587.832884,-7967.393179
102.025396,-2960.823768,10881.027347,6894.859482
102.025706,962.267725,8660.409521,11338.213370
102.026015,5403.503377,7920.203579,919.314598
102.026325,-888.247130,9622.677246,6281.983084
102.026634,2072.576638,7254.018232,4749.792088
102.026944,2664.741391,3552.988522,-9882.631924
102.027254,-2516.700203,3701.029710,-5209.449386
102.027563,-8660.409521,8734.430116,5209.449386
102.027873,-1258.350101,9326.594869,-5209.449386
102.028182,-148.041188,14063.912898,-11874.480219
102.028492,-1850.514855,17542.880825,-5822.325785
102.028801,2220.617826,10436.903782,-6665.030833
102.029111,2442.679609,6587.832884,-9039.926876
102.029421,-2368.659014,8882.471304,4443.353888
102.029730,1628.453072,10510.924376,9039.926876
102.030040,2516.700203,10510.924376,2374.896044
102.030349,1184.329507,9770.718434,5975.544884
102.030659,3182.885551,9770.718434,2757.943793
102.030968,3849.070898,5181.441594,-9193.145976
102.031278,-5255.462188,4737.318029,-6818.249932
102.031588,-4589.276840,9178.553681,2451.505594
102.031897,-1110.308913,12139.377449,-8503.660028
102.032207,-814.226536,14804.118840,-12257.527968
102.032516,-3034.844362,16802.674883,-3524.039291
102.032826,1850.514855,10436.903782,-7354.516781
102.033135,2812.782580,5921.647536,-6281.983084
102.033445,592.164754,7031.956449,6894.859482
102.033755,3701.029710,5551.544565,9882.631924
102.034064,1702.473667,6143.709319,7354.516781
102.034374,-296.082377,8216.285956,8656.879127
102.034683,2516.700203,9844.739029,766.095498
102.034993,2664.741391,8068.244768,-10572.117872
102.035302,-4515.256246,8142.265362,-4443.353888
102.035612,-7550.100608,8734.430116,-4290.134789
102.035922,-592.164754,14211.954086,-12257.527968
102.036231,-4811.338623,15692.365970,-10495.508323
102.036541,-962.267725,13397.727550,-2221.676944
102.036850,1850.514855,8734.430116,-6052.154434
102.037160,1184.329507,5403.503377,-3524.039291
102.037469,-444.123565,6735.874072,9806.022374
102.037779,3849.070898,7994.224174,8886.707777
102.038089,5773.606348,5847.626942,3677.258390
102.038398,296.082377,9918.759623,6358.592633
102.038708,2960.823768,11547.212695,-383.047749
102.039017,2886.803174,6809.894666,-11338.213370
102.039327,-4589.276840,9622.677246,-4366.744339
102.039636,-4589.276840,10807.006753,-153.219100
102.039946,-2294.638420,9326.594869,-6971.469032
102.040256,-4737.318029,15914.427753,-7431.126331
102.040565,-1628.453072,15618.345376,-4443.353888
102.040875,4145.153275,9474.636058,-10189.070123
102.041184,1628.453072,6883.915261,-6128.763984
102.041494,-2590.720797,8438.347739,9116.536426
102.041803,3849.070898,7031.956449,9039.926876
102.042113,2442.679609,7624.121203,6358.592633
102.042423,1776.494261,10436.903782,10265.679673
102.042732,3701.029710,8438.347739,-2911.162892
102.043042,1850.514855,6069.688724,-11797.870669
102.043351,-4737.318029,5625.565159,-1149.143247
102.043661,-6957.935855,9770.718434,2604.724693
102.043970,-2220.617826,10881.027347,-8963.317327
102.044280,-5847.626942,15988.448347,-7201.297681
102.044590,-0.000000,16950.716072,-2757.943793
102.044899,3627.009116,10214.842000,-11338.213370
102.045209,1480.411884,7105.977043,-6281.983084
102.045518,-2442.679609,7698.141797,10418.898773
102.045828,1702.473667,6883.915261,10801.946522
102.046137,3182.885551,7920.203579,6281.983084
102.046447,-370.102971,11029.068536,9346.365076
102.046757,6661.853478,9844.739029,-2068.457845
102.047066,1110.308913,5625.565159,-10495.508323
102.047376,-6809.894666,5329.482782,-919.314598
102.047685,-6069.688724,10510.924376,1915.238745
102.047995,-666.185348,10362.883188,-10725.336972
102.048304,-3627.009116,16432.571912,-7124.688131
102.048614,592.164754,13915.871710,-4749.792088
102.048924,6365.771101,7920.203579,-12257.527968
102.049233,740.205942,5329.482782,-5132.839837
102.049543,-2220.617826,9104.533087,11644.651570
102.049852,4959.379811,8956.491898,4136.915689
102.050162,4959.379811,7476.080014,2757.943793
102.050472,-1184.329507,11399.171507,9576.193725
102.050781,5255.462188,10732.986159,-3140.991542
102.051091,5033.400406,4589.276840,-14785.643111
102.051400,-5403.503377,9474.636058,76.609550
102.051710,-6883.915261,10955.047942,4826.401637
102.052019,-444.123565,8882.471304,-10189.070123
102.052329,-4441.235652,15692.365970,-6741.640382
102.052639,-592.164754,16210.510130,-2681.334243
102.052948,7105.977043,7920.203579,-13713.109414
102.053258,-74.020594,4367.215058,-3677.258390
102.053567,-2738.761985,7105.977043,14938.862211
102.053877,3034.844362,7402.059420,9269.755526
102.054186,5329.482782,9770.718434,1915.238745
102.054496,740.205942,9844.739029,9652.803275
102.054806,3404.947333,10584.944971,-2911.162892
102.055115,3478.967927,4293.194464,-13176.842566
102.055425,-8438.347739,7402.059420,689.485948
102.055734,-6513.812290,9548.656652,1838.629195
102.056044,740.205942,11991.336260,-12870.404366
102.056353,-3034.844362,17098.757260,-7354.516781
102.056663,296.082377,14878.139434,-1685.410096
102.056973,3923.091493,6735.874072,-9346.365076
102.057282,-0.000000,3997.112087,-3677.258390
102.057592,-3923.091493,4737.318029,13942.938064
102.057901,1850.514855,5995.668130,7890.783629
102.058211,4145.153275,9992.780217,1762.019645
102.058520,-0.000000,13989.892304,1149.143247
102.058830,6217.729913,8734.430116,-5898.935335
102.059140,1110.308913,2812.782580,-10801.946522
102.059449,-7105.977043,9252.574275,2374.896044
102.059759,-5551.544565,9104.533087,1455.581446
102.060068,-1258.350101,11769.274478,-11184.994271
102.060378,-2072.576638,15988.448347,-6665.030833
102.060687,2294.638420,16580.613101,-6818.249932
102.060997,3775.050304,9326.594869,-11797.870669
102.061307,-3701.029710,6809.894666,-1915.238745
102.061616,-1406.391290,9326.594869,9576.193725
102.061926,5181.441594,7031.956449,2145.067394
102.062235,2442.679609,8364.327145,4136.915689
102.062545,-370.102971,9178.553681,9652.803275
102.062854,7105.977043,6883.915261,-7584.345430
102.063164,740.205942,3627.009116,-7814.174080
102.063474,-7402.059420,5181.441594,8044.002729
102.063783,-4959.379811,6957.935855,2757.943793
102.064093,-370.102971,12213.398043,-12947.013916
102.064402,-2664.741391,17320.819043,-6818.249932
102.064712,1406.391290,17246.798449,-5745.716235
102.065021,2738.761985,8808.450710,-13176.842566
102.065331,-3478.967927,8364.327145,536.266849
102.065641,-2516.700203,10362.883188,10265.679673
102.065950,3478.967927,6217.729913,2604.724693
102.066260,1184.329507,9770.718434,4060.306139
102.066569,1480.411884,10732.986159,8120.612279
102.066879,6661.853478,6587.832884,-6281.983084
102.067188,-370.102971,2294.638420,-6971.469032
102.067498,-9104.533087,5477.523971,6971.469032
102.067808,-2368.659014,10436.903782,-1532.190996
102.068117,296.082377,10066.800811,-12563.966167
102.068427,-4367.215058,17542.880825,-4290.134789
102.068736,2812.782580,12953.603985,-6511.811733
102.069046,3256.906145,7920.203579,-14172.766713
102.069355,-3627.009116,7698.141797,3064.381992
102.069665,-1184.329507,7920.203579,10342.289223
102.069975,4515.256246,10066.800811,4136.915689
102.070284,444.123565,12361.439231,3753.867940
102.070594,3034.844362,12065.356855,9269.755526
102.070903,6883.915261,9400.615463,-7431.126331
102.071213,-888.247130,4663.297435,-7890.783629
102.071522,-6809.894666,6957.935855,6281.983084
102.071832,-2886.803174,8216.285956,-919.314598
102.072142,-0.000000,9844.739029,-11797.870669
102.072451,-4219.173869,15100.201217,-2604.724693
102.072761,5773.606348,12879.583391,-1915.238745
102.073070,5107.421000,8512.368333,-12027.699319
102.073380,-5181.441594,5699.585753,3140.991542
102.073689,1184.329507,7846.182985,10035.851024
102.073999,2294.638420,6809.894666,1685.410096
102.074309,2664.741391,9326.594869,4979.620737
102.074618,592.164754,10584.944971,9499.584175
102.074928,4071.132681,10288.862594,-6741.640382
102.075237,1554.432478,6365.771101,-5975.544884
102.075547,-7624.121203,7105.977043,3370.820191
102.075856,-4367.215058,11695.253884,-5515.887586
102.076166,-1332.370696,9844.739029,-12027.699319
102.076476,-3034.844362,16580.613101,-3370.820191
102.076785,3404.947333,14730.098246,-7277.907231
102.077095,518.144159,6291.750507,-13483.280765
102.077404,-3330.926739,5255.462188,7354.516781
102.077714,2294.638420,3330.926739,11338.213370
102.078023,5033.400406,6069.688724,-612.876398
102.078333,-296.082377,11029.068536,6588.421283
102.078643,2294.638420,12287.418637,6052.154434
102.078952,5181.441594,9030.512492,-10878.556072
102.079262,-1480.411884,8512.368333,-7967.393179
102.079571,-8068.244768,10066.800811,4673.182538
102.079881,-1036.288319,11103.089130,-6971.469032
102.080190,-2146.597232,11991.336260,-11874.480219
102.080500,-3404.947333,16876.695478,-1762.019645
102.080810,2738.761985,10362.883188,-5209.449386
102.081119,4885.359217,4811.338623,-8503.660028
102.081429,-1924.535449,7476.080014,6894.859482
102.081738,-1554.432478,7031.956449,9806.022374
102.082048,4811.338623,5329.482782,383.047749
102.082357,-740.205942,9696.697840,4979.620737
102.082667,2590.720797,11991.336260,1838.629195
102.082977,5551.544565,8808.450710,-8810.098227
102.083286,-2812.782580,7476.080014,-5132.839837
102.083596,-5995.668130,10510.924376,6281.983084
102.083905,-666.185348,8142.265362,-3907.087040
102.084215,-3775.050304,13397.727550,-4979.620737
102.084524,-2738.761985,15544.324782,-1149.143247
102.084834,2368.659014,10140.821405,-7124.688131
102.085144,3108.864956,8438.347739,-9729.412825
102.085453,-1924.535449,7402.059420,4596.572988
102.085763,-1480.411884,9474.636058,9806.022374
102.086072,1406.391290,8142.265362,1838.629195
102.086382,592.164754,10807.006753,6281.983084
102.086691,3256.906145,9844.739029,2528.115143
102.087001,5551.544565,5847.626942,-12487.356617
102.087311,-3997.112087,7994.224174,-2834.553343
102.087620,-5329.482782,7550.100608,4060.306139
102.087930,370.102971,9030.512492,-6971.469032
102.088239,-4441.235652,10807.006753,-7354.516781
102.088549,-2220.617826,15692.365970,-689.485948
102.088858,6439.791695,10732.986159,-11491.432470
102.089168,1406.391290,6143.709319,-9116.536426
102.089478,-3034.844362,9178.553681,8350.440928
102.089787,666.185348,5773.606348,7124.688131
102.090097,5033.400406,9474.636058,459.657299
102.090406,-1850.514855,10658.965565,9959.241474
102.090716,4145.153275,12435.459826,2145.067394
102.091026,6439.791695,7698.141797,-13559.890315
102.091335,-7476.080014,7550.100608,-2145.067394
102.091645,-7328.038826,9252.574275,4979.620737
102.091954,1554.432478,9030.512492,-9652.803275
102.092264,-2590.720797,13915.871710,-8427.050478
102.092573,-2664.741391,14434.015869,4519.963438
102.092883,3627.009116,9474.636058,-8580.269578
102.093193,2294.638420,6809.894666,-6971.469032
102.093502,-1924.535449,5477.523971,10648.727422
102.093812,-814.226536,4959.379811,8503.660028
102.094121,2146.597232,9474.636058,536.266849
102.094431,-666.185348,14359.995275,8197.221829
102.094740,3404.947333,12435.459826,1072.533697
102.095050,4663.297435,9474.636058,-11797.870669
102.095360,-4885.359217,8586.388927,-1915.238745
102.095669,-5033.400406,6217.729913,7124.688131
102.095979,-2516.700203,10362.883188,-7967.393179
102.096288,-3108.864956,13249.686362,-7507.735880
102.096598,814.226536,14656.077652,-919.314598
102.096907,4441.235652,8882.471304,-9806.022374
102.097217,2220.617826,5921.647536,-6435.202183
102.097527,-4145.153275,3775.050304,12257.527968
102.097836,2368.659014,5773.606348,7737.564530
102.098146,2516.700203,4219.173869,1838.629195
102.098455,-740.205942,10658.965565,10878.556072
102.098765,4737.318029,7994.224174,-536.266849
102.099074,3552.988522,7031.956449,-12640.575717
102.099384,-5773.606348,9992.780217,-2911.162892
102.099694,-4885.359217,11103.089130,1608.800546
102.100003,-0.000000,14804.118840,-10572.117872
102.100313,-5477.523971,16580.613101,-7507.735880
102.100622,3256.906145,17468.860231,-4136.915689
102.100932,5699.585753,9548.656652,-11797.870669
102.101241,222.061783,5921.647536,-4136.915689
102.101551,-1258.350101,4589.276840,14555.814462
102.101861,4441.235652,4885.359217,5898.935335
102.102170,2664.741391,7772.162391,4366.744339
102.102480,-1184.329507,9178.553681,12257.527968
102.102789,5773.606348,8290.306550,-1608.800546
102.103099,4219.173869,7105.977043,-14249.376263
102.103408,-7402.059420,8216.285956,-229.828649
102.103718,-5847.626942,8438.347739,2451.505594
102.104028,-3478.967927,13545.768739,-10801.946522
102.104337,-3775.050304,14804.118840,-4443.353888
102.104647,-222.061783,16580.613101,-995.924147
102.104956,7105.977043,12361.439231,-13559.890315
102.105266,-1924.535449,6661.853478,-2987.772442
102.105575,-5403.503377,6365.771101,13176.842566
102.105885,1554.432478,5699.585753,4903.011187
102.106195,4589.276840,6069.688724,1762.019645
102.106504,-370.102971,10732.986159,10725.336972
102.106814,4145.153275,8290.306550,-3524.039291
102.107123,3108.864956,4441.235652,-14019.547613
102.107433,-7698.141797,5329.482782,2834.553343
102.107742,-5181.441594,10732.986159,1149.143247
102.108052,-1332.370696,13101.645173,-13636.499864
102.108361,-3849.070898,16136.489536,-5439.278036
102.108671,370.102971,15988.448347,-3370.820191
102.108980,7994.224174,9030.512492,-13023.623466
102.109290,1406.391290,6883.915261,-2068.457845
102.109600,-3034.844362,5995.668130,15092.081311
102.109909,3330.926739,4959.379811,10035.851024
102.110219,222.061783,7254.018232,3370.820191
102.110528,1184.329507,11029.068536,7660.954980
102.110838,6513.812290,9030.512492,-5822.325785
102.111147,-0.000000,8586.388927,-13636.499864
102.111457,-7624.121203,9622.677246,-536.266849
102.111766,-3775.050304,10584.944971,-689.485948
102.112076,-1406.391290,11917.315666,-13253.452115
102.112385,-3034.844362,14063.912898,-4749.792088
102.112695,1776.494261,12805.562797,-766.095498
102.113004,5921.647536,5477.523971,-7814.174080
102.113314,370.102971,5551.544565,4060.306139
102.113623,-2442.679609,4367.215058,16777.491406
102.113933,4885.359217,5033.400406,5975.544884
102.114242,3034.844362,8808.450710,4136.915689
102.114552,-222.061783,12657.521608,7354.516781
102.114861,5699.585753,11399.171507,-8503.660028
102.115171,-1480.411884,8142.265362,-12870.404366
102.115481,-10288.862594,10584.944971,3524.039291
102.115790,-5403.503377,11843.295072,-2528.115143
102.116100,-814.226536,13693.809927,-16088.005458
102.116409,-3552.988522,16210.510130,-4826.401637
102.116719,1850.514855,13619.789333,-919.314598
102.117028,7179.997637,4219.173869,-8273.831378
102.117338,-1554.432478,5699.585753,4903.011187
102.117647,-296.082377,4441.235652,16088.005458
102.117957,5403.503377,4663.297435,3217.601092
102.118266,3330.926739,7402.059420,2374.896044
102.118576,148.041188,7846.182985,6741.640382
102.118885,4441.235652,8142.265362,-7584.345430
102.119195,-962.267725,7105.977043,-10189.070123
102.119504,-6957.935855,11473.192101,2068.457845
102.119814,-5329.482782,9992.780217,-4979.620737
102.120123,-3182.885551,14211.954086,-13176.842566
102.120433,-2664.741391,17542.880825,-4903.011187
102.120743,2664.741391,13249.686362,-5745.716235
102.121052,5403.503377,9548.656652,-9882.631924
102.121362,-2886.803174,6439.791695,3830.477490
102.121671,370.102971,6809.894666,12717.185267
102.121981,7402.059420,6291.750507,2528.115143
102.122290,1776.494261,7550.100608,5515.887586
102.122600,-666.185348,9622.677246,7431.126331
102.122909,4515.256246,6513.812290,-6358.592633
102.123219,-2220.617826,5625.565159,-6205.373534
102.123528,-9104.533087,9770.718434,3294.210641
102.123838,-1406.391290,10288.862594,-8120.612279
102.124147,-4367.215058,13397.727550,-15858.176809
102.124457,-3997.112087,17838.963202,-1225.752797
102.124766,2886.803174,14582.057057,-4290.134789
102.125076,2812.782580,7698.141797,-10265.679673
102.125385,-1110.308913,8956.491898,7201.297681
102.125695,740.205942,6883.915261,10955.165621
102.126005,6217.729913,6143.709319,306.438199
102.126314,1776.494261,7550.100608,6741.640382
102.126624,-148.041188,11325.150913,7277.907231
102.126933,3923.091493,5107.421000,-6741.640382
102.127243,-2220.617826,5773.606348,-5822.325785
102.127552,-8512.368333,8068.244768,5132.839837
102.127862,-222.061783,11029.068536,-7354.516781
102.128171,-2664.741391,12361.439231,-14402.595362
102.128481,-1480.411884,13471.748144,-3983.696590
102.128790,3182.885551,13175.665768,-5515.887586
102.129100,4219.173869,8660.409521,-11414.822920
102.129409,-0.000000,7772.162391,4903.011187
102.129719,444.123565,9696.697840,10572.117872
102.130028,5699.585753,6957.935855,2068.457845
102.130338,2072.576638,7179.997637,8197.221829
102.130647,3552.988522,8068.244768,8427.050478
102.130957,4811.338623,5995.668130,-7890.783629
102.131267,-4071.132681,2590.720797,-3064.381992
102.131576,-7772.162391,9622.677246,4903.011187
102.131886,148.041188,9844.739029,-8733.488677
102.132195,-2812.782580,12953.603985,-15704.957709
102.132505,-7105.977043,17172.777854,-2757.943793
102.132814,2368.659014,12435.459826,-7201.297681
102.133124,2442.679609,7402.059420,-11338.213370
102.133433,-888.247130,11029.068536,5898.935335
102.133743,1850.514855,8512.368333,11491.432470
102.134052,7254.018232,4071.132681,4213.525239
102.134362,-0.000000,9030.512492,11797.870669
102.134671,1184.329507,9326.594869,8503.660028
102.134981,5551.544565,7179.997637,-9729.412825
102.135290,-3627.009116,6957.935855,-4290.134789
102.135600,-5255.462188,9844.739029,2451.505594
102.135909,-1036.288319,10510.924376,-13636.499864
102.136219,-5773.606348,15100.201217,-15092.081311
102.136529,-6291.750507,13915.871710,-306.438199
102.136838,3404.947333,13471.748144,-8580.269578
102.137148,3478.967927,7105.977043,-9729.412825
102.137457,-1184.329507,6291.750507,11338.213370
102.137767,4071.132681,2516.700203,14709.033562
102.138076,5551.544565,4737.318029,2451.505594
102.138386,1184.329507,7179.997637,9422.974625
102.138695,4441.235652,8142.265362,7201.297681
102.139005,2960.823768,10140.821405,-13023.623466
102.139314,-592.164754,8364.327145,-7277.907231
102.139624,-8882.471304,10288.862594,2834.553343
102.139933,-4959.379811,15692.365970,-13866.328514
102.140243,-1554.432478,10214.842000,-14249.376263
102.140552,-6217.729913,16136.489536,-1225.752797
102.140862,3923.091493,14582.057057,-6971.469032
102.141171,3997.112087,5477.523971,-10495.508323
102.141481,-1480.411884,9474.636058,8350.440928
102.141791,2294.638420,7179.997637,12104.308868
102.142100,7105.977043,3182.885551,4060.306139
102.142410,-1110.308913,9104.533087,10189.070123
102.142719,2886.803174,9622.677246,995.924147
102.143029,7105.977043,5625.565159,-10572.117872
102.143338,-7105.977043,5107.421000,-1455.581446
102.143648,-7105.977043,10066.800811,4596.572988
102.143957,-2294.638420,11177.109724,-11644.651570
102.144267,-2886.803174,11399.171507,-11261.603821
102.144576,-6291.750507,14804.118840,-1302.362347
102.144886,1850.514855,14730.098246,-9806.022374
102.145195,3108.864956,8068.244768,-9959.241474
102.145505,-2812.782580,6143.709319,9346.365076
102.145814,2294.638420,8290.306550,9806.022374
102.146124,2442.679609,7624.121203,3983.696590
102.146433,-148.041188,8290.306550,10801.946522
102.146743,5625.565159,10658.965565,536.266849
102.147052,5477.523971,5107.421000,-16700.881856
102.147362,-6809.894666,7550.100608,-1149.143247
102.147672,-5255.462188,9622.677246,3447.429741
102.147981,-2220.617826,9474.636058,-12793.794817
102.148291,-3627.009116,11399.171507,-9576.193725
102.148600,-3404.947333,12879.583391,-995.924147
102.148910,5699.585753,11177.109724,-12793.794817
102.149219,2146.597232,7105.977043,-7201.297681
102.149529,-1332.370696,10955.047942,12180.918418
102.149838,4885.359217,6513.812290,8503.660028
102.150148,3701.029710,8586.388927,306.438199
102.150457,-740.205942,12583.501014,11184.994271
102.150767,4811.338623,11843.295072,-842.705048
102.151076,7624.121203,6957.935855,-14785.643111
102.151386,-6513.812290,9474.636058,0.000000
102.151695,-7179.997637,10288.862594,6205.373534
102.152005,-2516.700203,8808.450710,-10112.460574
102.152314,-2886.803174,12583.501014,-9499.584175
102.152624,-1850.514855,12953.603985,-4443.353888
102.152934,5403.503377,9326.594869,-12793.794817
102.153243,-2294.638420,7254.018232,-4290.134789
102.153553,-2294.638420,8364.327145,12793.794817
102.153862,4219.173869,8512.368333,5209.449386
102.154172,2220.617826,6735.874072,6128.763984
102.154481,444.123565,10214.842000,13330.061665
102.154791,3849.070898,9548.656652,-1149.143247
102.155100,8068.244768,6587.832884,-12717.185267
102.155410,-10732.986159,8364.327145,2451.505594
102.155719,-4663.297435,8438.347739,5975.544884
102.156029,-1776.494261,11991.336260,-12793.794817
102.156338,-4071.132681,15174.221811,-11031.775171
102.156648,-1480.411884,11843.295072,-2221.676944
102.156957,2220.617826,10584.944971,-12640.575717
102.157267,-740.205942,8216.285956,-4903.011187
102.157576,-222.061783,6365.771101,10418.898773
102.157886,5403.503377,7476.080014,4213.525239
102.158196,1924.535449,8660.409521,2834.553343
102.158505,1184.329507,10658.965565,9652.803275
102.158815,8438.347739,8290.306550,-2528.115143
102.159124,5329.482782,7846.182985,-11491.432470
102.159434,-6069.688724,6291.750507,4673.182538
102.159743,-4959.379811,7624.121203,5286.058936
102.160053,-1702.473667,9696.697840,-10725.336972
102.160362,-1184.329507,14211.954086,-9039.926876
102.160672,-1480.411884,15396.283594,-5515.887586
102.160981,2368.659014,9622.677246,-11184.994271
102.161291,-1850.514855,8586.388927,-1532.190996
102.161600,-1480.411884,10436.903782,7507.735880
102.161910,5847.626942,9252.574275,1225.752797
102.162219,-592.164754,9178.553681,4443.353888
102.162529,814.226536,12213.398043,10112.460574
102.162838,6809.894666,6957.935855,-1149.143247
102.163148,5773.606348,5773.606348,-8503.660028
102.163458,-6883.915261,7402.059420,7890.783629
102.163767,-4737.318029,9622.677246,5132.839837
102.164077,-444.123565,8290.306550,-12257.527968
102.164386,-5107.421000,11029.068536,-7814.174080
102.164696,-148.041188,14508.036463,-5132.839837
102.165005,2220.617826,11103.089130,-13330.061665
102.165315,-1850.514855,7698.141797,-3064.381992
102.165624,-5255.462188,11991.336260,5975.544884
102.165934,3108.864956,8586.388927,0.000000
102.166243,3330.926739,10066.800811,2911.162892
102.166553,666.185348,12213.398043,10265.679673
102.166862,6069.688724,9474.636058,-2451.505594
102.167172,4219.173869,4811.338623,-7967.393179
102.167481,-6883.915261,7105.977043,6971.469032
102.167791,-3849.070898,8512.368333,536.266849
102.168100,592.164754,9400.615463,-12870.404366
102.168410,-5181.441594,11251.130318,-7431.126331
102.168720,-0.000000,13693.809927,-7584.345430
102.169029,1776.494261,8290.306550,-11568.042020
102.169339,-2368.659014,8512.368333,842.705048
102.169648,-888.247130,8882.471304,8580.269578
102.169958,5255.462188,7402.059420,1302.362347
102.170267,2294.638420,7402.059420,3600.648841
102.170577,740.205942,12435.459826,7584.345430
102.170886,9400.615463,9548.656652,-4213.525239
102.171196,-1924.535449,8734.430116,-6665.030833
102.171505,-3552.988522,8512.368333,4749.792088
102.171815,-1850.514855,9770.718434,-1149.143247
102.172124,-1998.556043,9696.697840,-10878.556072
102.172434,-5625.565159,13027.624579,-4060.306139
102.172743,-370.102971,11769.274478,-7277.907231
102.173053,2368.659014,7105.977043,-11261.603821
102.173362,-4441.235652,9918.759623,0.000000
102.173672,148.041188,9030.512492,6971.469032
102.173982,5551.544565,6883.915261,-1225.752797
102.174291,296.082377,7179.997637,4596.572988
102.174601,1258.350101,11843.295072,10342.289223
102.174910,7105.977043,8216.285956,-3600.648841
102.175220,740.205942,6661.853478,-3907.087040
102.175529,-5329.482782,10658.965565,7354.516781
102.175839,-1776.494261,7624.121203,-2757.943793
102.176148,-1110.308913,10658.965565,-11338.213370
102.176458,-5699.585753,13767.830521,-4290.134789
102.176767,222.061783,11695.253884,-7660.954980
102.177077,2960.823768,11843.295072,-10495.508323
102.177386,-3182.885551,9326.594869,3677.258390
102.177696,222.061783,6883.915261,7660.954980
102.178005,4367.215058,5477.523971,-919.314598
102.178315,740.205942,7846.182985,4903.011187
102.178624,1924.535449,10881.027347,7890.783629
102.178934,6513.812290,10436.903782,-5898.935335
102.179243,-0.000000,9844.739029,-3753.867940
102.179553,-3775.050304,10214.842000,3830.477490
102.179863,666.185348,10140.821405,-10418.898773
102.180172,-2442.679609,8290.306550,-10342.289223
102.180482,-4737.318029,12953.603985,-153.219100
102.180791,2072.576638,11325.150913,-7048.078582
102.181101,4515.256246,5921.647536,-10801.946522
102.181410,-4515.256246,9474.636058,6818.249932
102.181720,518.144159,8586.388927,8886.707777
102.182029,4663.297435,8438.347739,-2911.162892
102.182339,-666.185348,10140.821405,5286.058936
102.182648,1702.473667,11325.150913,10725.336972
102.182958,6217.729913,8734.430116,-9959.241474
102.183267,-1776.494261,5921.647536,-4443.353888
102.183577,-5625.565159,9474.636058,7967.393179
102.183886,-888.247130,8364.327145,-2911.162892
102.184196,-1110.308913,9252.574275,-8733.488677
102.184505,-4959.379811,12805.562797,1225.752797
102.184815,1184.329507,10881.027347,-6052.154434
102.185125,1702.473667,6069.688724,-10648.727422
102.185434,-5551.544565,11473.192101,5056.230287
102.185744,1998.556043,9030.512492,3217.601092
102.186053,4367.215058,7254.018232,-4749.792088
102.186363,-2368.659014,11325.150913,7354.516781
102.186672,1628.453072,9178.553681,7048.078582
102.186982,6957.935855,9178.553681,-5439.278036
102.187291,-814.226536,8734.430116,-1991.848295
102.187601,-4885.359217,7179.997637,6435.202183
102.187910,592.164754,7476.080014,-4596.572988
102.188220,-1924.535449,10807.006753,-6818.249932
102.188529,-4071.132681,15026.180623,-1991.848295
102.188839,3034.844362,12361.439231,-10955.165621
102.189148,1406.391290,9474.636058,-10112.460574
102.189458,-2146.597232,9622.677246,4366.744339
102.189767,2738.761985,7402.059420,2987.772442
102.190077,2368.659014,9030.512492,1225.752797
102.190387,-1036.288319,8734.430116,8580.269578
102.190696,962.267725,10140.821405,3907.087040
102.191006,7105.977043,8586.388927,-9959.241474
102.191315,-1258.350101,7402.059420,-536.266849
102.191625,-4737.318029,11103.089130,3600.648841
102.191934,666.185348,11325.150913,-5745.716235
102.192244,-4367.215058,9622.677246,-6052.154434
102.192553,-2368.659014,14582.057057,995.924147
102.192863,3849.070898,8660.409521,-8197.221829
102.193172,370.102971,5773.606348,-7201.297681
102.193482,-3997.112087,7105.977043,9422.974625
102.193791,1110.308913,9474.636058,2911.162892
102.194101,5107.421000,7179.997637,-5745.716235
102.194410,-2368.659014,11843.295072,9422.974625
102.194720,2294.638420,12879.583391,3294.210641
102.195029,4811.338623,8808.450710,-10725.336972
102.195339,-2738.761985,7994.224174,-689.485948
102.195649,-5551.544565,7402.059420,4903.011187
102.195958,444.123565,10288.862594,-8120.612279
102.196268,-4737.318029,11917.315666,-5286.058936
102.196577,-2220.617826,15100.201217,0.000000
102.196887,3923.091493,10658.965565,-11874.480219
102.197196,2442.679609,9548.656652,-6665.030833
102.197506,-2294.638420,9770.718434,8810.098227
102.197815,1184.329507,6957.935855,4136.915689
102.198125,3034.844362,8438.347739,-1072.533697
102.198434,-740.205942,8364.327145,4290.134789
102.198744,4515.256246,8512.368333,-536.266849
102.199053,4145.153275,6291.750507,-9576.193725
102.199363,-2960.823768,7624.121203,1608.800546
102.199672,-3404.947333,9844.739029,5592.497135
102.199982,1110.308913,8660.409521,-8350.440928
102.200291,-3330.926739,12583.501014,-4903.011187
102.200601,-2442.679609,13693.809927,-995.924147
102.200911,4737.318029,10066.800811,-14019.547613
102.201220,-0.000000,7476.080014,-8580.269578
102.201530,-1998.556043,10658.965565,9729.412825
102.201839,2664.741391,7550.100608,3983.696590
102.202149,1480.411884,9400.615463,1149.143247
102.202458,-1924.535449,7920.203579,10035.851024
102.202768,6883.915261,9400.615463,-4366.744339
102.203077,4959.379811,7179.997637,-10725.336972
102.203387,-6809.894666,4663.297435,2604.724693
102.203696,-3478.967927,10510.924376,5056.230287
102.204006,-1628.453072,10658.965565,-9576.193725
102.204315,-4219.173869,13397.727550,-5898.935335
102.204625,-1258.350101,12953.603985,-459.657299
102.204934,3330.926739,11991.336260,-12793.794817
102.205244,2368.659014,7846.182985,-5822.325785
102.205553,-0.000000,9474.636058,11338.213370
102.205863,3330.926739,7179.997637,4749.792088
102.206173,2738.761985,9252.574275,1685.410096
102.206482,-888.247130,9178.553681,9806.022374
102.206791,2960.823768,8068.244768,-306.438199
102.207101,5255.462188,6291.750507,-9806.022374
102.207410,-6587.832884,7550.100608,1915.238745
102.207720,-4441.235652,11399.171507,1302.362347
102.208029,-74.020594,10362.883188,-11414.822920
102.208339,-5403.503377,11547.212695,-4979.620737
102.208648,-1776.494261,11991.336260,-1762.019645
102.208958,5255.462188,11399.171507,-13789.718964
102.209267,888.247130,8512.368333,-4596.572988
102.209577,-2072.576638,8586.388927,12027.699319
102.209886,4885.359217,7328.038826,3294.210641
102.210196,3552.988522,6587.832884,1838.629195
102.210505,814.226536,9844.739029,8503.660028
102.210815,3256.906145,8068.244768,-1685.410096
102.211124,4293.194464,5255.462188,-10342.289223
102.211434,-8734.430116,8956.491898,2757.943793
102.211743,-2442.679609,12435.459826,842.705048
102.212053,-0.000000,11325.150913,-12410.747068
102.212362,-3552.988522,14211.954086,-6588.421283
