#time,accel_x,accel_y,accel_z
155.349115,-296.082377,9548.656652,-689.485948
155.349425,-74.020594,8956.491898,-1072.533697
155.349735,-0.000000,8956.491898,-1302.362347
155.350045,-2960.823768,11177.109724,-766.095498
155.350355,148.041188,10288.862594,-1302.362347
155.350664,-370.102971,10214.842000,153.219100
155.350974,-296.082377,9696.697840,0.000000
155.351284,592.164754,8586.388927,-1991.848295
155.351594,962.267725,8142.265362,-1762.019645
155.351904,-1110.308913,9474.636058,-1378.971896
155.352214,-0.000000,9622.677246,0.000000
155.352524,222.061783,9992.780217,-306.438199
155.352834,518.144159,9770.718434,-842.705048
155.353144,518.144159,9030.512492,-1915.238745
155.353454,-148.041188,8216.285956,-1455.581446
155.353763,148.041188,9030.512492,0.000000
155.354073,370.102971,8142.265362,0.000000
155.354383,-444.123565,7846.182985,76.609550
155.354693,2294.638420,7402.059420,1225.752797
155.355003,5033.400406,7328.038826,2068.457845
155.355313,2368.659014,7624.121203,8886.707777
155.355623,-1628.453072,5995.668130,10955.165621
155.355933,3182.885551,6809.894666,10725.336972
155.356243,7031.956449,8734.430116,3983.696590
155.356552,3849.070898,6735.874072,3370.820191
155.356862,-3330.926739,8882.471304,13176.842566
155.357172,-740.205942,12065.356855,13942.938064
155.357482,1332.370696,10658.965565,4519.963438
155.357792,1406.391290,12139.377449,5286.058936
155.358102,-1628.453072,12657.521608,11108.384721
155.358412,-15026.180623,14434.015869,12410.747068
155.358722,28275.866984,16136.489536,-6128.763984
155.359032,-14211.954086,7476.080014,1532.190996
155.359341,-4589.276840,16210.510130,20837.797546
155.359651,-18431.127956,8142.265362,26966.561530
155.359961,4811.338623,13249.686362,0.000000
155.360271,10362.883188,12879.583391,-3447.429741
155.360581,-12065.356855,9178.553681,9806.022374
155.360891,-3034.844362,11621.233289,8044.002729
155.361201,-2368.659014,4145.153275,2451.505594
155.361511,-4737.318029,9548.656652,2068.457845
155.361821,-3108.864956,3923.091493,17160.539155
155.362130,3404.947333,4515.256246,10418.898773
155.362440,-4145.153275,2960.823768,12027.699319
155.362750,370.102971,4589.276840,15092.081311
155.363060,-1258.350101,8068.244768,6281.983084
155.363370,-3552.988522,4737.318029,4213.525239
155.363680,1998.556043,14730.098246,5822.325785
155.363990,1480.411884,10881.027347,-1915.238745
155.364300,5699.585753,14508.036463,-1915.238745
155.364610,-962.267725,11843.295072,19535.435199
155.364920,740.205942,8290.306550,22982.864940
155.365229,2886.803174,6291.750507,15551.738609
155.365539,2072.576638,5995.668130,11184.994271
155.365849,-888.247130,7105.977043,10648.727422
155.366159,4145.153275,11991.336260,-1302.362347
155.366469,6365.771101,16876.695478,-6588.421283
155.366779,962.267725,17024.736666,6511.811733
155.367089,-5847.626942,14730.098246,17696.806004
155.367399,-4737.318029,11917.315666,16011.395908
155.367709,2960.823768,10955.047942,3524.039291
155.368018,4515.256246,7328.038826,-4749.792088
155.368328,2072.576638,6661.853478,-383.047749
155.368638,-0.000000,10955.047942,13713.109414
155.368948,-2146.597232,10288.862594,16471.053207
155.369258,1924.535449,7920.203579,9039.926876
155.369568,3849.070898,5773.606348,2145.067394
155.369878,-2886.803174,1628.453072,2374.896044
155.370188,-7772.162391,5773.606348,8273.831378
155.370498,-1776.494261,9474.636058,1762.019645
155.370807,8882.471304,8808.450710,-7660.954980
155.371117,6217.729913,7476.080014,1225.752797
155.371427,-5773.606348,7031.956449,18309.682402
155.371737,-8142.265362,8882.471304,23902.179538
155.372047,2960.823768,9326.594869,5286.058936
155.372357,6735.874072,10066.800811,-7048.078582
155.372667,-2442.679609,11029.068536,-536.266849
155.372977,-9918.759623,13989.892304,2451.505594
155.373287,1924.535449,15470.304188,-4443.353888
155.373596,10066.800811,14063.912898,-4673.182538
155.373906,-0.000000,9178.553681,15321.909960
155.374216,-5921.647536,5995.668130,30337.381721
155.374526,3330.926739,6217.729913,15398.519510
155.374836,5625.565159,2886.803174,1532.190996
155.375146,-0.000000,6735.874072,4979.620737
155.375456,1332.370696,6217.729913,4060.306139
155.375766,4515.256246,4367.215058,1532.190996
155.376076,-888.247130,8956.491898,8963.317327
155.376386,-5625.565159,20281.642811,23289.303139
155.376695,15396.283594,12139.377449,13406.671215
155.377005,7254.018232,5033.400406,10035.851024
155.377315,-2960.823768,10288.862594,-1608.800546
155.377625,-1406.391290,7772.162391,4903.011187
155.377935,13471.748144,18579.169144,-3983.696590
155.378245,-74.020594,12879.583391,2451.505594
155.378555,-7328.038826,14211.954086,25051.322785
155.378865,2886.803174,16950.716072,19688.654299
155.379175,-5329.482782,3478.967927,1762.019645
155.379484,1036.288319,13767.830521,6894.859482
155.379794,2368.659014,9770.718434,8886.707777
155.380104,-370.102971,8364.327145,-7660.954980
155.380414,1406.391290,11399.171507,6052.154434
155.380724,-3404.947333,18949.272115,20531.359346
155.381034,5181.441594,9696.697840,1455.581446
155.381344,4663.297435,7698.141797,3140.991542
155.381654,-8364.327145,11103.089130,27196.390179
155.381964,-5181.441594,3997.112087,21450.673944
155.382273,11029.068536,6809.894666,0.000000
155.382583,2072.576638,4219.173869,6281.983084
155.382893,1184.329507,1702.473667,17160.539155
155.383203,4589.276840,7179.997637,5975.544884
155.383513,-5625.565159,8882.471304,12180.918418
155.383823,-3404.947333,13767.830521,21297.454844
155.384133,1554.432478,9918.759623,7431.126331
155.384443,1998.556043,6587.832884,-2451.505594
155.384753,-6143.709319,7624.121203,9729.412825
155.385062,-8586.388927,10288.862594,14172.766713
155.385372,2220.617826,11991.336260,3983.696590
155.385682,3182.885551,11695.253884,306.438199
155.385992,3182.885551,15322.262999,9346.365076
155.386302,-6735.874072,14211.954086,15858.176809
155.386612,-2960.823768,10955.047942,9193.145976
155.386922,-962.267725,10732.986159,3677.258390
155.387232,2960.823768,9326.594869,-1838.629195
155.387542,3701.029710,8142.265362,306.438199
155.387851,-7105.977043,5551.544565,9652.803275
155.388161,1702.473667,8364.327145,10801.946522
155.388471,370.102971,3997.112087,8197.221829
155.388781,8512.368333,6217.729913,8656.879127
155.389091,-7105.977043,1332.370696,14785.643111
155.389401,-1924.535449,3404.947333,12027.699319
155.389711,5847.626942,10881.027347,-2221.676944
155.390021,7328.038826,7476.080014,-536.266849
155.390331,-2294.638420,11103.089130,12487.356617
155.390641,-1554.432478,11695.253884,17390.367805
155.390950,2664.741391,8808.450710,8273.831378
155.391260,4293.194464,8290.306550,7354.516781
155.391570,-7624.121203,7550.100608,16854.100956
155.391880,-2664.741391,13101.645173,5132.839837
155.392190,7254.018232,8882.471304,-10878.556072
155.392500,2590.720797,15692.365970,-4290.134789
155.392810,-6439.791695,16358.551318,14709.033562
155.393120,1036.288319,13693.809927,10418.898773
155.393430,7846.182985,10658.965565,1762.019645
155.393739,1184.329507,8512.368333,8886.707777
155.394049,-5033.400406,9844.739029,15858.176809
155.394359,3182.885551,5477.523971,7737.564530
155.394669,9178.553681,10214.842000,-4060.306139
155.394979,1998.556043,5773.606348,2528.115143
155.395289,-5995.668130,8142.265362,12027.699319
155.395599,2368.659014,5403.503377,11338.213370
155.395909,-888.247130,5921.647536,8733.488677
155.396219,444.123565,10066.800811,7354.516781
155.396528,-1702.473667,3256.906145,2757.943793
155.396838,3775.050304,10510.924376,-3064.381992
155.397148,-9400.615463,10288.862594,2298.286494
155.397458,-0.000000,15470.304188,-1072.533697
155.397768,2442.679609,11399.171507,-3140.991542
155.398078,-8956.491898,12287.418637,8886.707777
155.398388,-9844.739029,19911.539840,14019.547613
155.398698,1702.473667,10140.821405,-4979.620737
155.399008,6809.894666,12361.439231,-16394.443657
155.399317,-6217.729913,9622.677246,6128.763984
155.399627,-1258.350101,10066.800811,11031.775171
155.399937,9474.636058,2664.741391,-2681.334243
155.400247,-814.226536,3330.926739,6818.249932
155.400557,-5921.647536,9474.636058,19612.044749
155.400867,3552.988522,-1184.329507,229.828649
155.401177,9918.759623,4811.338623,-16624.272307
155.401487,-1850.514855,5033.400406,2145.067394
155.401797,2590.720797,5181.441594,16471.053207
155.402107,4293.194464,6291.750507,7584.345430
155.402416,-8364.327145,5551.544565,12870.404366
155.402726,2072.576638,13619.789333,7201.297681
155.403036,370.102971,13175.665768,-15858.176809
155.403346,5477.523971,20873.807564,-14709.033562
155.403655,-1036.288319,18505.148550,-459.657299
155.403965,-3627.009116,17838.963202,-229.828649
155.404274,5625.565159,11029.068536,0.000000
155.404584,-4811.338623,7698.141797,10725.336972
155.404894,-3701.029710,10881.027347,7814.174080
155.405203,6365.771101,9104.533087,-3524.039291
155.405513,4145.153275,11547.212695,-4903.011187
155.405822,-4737.318029,8808.450710,7660.954980
155.406132,2664.741391,10436.903782,3983.696590
155.406441,2664.741391,9252.574275,-5056.230287
155.406751,-3108.864956,5921.647536,1149.143247
155.407060,-3627.009116,6587.832884,6588.421283
155.407370,2368.659014,4663.297435,-4136.915689
155.407680,1628.453072,12953.603985,-6281.983084
155.407989,-2220.617826,10658.965565,3907.087040
155.408299,2738.761985,6217.729913,2451.505594
155.408608,-2812.782580,10510.924376,-4596.572988
155.408918,-7105.977043,12953.603985,612.876398
155.409227,1998.556043,10510.924376,-4596.572988
155.409537,7105.977043,14952.160028,-17773.415554
155.409847,-222.061783,8142.265362,-689.485948
155.410156,-2516.700203,5847.626942,15934.786358
155.410466,-3108.864956,814.226536,10418.898773
155.410775,4515.256246,-1776.494261,-689.485948
155.411085,6439.791695,2812.782580,2528.115143
155.411394,740.205942,3256.906145,1149.143247
155.411704,2590.720797,12361.439231,-5975.544884
155.412013,592.164754,19467.416275,153.219100
155.412323,-1628.453072,13989.892304,3140.991542
155.412633,666.185348,13027.624579,-5515.887586
155.412942,-814.226536,15322.262999,459.657299
155.413252,1480.411884,14434.015869,2145.067394
155.413561,5551.544565,13915.871710,-5362.668486
155.413871,1628.453072,15766.386565,2145.067394
155.414180,6217.729913,12287.418637,7890.783629
155.414490,-0.000000,9474.636058,-3600.648841
155.414799,-4071.132681,4737.318029,383.047749
155.415109,-4071.132681,9770.718434,6511.811733
155.415419,3108.864956,9696.697840,-11414.822920
155.415728,3627.009116,7254.018232,-14172.766713
155.416038,-3108.864956,8882.471304,4290.134789
155.416347,-4071.132681,3775.050304,8044.002729
155.416657,-5625.565159,3182.885551,766.095498
155.416966,-444.123565,11177.109724,5286.058936
155.417276,4663.297435,6883.915261,-1991.848295
155.417586,4589.276840,9770.718434,-16241.224558
155.417895,-7624.121203,11695.253884,7737.564530
155.418205,-5403.503377,16358.551318,11568.042020
155.418514,3997.112087,10881.027347,-13636.499864
155.418824,-888.247130,8438.347739,-12870.404366
155.419133,-5921.647536,9474.636058,2987.772442
155.419443,-0.000000,9622.677246,-6971.469032
155.419752,4367.215058,7550.100608,-11338.213370
155.420062,3108.864956,13101.645173,4903.011187
155.420372,-888.247130,2516.700203,10112.460574
155.420681,-814.226536,3034.844362,-1225.752797
155.420991,-2072.576638,11399.171507,1838.629195
155.421300,1702.473667,9474.636058,-3217.601092
155.421610,11843.295072,12065.356855,-19152.387450
155.421919,1850.514855,13693.809927,-4290.134789
155.422229,-4885.359217,8734.430116,15475.129060
155.422538,3849.070898,5995.668130,3830.477490
155.422848,-1406.391290,5403.503377,3600.648841
155.423158,-4663.297435,13841.851115,11721.261119
155.423467,444.123565,15174.221811,-9882.631924
155.423777,4219.173869,14211.954086,-27809.266577
155.424086,2072.576638,17764.942608,-9959.241474
155.424396,-9770.718434,11103.089130,1149.143247
155.424705,444.123565,9400.615463,-459.657299
155.425015,-4959.379811,7994.224174,6511.811733
155.425325,3627.009116,1258.350101,5362.668486
155.425634,-148.041188,5255.462188,-1685.410096
155.425944,-592.164754,8512.368333,2451.505594
155.426253,5921.647536,6661.853478,76.609550
155.426563,7105.977043,6143.709319,-8580.269578
155.426872,-4071.132681,2960.823768,7890.783629
155.427182,-10066.800811,8956.491898,15168.690860
155.427491,1406.391290,8586.388927,-9499.584175
155.427801,1702.473667,9178.553681,-18156.463303
155.428111,-2812.782580,18949.272115,689.485948
155.428420,-1332.370696,14063.912898,0.000000
155.428730,518.144159,10140.821405,-9959.241474
155.429039,3849.070898,13545.768739,-842.705048
155.429349,592.164754,8438.347739,5898.935335
155.429658,-0.000000,5699.585753,2528.115143
155.429968,-518.144159,14137.933492,5515.887586
155.430277,4441.235652,6291.750507,3600.648841
155.430587,12583.501014,5921.647536,-6358.592633
155.430897,-4737.318029,4737.318029,2604.724693
155.431206,-6143.709319,5773.606348,11491.432470
155.431516,4737.318029,9474.636058,-4826.401637
155.431825,-592.164754,10658.965565,-15858.176809
155.432135,-296.082377,19097.313304,-1225.752797
155.432444,-7328.038826,16580.613101,5362.668486
155.432754,1406.391290,11177.109724,-8427.050478
155.433064,4885.359217,11843.295072,-8810.098227
155.433373,-2368.659014,8290.306550,1991.848295
155.433683,-4811.338623,7105.977043,6435.202183
155.433992,962.267725,13249.686362,3217.601092
155.434302,5847.626942,5107.421000,-9882.631924
155.434611,-2294.638420,7254.018232,-3677.258390
155.434921,-6143.709319,7179.997637,9652.803275
155.435230,-2960.823768,3849.070898,459.657299
155.435540,888.247130,7328.038826,-16854.100956
155.435850,-5329.482782,4145.153275,-7660.954980
155.436159,-2738.761985,9474.636058,2374.896044
155.436469,5107.421000,9696.697840,-7890.783629
155.436778,-4219.173869,1850.514855,-1838.629195
155.437088,-2960.823768,12435.459826,15168.690860
155.437397,-3108.864956,7031.956449,6588.421283
155.437707,2960.823768,7846.182985,-11184.994271
155.438016,2368.659014,18061.024985,-6511.811733
155.438326,3256.906145,16136.489536,-8350.440928
155.438636,4441.235652,13175.665768,-17620.196454
155.438945,-6883.915261,17468.860231,4826.401637
155.439255,222.061783,10140.821405,7277.907231
155.439564,4885.359217,5995.668130,-12793.794817
155.439874,1702.473667,4145.153275,-7814.174080
155.440183,-10288.862594,4737.318029,10495.508323
155.440493,3997.112087,6513.812290,-1915.238745
155.440802,9252.574275,6735.874072,-14938.862211
155.441112,3552.988522,6513.812290,2911.162892
155.441422,-4589.276840,9622.677246,10725.336972
155.441731,-222.061783,6439.791695,1455.581446
155.442041,6513.812290,14878.139434,-1378.971896
155.442350,-3701.029710,12139.377449,-2221.676944
155.442660,3182.885551,10658.965565,-5056.230287
155.442969,-4663.297435,13397.727550,229.828649
155.443279,-4959.379811,7550.100608,-2145.067394
155.443589,1184.329507,16284.530724,-10725.336972
155.443898,-1406.391290,10288.862594,-9193.145976
155.444208,518.144159,9474.636058,-536.266849
155.444517,-5551.544565,14063.912898,2681.334243
155.444827,-6217.729913,3330.926739,4366.744339
155.445136,11843.295072,6365.771101,-2911.162892
155.445446,1036.288319,1036.288319,-2374.896044
155.445755,-518.144159,3701.029710,11568.042020
155.446065,2442.679609,8216.285956,12257.527968
155.446375,1628.453072,4145.153275,536.266849
155.446684,4219.173869,10288.862594,-3447.429741
155.446994,-11177.109724,12435.459826,3907.087040
155.447303,-1184.329507,13545.768739,-7507.735880
155.447613,-0.000000,16136.489536,-20607.968896
155.447922,-3404.947333,16358.551318,-8580.269578
155.448232,2516.700203,15544.324782,1302.362347
155.448541,-3034.844362,15396.283594,-5592.497135
155.448851,-3034.844362,13249.686362,4596.572988
155.449161,6291.750507,6661.853478,5056.230287
155.449470,-0.000000,7031.956449,-2834.553343
155.449780,3108.864956,1998.556043,1225.752797
155.450089,2664.741391,4145.153275,3830.477490
155.450399,1480.411884,4515.256246,-2757.943793
155.450708,-3923.091493,7846.182985,-1762.019645
155.451018,-1480.411884,9622.677246,2911.162892
155.451328,2738.761985,2812.782580,-7354.516781
155.451637,1480.411884,10066.800811,-6052.154434
155.451947,-4811.338623,12213.398043,12104.308868
155.452256,-2664.741391,10584.944971,8350.440928
155.452566,1258.350101,14137.933492,-11031.775171
155.452875,-4959.379811,15396.283594,-10495.508323
155.453185,1110.308913,13545.768739,-6052.154434
155.453494,-1628.453072,18653.189738,-7201.297681
155.453804,-3552.988522,15026.180623,-153.219100
155.454114,4441.235652,12509.480420,9116.536426
155.454423,-1036.288319,4959.379811,689.485948
155.454733,-4811.338623,-1258.350101,76.609550
155.455042,-814.226536,7550.100608,1149.143247
155.455352,3404.947333,4219.173869,-12793.794817
155.455661,3627.009116,10066.800811,-13636.499864
155.455971,-3775.050304,10362.883188,8273.831378
155.456280,-6365.771101,7624.121203,10878.556072
155.456590,1258.350101,9030.512492,-7967.393179
155.456900,148.041188,8512.368333,-10035.851024
155.457209,-4811.338623,9918.759623,-4136.915689
155.457519,-148.041188,15322.262999,-6665.030833
155.457828,3849.070898,14434.015869,-3524.039291
155.458138,5699.585753,12657.521608,1378.971896
155.458447,-3552.988522,10807.006753,2145.067394
155.458757,-8956.491898,10288.862594,4136.915689
155.459067,2886.803174,9770.718434,-5745.716235
155.459376,4811.338623,4515.256246,-21297.454844
155.459686,-74.020594,9770.718434,-11031.775171
155.459995,-296.082377,9252.574275,6511.811733
155.460305,-0.000000,3034.844362,995.924147
155.460614,4515.256246,3182.885551,-459.657299
155.460924,-4441.235652,4589.276840,14402.595362
155.461233,-5551.544565,6439.791695,10955.165621
155.461543,9622.677246,12583.501014,-13023.623466
155.461853,6217.729913,15100.201217,-14709.033562
155.462162,296.082377,14211.954086,-2681.334243
155.462472,-7846.182985,12509.480420,2987.772442
155.462781,-1184.329507,11251.130318,-995.924147
155.463091,3775.050304,14952.160028,-7967.393179
155.463400,-0.000000,10140.821405,-9039.926876
155.463710,-7254.018232,11843.295072,3830.477490
155.464019,3034.844362,10658.965565,4443.353888
155.464329,12731.542202,1406.391290,-15092.081311
155.464639,-0.000000,4885.359217,-2221.676944
155.464948,-7994.224174,6661.853478,15781.567259
155.465258,-2886.803174,2590.720797,4673.182538
155.465567,7550.100608,9770.718434,-13789.718964
155.465877,-2442.679609,13989.892304,-6665.030833
155.466186,-1406.391290,10066.800811,3370.820191
155.466496,148.041188,11621.233289,-5515.887586
155.466806,-2590.720797,11547.212695,-6052.154434
155.467115,2960.823768,9400.615463,-1378.971896
155.467425,-1924.535449,8808.450710,-2757.943793
155.467734,-4367.215058,14137.933492,-1762.019645
155.468044,2960.823768,18431.127956,383.047749
155.468353,7772.162391,9252.574275,-8273.831378
155.468663,-5033.400406,6735.874072,-9193.145976
155.468972,-7476.080014,9770.718434,9499.584175
155.469282,3923.091493,4737.318029,-2068.457845
155.469592,6809.894666,6217.729913,-20837.797546
155.469901,-592.164754,8068.244768,153.219100
155.470211,-1924.535449,5773.606348,16777.491406
155.470520,2442.679609,5995.668130,2834.553343
155.470830,370.102971,4367.215058,-229.828649
155.471139,-1480.411884,7179.997637,6435.202183
155.471449,-3330.926739,11103.089130,-5362.668486
155.471758,888.247130,14063.912898,-14096.157163
155.472068,7105.977043,16210.510130,-12027.699319
155.472378,-7476.080014,14137.933492,-4673.182538
155.472687,-4441.235652,15766.386565,4596.572988
155.472997,-2368.659014,11769.274478,6511.811733
155.473306,3108.864956,5033.400406,-6818.249932
155.473616,-666.185348,12509.480420,-5745.716235
155.473925,-4367.215058,8068.244768,6741.640382
155.474235,2664.741391,3997.112087,-5975.544884
155.474545,6587.832884,8734.430116,-14709.033562
155.474854,-5921.647536,4441.235652,1915.238745
155.475164,-5625.565159,4441.235652,13023.623466
155.475473,888.247130,10881.027347,-1378.971896
155.475783,2886.803174,6587.832884,-10418.898773
155.476092,7031.956449,14137.933492,-2298.286494
155.476402,-3330.926739,9104.533087,-2374.896044
155.476711,-740.205942,9400.615463,-689.485948
155.477021,1406.391290,14952.160028,2604.724693
155.477331,-2590.720797,8734.430116,-2834.553343
155.477640,3108.864956,14656.077652,-6358.592633
155.477950,-2812.782580,16728.654289,-2681.334243
155.478259,740.205942,11029.068536,-9806.022374
155.478569,-2294.638420,14285.974681,-3294.210641
155.478878,-370.102971,10288.862594,4136.915689
155.479188,8734.430116,5625.565159,-7048.078582
155.479497,296.082377,6883.915261,-995.924147
155.479807,-6365.771101,10214.842000,14479.204912
155.480117,4515.256246,5625.565159,-2911.162892
155.480426,9696.697840,3478.967927,-13483.280765
155.480736,-1702.473667,7105.977043,2451.505594
155.481045,-8068.244768,5921.647536,11721.261119
155.481355,-1036.288319,2738.761985,-229.828649
155.481664,4885.359217,9918.759623,-11338.213370
155.481974,-1850.514855,15026.180623,-3447.429741
155.482284,-2368.659014,13101.645173,-306.438199
155.482593,-74.020594,17246.798449,-6281.983084
155.482903,-592.164754,17098.757260,-7354.516781
155.483212,4515.256246,10214.842000,-6818.249932
155.483522,-5625.565159,11991.336260,0.000000
155.483831,-3256.906145,7254.018232,7048.078582
155.484141,8142.265362,6735.874072,-2604.724693
155.484450,740.205942,5921.647536,-6894.859482
155.484760,-5403.503377,3404.947333,6435.202183
155.485070,2368.659014,3478.967927,4979.620737
155.485379,1110.308913,5699.585753,-9576.193725
155.485689,1480.411884,9992.780217,-7124.688131
155.485998,-1776.494261,14359.995275,2451.505594
155.486308,-1184.329507,7624.121203,-3753.867940
155.486617,1110.308913,14211.954086,-5592.497135
155.486927,-1406.391290,13323.706956,459.657299
155.487236,-2294.638420,6217.729913,689.485948
155.487546,2812.782580,11399.171507,-1225.752797
155.487856,-74.020594,7179.997637,3447.429741
155.488165,3775.050304,11621.233289,-842.705048
155.488475,-3034.844362,13693.809927,-3370.820191
155.488784,-4663.297435,11621.233289,-1991.848295
155.489094,3182.885551,13989.892304,-10418.898773
155.489403,2072.576638,10881.027347,-15934.786358
155.489713,-1184.329507,6587.832884,-4366.744339
155.490023,-962.267725,4663.297435,7584.345430
155.490332,1998.556043,-740.205942,8810.098227
155.490642,296.082377,3404.947333,9422.974625
155.490951,-4737.318029,4145.153275,9039.926876
155.491261,4071.132681,3701.029710,-4519.963438
155.491570,5625.565159,8586.388927,-11721.261119
155.491880,3775.050304,10658.965565,76.609550
155.492189,-4737.318029,18949.272115,3524.039291
155.492499,-6587.832884,18727.210333,-1532.190996
155.492809,-3552.988522,12213.398043,-6281.983084
155.493118,2664.741391,14359.995275,-10342.289223
155.493428,-1480.411884,15100.201217,-9039.926876
155.493737,-222.061783,13989.892304,-3370.820191
155.494047,5107.421000,12361.439231,2374.896044
155.494356,5329.482782,2146.597232,7354.516781
155.494666,-7328.038826,4293.194464,12257.527968
155.494975,-1850.514855,10436.903782,4903.011187
155.495285,9918.759623,6291.750507,-12487.356617
155.495595,5255.462188,8068.244768,-10878.556072
155.495904,-8586.388927,9770.718434,9346.365076
155.496214,296.082377,7179.997637,6052.154434
155.496523,8216.285956,7402.059420,-10801.946522
155.496833,-1406.391290,2664.741391,-1149.143247
155.497142,-11325.150913,10658.965565,13100.233016
155.497452,-2072.576638,9622.677246,4060.306139
155.497762,6661.853478,14804.118840,-14938.862211
155.498071,5625.565159,19763.498651,-10265.679673
155.498381,-5699.585753,13841.851115,-1838.629195
155.498690,-3404.947333,12657.521608,-2298.286494
155.499000,2072.576638,18801.230927,-3983.696590
155.499309,5181.441594,9326.594869,-6128.763984
155.499619,666.185348,7698.141797,-536.266849
155.499928,-666.185348,4663.297435,9652.803275
155.500238,3849.070898,2960.823768,7431.126331
155.500548,-74.020594,1924.535449,0.000000
155.500857,-2220.617826,1998.556043,1455.581446
155.501167,3478.967927,4441.235652,-1685.410096
155.501476,-518.144159,10140.821405,-7737.564530
155.501786,2368.659014,12953.603985,-2374.896044
155.502095,5329.482782,13471.748144,995.924147
155.502405,-4737.318029,11251.130318,3524.039291
155.502714,-444.123565,13471.748144,6205.373534
155.503024,-370.102971,10584.944971,4749.792088
155.503333,-3775.050304,13619.789333,-2604.724693
155.503643,4367.215058,18949.272115,-10189.070123
155.503952,1332.370696,15248.242405,-9576.193725
155.504261,1776.494261,11473.192101,-3524.039291
155.504571,-6439.791695,10807.006753,-612.876398
155.504880,-3256.906145,7624.121203,2528.115143
155.505190,-518.144159,2146.597232,-1838.629195
155.505499,3849.070898,3552.988522,-2145.067394
155.505809,-1036.288319,2886.803174,5439.278036
155.506118,4219.173869,4737.318029,4903.011187
155.506428,1702.473667,2812.782580,-306.438199
155.506737,1110.308913,4959.379811,306.438199
155.507046,-3034.844362,8586.388927,4290.134789
155.507356,-6809.894666,5181.441594,1455.581446
155.507665,4515.256246,15914.427753,-9806.022374
155.507975,1184.329507,19023.292709,-11031.775171
155.508284,-4145.153275,13397.727550,-3753.867940
155.508594,-4367.215058,13693.809927,3677.258390
155.508903,-2960.823768,13841.851115,-4826.401637
155.509212,4589.276840,13249.686362,-10189.070123
155.509522,2072.576638,12583.501014,-4443.353888
155.509831,-1480.411884,9622.677246,5669.106685
155.510141,1924.535449,8882.471304,8580.269578
155.510450,5625.565159,3627.009116,3907.087040
155.510760,-6365.771101,-74.020594,3524.039291
155.511069,1554.432478,5181.441594,3140.991542
155.511379,2368.659014,740.205942,-3830.477490
155.511688,5033.400406,10436.903782,-8580.269578
155.511997,2072.576638,16136.489536,0.000000
155.512307,-2368.659014,4515.256246,8350.440928
155.512616,2294.638420,16358.551318,4903.011187
155.512926,-4737.318029,12435.459826,-1838.629195
155.513235,-5921.647536,9104.533087,76.609550
155.513545,2368.659014,15396.283594,-9422.974625
155.513854,2516.700203,12657.521608,-17160.539155
155.514163,3849.070898,14063.912898,-5515.887586
155.514473,-7179.997637,15248.242405,7354.516781
155.514782,-4811.338623,6217.729913,6588.421283
155.515092,5107.421000,4515.256246,1991.848295
155.515401,1406.391290,222.061783,383.047749
155.515711,-3552.988522,4959.379811,4136.915689
155.516020,4441.235652,6143.709319,919.314598
155.516330,4441.235652,5107.421000,-4749.792088
155.516639,222.061783,6957.935855,-4213.525239
155.516948,-518.144159,7254.018232,4903.011187
155.517258,-6217.729913,11251.130318,6128.763984
155.517567,4737.318029,17320.819043,-4979.620737
155.517877,3034.844362,17987.004391,-9806.022374
155.518186,-1406.391290,18061.024985,-3140.991542
155.518496,1998.556043,13767.830521,-2834.553343
155.518805,888.247130,5107.421000,-2528.115143
155.519115,-296.082377,13841.851115,2451.505594
155.519424,-3775.050304,8734.430116,4749.792088
155.519733,1036.288319,6439.791695,-1149.143247
155.520043,3627.009116,12139.377449,-7967.393179
155.520352,-518.144159,6217.729913,-4596.572988
155.520662,-5181.441594,7179.997637,3217.601092
155.520971,2072.576638,2590.720797,4290.134789
155.521281,740.205942,2886.803174,-2451.505594
155.521590,148.041188,10066.800811,-1225.752797
155.521899,-2146.597232,5773.606348,3294.210641
155.522209,1110.308913,5995.668130,459.657299
155.522518,1776.494261,14582.057057,536.266849
155.522828,-370.102971,11029.068536,4519.963438
155.523137,-4145.153275,10214.842000,2451.505594
155.523447,-666.185348,11991.336260,-7737.564530
155.523756,-222.061783,12731.542202,-14249.376263
155.524066,6661.853478,14952.160028,-8427.050478
155.524375,-8290.306550,9844.739029,0.000000
155.524684,-5403.503377,11325.150913,3294.210641
155.524994,1184.329507,11547.212695,4826.401637
155.525303,-666.185348,5625.565159,-2221.676944
155.525613,5107.421000,5329.482782,-10801.946522
155.525922,4885.359217,3923.091493,-1838.629195
155.526232,3330.926739,3997.112087,4596.572988
155.526541,-1998.556043,5329.482782,5286.058936
155.526850,-740.205942,4663.297435,7584.345430
155.527160,-0.000000,8808.450710,306.438199
155.527469,-962.267725,9474.636058,-8350.440928
155.527779,518.144159,16580.613101,-6128.763984
155.528088,592.164754,15248.242405,-306.438199
155.528398,-4811.338623,15988.448347,-2681.334243
155.528707,-148.041188,21021.848753,-8503.660028
155.529017,-444.123565,15248.242405,-7048.078582
155.529326,-1702.473667,10140.821405,-3983.696590
155.529635,-1776.494261,9696.697840,1455.581446
155.529945,4219.173869,9474.636058,4749.792088
155.530254,814.226536,2294.638420,689.485948
155.530564,-666.185348,3108.864956,7814.174080
155.530873,-4219.173869,740.205942,11338.213370
155.531183,4071.132681,2664.741391,-4596.572988
155.531492,4293.194464,13175.665768,-10725.336972
155.531801,-1924.535449,5625.565159,4443.353888
155.532111,-3478.967927,10288.862594,8503.660028
155.532420,-3552.988522,9548.656652,459.657299
155.532730,-666.185348,13397.727550,-10035.851024
155.533039,1924.535449,16876.695478,-11338.213370
155.533349,-296.082377,11473.192101,-8273.831378
155.533658,-2664.741391,17172.777854,229.828649
155.533968,5403.503377,17394.839637,1915.238745
155.534277,5329.482782,9326.594869,-4443.353888
155.534586,-3997.112087,5847.626942,9806.022374
155.534896,-2220.617826,8290.306550,17313.758255
155.535205,2516.700203,5477.523971,-2068.457845
155.535515,6809.894666,8438.347739,-13636.499864
155.535824,-0.000000,7994.224174,-3983.696590
155.536134,-2886.803174,8290.306550,-5745.716235
155.536443,1998.556043,8364.327145,-9346.365076
155.536753,-2368.659014,6513.812290,-1685.410096
155.537062,1036.288319,8216.285956,7354.516781
155.537371,1110.308913,3997.112087,6894.859482
155.537681,-1998.556043,10955.047942,6741.640382
155.537990,3627.009116,12435.459826,3370.820191
155.538300,3182.885551,8808.450710,-6281.983084
155.538609,1110.308913,13545.768739,-10342.289223
155.538919,-3923.091493,12731.542202,-1685.410096
155.539228,-2368.659014,13027.624579,-2298.286494
155.539537,-1924.535449,11695.253884,-7967.393179
155.539847,-1924.535449,9918.759623,-4213.525239
155.540156,-444.123565,6957.935855,-2221.676944
155.540466,-2220.617826,5699.585753,76.609550
155.540775,-4737.318029,2368.659014,6128.763984
155.541085,7550.100608,3552.988522,-1991.848295
155.541394,4515.256246,1628.453072,-7201.297681
155.541704,-740.205942,10436.903782,6511.811733
155.542013,-740.205942,11621.233289,13483.280765
155.542322,-296.082377,9030.512492,459.657299
155.542632,-148.041188,13989.892304,-4979.620737
155.542941,-2442.679609,15840.407159,-4903.011187
155.543251,-740.205942,9844.739029,-15092.081311
155.543560,3404.947333,13471.748144,-15475.129060
155.543870,-370.102971,12731.542202,-842.705048
155.544179,-1850.514855,10807.006753,8733.488677
155.544488,-5773.606348,13027.624579,6971.469032
155.544798,-1702.473667,6883.915261,536.266849
155.545107,9918.759623,6587.832884,-9116.536426
155.545417,2072.576638,6513.812290,-11261.603821
155.545726,-6809.894666,5033.400406,4903.011187
155.546036,7550.100608,10658.965565,6052.154434
155.546345,1480.411884,2516.700203,-3064.381992
155.546655,-3997.112087,7846.182985,5898.935335
155.546964,-5477.523971,8882.471304,14249.376263
155.547273,-3849.070898,6513.812290,-4213.525239
155.547583,5033.400406,14359.995275,-14555.814462
155.547892,-1924.535449,13767.830521,-12334.137518
155.548202,-3404.947333,12435.459826,-12180.918418
155.548511,-4737.318029,14952.160028,-7507.735880
155.548821,-1924.535449,14137.933492,1072.533697
155.549130,3849.070898,10658.965565,-1149.143247
155.549440,3552.988522,7105.977043,2834.553343
155.549749,-2368.659014,4071.132681,15551.738609
155.550058,1554.432478,5477.523971,12257.527968
155.550368,2960.823768,444.123565,-2604.724693
155.550677,-3108.864956,7105.977043,-6281.983084
155.550987,444.123565,14285.974681,-7124.688131
155.551296,1554.432478,9400.615463,-14172.766713
155.551606,1924.535449,13767.830521,-8427.050478
155.551915,-5181.441594,12435.459826,7660.954980
155.552224,1850.514855,12583.501014,5209.449386
155.552534,740.205942,7402.059420,3370.820191
155.552843,-2294.638420,8660.409521,2451.505594
155.553153,2442.679609,11547.212695,-4136.915689
155.553462,3627.009116,12435.459826,-15092.081311
155.553772,-518.144159,12805.562797,-7814.174080
155.554081,-2516.700203,15840.407159,3677.258390
155.554391,-814.226536,14656.077652,153.219100
155.554700,-2220.617826,11251.130318,-842.705048
155.555009,3404.947333,7476.080014,-2451.505594
155.555319,1480.411884,-5403.503377,-6128.763984
155.555628,-2960.823768,1480.411884,1915.238745
155.555938,-5033.400406,9178.553681,6052.154434
155.556247,6291.750507,6883.915261,-5209.449386
155.556557,1480.411884,10436.903782,-5592.497135
155.556866,-962.267725,11325.150913,7660.954980
155.557175,-2220.617826,11843.295072,7660.954980
155.557485,-0.000000,12879.583391,-5209.449386
155.557794,-1258.350101,11843.295072,-7584.345430
155.558104,-148.041188,11695.253884,-3524.039291
155.558413,-2812.782580,12139.377449,-6894.859482
155.558723,-7179.997637,13915.871710,-5286.058936
155.559032,6291.750507,18505.148550,-4903.011187
155.559342,2516.700203,7328.038826,-6052.154434
155.559651,-4441.235652,10510.924376,4366.744339
155.559960,2442.679609,10658.965565,8273.831378
155.560270,4811.338623,-0.000000,-6281.983084
155.560579,-3775.050304,740.205942,229.828649
155.560889,-5773.606348,4219.173869,12947.013916
155.561198,3034.844362,7476.080014,-7737.564530
155.561508,8586.388927,10881.027347,-20301.530697
155.561817,1480.411884,12583.501014,-1225.752797
155.562127,-2294.638420,12731.542202,9116.536426
155.562436,222.061783,9844.739029,2757.943793
155.562745,-3701.029710,15026.180623,6741.640382
155.563055,-3256.906145,15470.304188,2757.943793
155.563364,2812.782580,9326.594869,-15551.738609
155.563674,-2146.597232,10881.027347,-17390.367805
155.563983,666.185348,13545.768739,-3524.039291
155.564293,1184.329507,10214.842000,-4826.401637
155.564602,-2442.679609,13545.768739,-536.266849
155.564911,-4959.379811,12953.603985,9576.193725
155.565221,1850.514855,2886.803174,2221.676944
155.565530,2590.720797,1628.453072,-7584.345430
155.565840,370.102971,1036.288319,1915.238745
155.566149,962.267725,5921.647536,7354.516781
155.566459,370.102971,5033.400406,459.657299
155.566768,-74.020594,9696.697840,-536.266849
155.567078,-444.123565,12805.562797,4903.011187
155.567387,-888.247130,8734.430116,-4903.011187
155.567696,-888.247130,16210.510130,-2681.334243
155.568006,-666.185348,17172.777854,842.705048
155.568315,-4737.318029,10658.965565,-306.438199
155.568625,-3849.070898,14656.077652,-4903.011187
155.568934,1628.453072,13175.665768,-9806.022374
155.569244,3701.029710,14137.933492,-14172.766713
155.569553,-5699.585753,11177.109724,536.266849
155.569862,-148.041188,9252.574275,10342.289223
155.570172,3330.926739,5773.606348,-76.609550
155.570481,2220.617826,3701.029710,-306.438199
155.570791,-4219.173869,2146.597232,8427.050478
155.571100,6143.709319,814.226536,-995.924147
155.571410,2368.659014,2220.617826,-8656.879127
155.571719,-2812.782580,4219.173869,2298.286494
155.572029,-1628.453072,10288.862594,6741.640382
155.572338,-370.102971,8660.409521,-6052.154434
155.572647,-370.102971,14137.933492,-2451.505594
155.572957,-5995.668130,15988.448347,1532.190996
155.573266,-2368.659014,11325.150913,-7814.174080
155.573576,-1110.308913,16654.633695,-8044.002729
155.573885,1184.329507,13619.789333,-7048.078582
155.574195,6217.729913,13249.686362,-11874.480219
155.574504,-3775.050304,10732.986159,2068.457845
155.574814,-3701.029710,8142.265362,13942.938064
155.575123,1258.350101,8586.388927,612.876398
155.575432,2960.823768,5625.565159,-9499.584175
155.575742,-1702.473667,4293.194464,995.924147
155.576051,3330.926739,2516.700203,-1762.019645
155.576361,3182.885551,1036.288319,-4903.011187
155.576670,-2664.741391,4589.276840,6971.469032
155.576980,-814.226536,8586.388927,7201.297681
155.577289,3478.967927,7031.956449,-6741.640382
155.577598,-1184.329507,14063.912898,-3753.867940
155.577908,3627.009116,16654.633695,-3677.258390
155.578217,518.144159,14508.036463,-12410.747068
155.578527,-814.226536,20503.704593,-766.095498
155.578836,-3849.070898,14508.036463,8963.317327
155.579146,3108.864956,13101.645173,-5592.497135
155.579455,1480.411884,5033.400406,-7354.516781
155.579765,-6957.935855,7254.018232,4826.401637
155.580074,1480.411884,6513.812290,-2528.115143
155.580383,5329.482782,6439.791695,-10878.556072
155.580693,148.041188,9030.512492,-2451.505594
155.581002,-3108.864956,4737.318029,8350.440928
155.581312,592.164754,3627.009116,1072.533697
155.581621,3997.112087,5699.585753,-3753.867940
155.581931,-296.082377,8512.368333,-153.219100
155.582240,-4589.276840,9548.656652,-766.095498
155.582549,-2146.597232,10955.047942,-4519.963438
155.582859,2664.741391,13397.727550,-8503.660028
155.583168,444.123565,12509.480420,-9116.536426
155.583478,-5255.462188,14952.160028,995.924147
155.583787,-1406.391290,12805.562797,5362.668486
155.584097,10584.944971,13619.789333,-8733.488677
155.584406,-1554.432478,6661.853478,-2451.505594
155.584716,-8882.471304,8734.430116,8350.440928
155.585025,3404.947333,7105.977043,-4366.744339
155.585334,7920.203579,4441.235652,-14325.985813
155.585644,-4293.194464,13101.645173,3677.258390
155.585953,-1776.494261,5847.626942,10495.508323
155.586263,-1184.329507,9252.574275,-1608.800546
155.586572,3775.050304,14656.077652,-5592.497135
155.586882,2812.782580,9400.615463,-1685.410096
155.587191,-296.082377,7624.121203,-3140.991542
155.587500,1110.308913,10584.944971,-1838.629195
155.587810,-2368.659014,10066.800811,1991.848295
155.588119,3256.906145,13397.727550,-1455.581446
155.588429,1924.535449,13027.624579,-2451.505594
155.588738,-1998.556043,9400.615463,1532.190996
155.589048,-1258.350101,9918.759623,2068.457845
155.589357,-592.164754,6587.832884,-3907.087040
155.589667,-222.061783,13175.665768,-4596.572988
155.589976,1332.370696,6217.729913,-2834.553343
155.590285,-2220.617826,4515.256246,-2987.772442
155.590595,-2590.720797,9400.615463,3217.601092
155.590904,5255.462188,8808.450710,0.000000
155.591214,1554.432478,10214.842000,-3370.820191
155.591523,-2368.659014,4367.215058,7584.345430
155.591833,666.185348,7402.059420,8580.269578
155.592142,-0.000000,7920.203579,-3140.991542
155.592452,2294.638420,8068.244768,-5286.058936
155.592761,-6365.771101,14804.118840,0.000000
155.593070,740.205942,12213.398043,-4979.620737
155.593380,518.144159,13323.706956,-4749.792088
155.593689,-5477.523971,16580.613101,-4673.182538
155.593999,2960.823768,15174.221811,-7431.126331
155.594308,3108.864956,8216.285956,-6052.154434
155.594618,-8734.430116,10584.944971,5515.887586
155.594927,2812.782580,8364.327145,3064.381992
155.595236,6439.791695,2664.741391,-9039.926876
155.595546,1998.556043,4885.359217,-5209.449386
155.595855,3256.906145,2146.597232,5898.935335
155.596165,-0.000000,4737.318029,5669.106685
155.596474,1110.308913,7179.997637,4903.011187
155.596784,2664.741391,9770.718434,7124.688131
155.597093,-2960.823768,10955.047942,3677.258390
155.597403,-4441.235652,9030.512492,-6281.983084
155.597712,-1628.453072,14137.933492,-10572.117872
155.598021,4293.194464,15470.304188,-15628.348159
155.598331,-4663.297435,16210.510130,-9039.926876
155.598640,-4441.235652,19097.313304,0.000000
155.598950,4293.194464,13471.748144,-3217.601092
155.599259,2146.597232,7624.121203,-689.485948
155.599569,-2368.659014,8290.306550,13176.842566
155.599878,5551.544565,1998.556043,10572.117872
155.600187,5625.565159,1258.350101,-383.047749
155.600497,-148.041188,5773.606348,3600.648841
155.600806,-222.061783,222.061783,4903.011187
155.601116,2368.659014,6365.771101,-8350.440928
155.601425,-1850.514855,8068.244768,-7584.345430
155.601735,-5625.565159,13841.851115,-612.876398
155.602044,-2442.679609,13989.892304,-1991.848295
155.602354,3775.050304,11843.295072,-7507.735880
155.602663,-3256.906145,14656.077652,-995.924147
155.602972,-888.247130,13323.706956,2911.162892
155.603282,444.123565,9622.677246,-536.266849
155.603591,2738.761985,14359.995275,-383.047749
155.603901,2294.638420,12657.521608,-842.705048
155.604210,1036.288319,11473.192101,-4903.011187
155.604520,-1406.391290,9474.636058,-842.705048
155.604829,-2812.782580,7031.956449,-766.095498
155.605139,2146.597232,5625.565159,-8427.050478
155.605448,666.185348,2442.679609,-8810.098227
155.605757,1332.370696,3997.112087,612.876398
155.606067,5699.585753,2220.617826,4060.306139
155.606376,-2294.638420,3034.844362,4903.011187
155.606686,1406.391290,9696.697840,9652.803275
155.606995,-3182.885551,5773.606348,6435.202183
155.607305,-370.102971,11695.253884,-1915.238745
155.607614,814.226536,17838.963202,-10342.289223
155.607923,4367.215058,14804.118840,-15398.519510
155.608233,-3775.050304,16802.674883,-8886.707777
155.608542,-6883.915261,19541.436869,5209.449386
155.608852,2368.659014,16358.551318,-1378.971896
155.609161,4737.318029,12509.480420,-10035.851024
155.609471,-2368.659014,2368.659014,6435.202183
155.609780,-4737.318029,1628.453072,10112.460574
155.610090,6957.935855,1406.391290,-4366.744339
155.610399,3182.885551,2886.803174,-995.924147
155.610708,-5181.441594,4071.132681,9499.584175
155.611018,740.205942,7031.956449,3140.991542
155.611327,3034.844362,7254.018232,-9346.365076
155.611637,1850.514855,11325.150913,-8427.050478
155.611946,-74.020594,11917.315666,1608.800546
155.612256,-2886.803174,9992.780217,6358.592633
155.612565,-5699.585753,14952.160028,2528.115143
155.612875,3849.070898,13397.727550,-3370.820191
155.613184,222.061783,12731.542202,-10265.679673
155.613493,-1924.535449,10955.047942,-6818.249932
155.613803,-888.247130,13175.665768,-3907.087040
155.614112,7328.038826,10436.903782,-3677.258390
155.614422,-3256.906145,5255.462188,5056.230287
155.614731,-6809.894666,9400.615463,14709.033562
155.615041,9474.636058,2442.679609,-995.924147
155.615350,7402.059420,2442.679609,-12334.137518
155.615660,1184.329507,3775.050304,4519.963438
155.615969,-4293.194464,7031.956449,12257.527968
155.616278,2220.617826,7698.141797,153.219100
155.616588,-3627.009116,14730.098246,-2911.162892
155.616897,-2590.720797,15026.180623,-3217.601092
155.617207,2368.659014,12583.501014,-11338.213370
155.617516,814.226536,13471.748144,-10342.289223
155.617826,-1998.556043,14359.995275,5669.106685
155.618135,-1998.556043,15840.407159,7584.345430
155.618445,-3034.844362,12065.356855,4979.620737
155.618754,-0.000000,12657.521608,2145.067394
155.619063,5995.668130,9030.512492,-9806.022374
155.619373,1850.514855,4441.235652,-15934.786358
155.619682,-6143.709319,4441.235652,3140.991542
155.619992,1628.453072,4811.338623,5056.230287
155.620301,3404.947333,2146.597232,-4366.744339
155.620611,-2220.617826,4589.276840,10112.460574
155.620920,-2886.803174,2516.700203,14096.157163
155.621229,1776.494261,4441.235652,-6894.859482
155.621539,4811.338623,8290.306550,-11414.822920
155.621848,-518.144159,12213.398043,76.609550
155.622158,-4589.276840,16654.633695,-2911.162892
155.622467,370.102971,17616.901420,-6741.640382
155.622777,-6217.729913,20059.581028,-536.266849
155.623086,1332.370696,17172.777854,-6741.640382
155.623396,1776.494261,6513.812290,-11031.775171
155.623705,-3108.864956,10066.800811,-2374.896044
155.624014,2886.803174,5699.585753,2528.115143
155.624324,4737.318029,-1036.288319,3140.991542
155.624633,-740.205942,6661.853478,10648.727422
155.624943,888.247130,7105.977043,12563.966167
155.625252,518.144159,4737.318029,-2374.896044
155.625562,1702.473667,4663.297435,-9882.631924
155.625871,-962.267725,6587.832884,-7354.516781
155.626181,-148.041188,8512.368333,-8350.440928
155.626490,-1036.288319,10436.903782,-5592.497135
155.626799,-3478.967927,14952.160028,6435.202183
155.627109,1850.514855,15840.407159,2834.553343
155.627418,3923.091493,9548.656652,-919.314598
155.627728,296.082377,11399.171507,7124.688131
155.628037,-2590.720797,10955.047942,3370.820191
155.628347,1036.288319,7254.018232,-6511.811733
155.628656,-1258.350101,15766.386565,-2911.162892
155.628966,-740.205942,13175.665768,-4903.011187
155.629275,3108.864956,10510.924376,-9959.241474
155.629584,-3701.029710,11769.274478,-3830.477490
155.629894,1924.535449,4737.318029,1149.143247
155.630203,-0.000000,4071.132681,3140.991542
155.630513,148.041188,6809.894666,3064.381992
155.630822,740.205942,5181.441594,4673.182538
155.631132,5551.544565,6439.791695,-2374.896044
155.631441,2368.659014,7550.100608,-3294.210641
155.631750,-3256.906145,8586.388927,3294.210641
155.632060,592.164754,14582.057057,-919.314598
155.632369,740.205942,9548.656652,-10189.070123
155.632679,370.102971,14285.974681,-3983.696590
155.632988,-740.205942,14508.036463,3753.867940
155.633298,-2812.782580,11103.089130,-3524.039291
155.633607,-1332.370696,16802.674883,-919.314598
155.633917,962.267725,9400.615463,-4366.744339
155.634226,4737.318029,9178.553681,-13636.499864
155.634535,-2072.576638,10807.006753,-3524.039291
155.634845,370.102971,5181.441594,3294.210641
155.635154,4885.359217,10436.903782,-766.095498
155.635464,592.164754,5847.626942,6052.154434
155.635773,-222.061783,5921.647536,12717.185267
155.636083,5995.668130,2812.782580,1302.362347
155.636392,-74.020594,3997.112087,-4519.963438
155.636702,-1332.370696,10288.862594,5439.278036
155.637011,74.020594,11325.150913,-459.657299
155.637320,-2368.659014,12805.562797,-10495.508323
155.637630,-5625.565159,21688.034101,-3907.087040
155.637939,-4737.318029,16136.489536,-3983.696590
155.638249,4293.194464,10658.965565,-11644.651570
155.638558,-2886.803174,9918.759623,-2451.505594
155.638868,-1480.411884,8956.491898,4673.182538
155.639177,7476.080014,6735.874072,-2068.457845
155.639487,-0.000000,4219.173869,2681.334243
155.639796,1998.556043,5773.606348,14402.595362
155.640105,5921.647536,5551.544565,3064.381992
155.640415,592.164754,5773.606348,-4903.011187
155.640724,-3404.947333,7254.018232,7048.078582
155.641034,-962.267725,7920.203579,-689.485948
155.641343,-2590.720797,8586.388927,-12257.527968
155.641653,-5921.647536,13101.645173,-5209.449386
155.641962,-1258.350101,9548.656652,-3217.601092
155.642272,-1258.350101,10362.883188,-9806.022374
155.642581,1776.494261,18949.272115,-3064.381992
155.642890,-1258.350101,9474.636058,7277.907231
155.643200,1924.535449,15618.345376,1455.581446
155.643509,-2368.659014,10510.924376,153.219100
155.643819,6439.791695,9622.677246,1915.238745
155.644128,4885.359217,4293.194464,-5592.497135
155.644438,-6365.771101,2516.700203,-3830.477490
155.644747,-5255.462188,7550.100608,5209.449386
155.645056,4515.256246,8438.347739,-6818.249932
155.645366,4515.256246,4589.276840,-10955.165621
155.645675,-6365.771101,10510.924376,8580.269578
155.645985,-3330.926739,4663.297435,9729.412825
155.646294,2368.659014,4737.318029,-2834.553343
155.646604,-2738.761985,12213.398043,306.438199
155.646913,-666.185348,12139.377449,383.047749
155.647223,2886.803174,13693.809927,-10725.336972
155.647532,5107.421000,16210.510130,-8886.707777
155.647841,-1702.473667,17542.880825,612.876398
155.648151,-0.000000,13915.871710,1302.362347
155.648460,-3701.029710,8438.347739,1838.629195
155.648770,-2442.679609,12139.377449,2757.943793
155.649079,6735.874072,1924.535449,-8963.317327
155.649389,666.185348,-2220.617826,-7201.297681
155.649698,-2664.741391,4663.297435,10801.946522
155.650008,-814.226536,5551.544565,4673.182538
155.650317,-1924.535449,6217.729913,-4136.915689
155.650626,-888.247130,12213.398043,6128.763984
155.650936,-888.247130,7105.977043,1149.143247
155.651245,1036.288319,9252.574275,-9193.145976
155.651555,1184.329507,14508.036463,-7737.564530
155.651864,-3627.009116,12287.418637,229.828649
155.652174,-1998.556043,14804.118840,1685.410096
155.652483,1480.411884,16580.613101,-306.438199
155.652793,2146.597232,13397.727550,-995.924147
155.653102,3034.844362,14804.118840,-6205.373534
155.653411,1332.370696,4959.379811,-6052.154434
155.653721,-740.205942,7179.997637,2757.943793
155.654030,-0.000000,3478.967927,2145.067394
155.654340,-2294.638420,3701.029710,-2528.115143
155.654649,-6957.935855,8734.430116,5132.839837
155.654959,5107.421000,9696.697840,-3983.696590
155.655268,6365.771101,5551.544565,-15015.471761
155.655577,2220.617826,8586.388927,-2834.553343
155.655887,-4515.256246,11103.089130,6741.640382
155.656196,3182.885551,13767.830521,2221.676944
155.656506,5329.482782,10214.842000,3217.601092
155.656815,-5181.441594,11473.192101,8120.612279
155.657125,-2294.638420,9326.594869,383.047749
155.657434,3108.864956,7624.121203,-12717.185267
155.657744,-4959.379811,13989.892304,-10725.336972
155.658053,370.102971,13767.830521,-5209.449386
155.658362,1554.432478,11473.192101,-12793.794817
155.658672,-6069.688724,17172.777854,536.266849
155.658981,444.123565,10584.944971,5592.497135
155.659291,6957.935855,-3701.029710,-3064.381992
155.659600,-2294.638420,-0.000000,5669.106685
155.659910,1406.391290,592.164754,9346.365076
155.660219,-296.082377,4071.132681,1225.752797
155.660529,-74.020594,6809.894666,1838.629195
155.660838,-1702.473667,15840.407159,-1762.019645
155.661147,3997.112087,18061.024985,-15704.957709
155.661457,4737.318029,13619.789333,-14402.595362
155.661766,-7402.059420,11917.315666,1762.019645
155.662076,-7105.977043,12953.603985,6052.154434
155.662385,7179.997637,11399.171507,-8503.660028
155.662695,-666.185348,8068.244768,-1072.533697
155.663004,-1036.288319,9622.677246,10572.117872
155.663314,1036.288319,4589.276840,-2451.505594
155.663623,-1110.308913,9474.636058,-6894.859482
155.663932,3034.844362,10807.006753,-2068.457845
155.664242,1480.411884,6883.915261,-9806.022374
155.664551,-3330.926739,12213.398043,-229.828649
155.664861,4515.256246,15544.324782,2221.676944
155.665170,740.205942,12361.439231,-5209.449386
155.665480,2664.741391,5403.503377,-1302.362347
155.665789,-1184.329507,2442.679609,2451.505594
155.666099,-0.000000,5107.421000,1072.533697
155.666408,-1628.453072,7698.141797,-306.438199
155.666717,-3034.844362,10732.986159,2221.676944
155.667027,518.144159,15470.304188,-1838.629195
155.667336,-1776.494261,14211.954086,-5209.449386
155.667646,-5033.400406,14211.954086,-3140.991542
155.667955,1776.494261,12879.583391,-7124.688131
155.668265,1702.473667,8068.244768,-10495.508323
155.668574,-4959.379811,9548.656652,4826.401637
155.668883,592.164754,12361.439231,4366.744339
155.669193,5921.647536,5033.400406,-6665.030833
155.669502,-74.020594,7105.977043,2604.724693
155.669812,-4737.318029,5773.606348,10112.460574
155.670121,1480.411884,6217.729913,-3370.820191
155.670431,3404.947333,4885.359217,-13713.109414
155.670740,-0.000000,6883.915261,-1915.238745
155.671050,4219.173869,13101.645173,2221.676944
155.671359,444.123565,8364.327145,-2145.067394
155.671668,-6735.874072,17912.983796,3064.381992
155.671978,2886.803174,13471.748144,4060.306139
155.672287,6217.729913,8216.285956,-8886.707777
155.672597,-1406.391290,14063.912898,-3140.991542
155.672906,-0.000000,14137.933492,1762.019645
155.673216,-3182.885551,15174.221811,-9269.755526
155.673525,-1850.514855,8808.450710,-2451.505594
155.673835,3330.926739,12139.377449,1149.143247
155.674144,5329.482782,4959.379811,-10342.289223
155.674453,-4219.173869,9622.677246,1991.848295
155.674763,-740.205942,11473.192101,12257.527968
155.675072,740.205942,5699.585753,-5975.544884
155.675382,8660.409521,9252.574275,-12257.527968
155.675691,-5033.400406,6069.688724,1378.971896
155.676001,-1258.350101,3701.029710,4519.963438
155.676310,4293.194464,4589.276840,-919.314598
155.676620,-4663.297435,9178.553681,1302.362347
155.676929,-2368.659014,9844.739029,2681.334243
155.677238,4367.215058,11843.295072,-5132.839837
155.677548,1554.432478,8660.409521,-8656.879127
155.677857,1628.453072,12953.603985,-2068.457845
155.678167,-10658.965565,15100.201217,306.438199
155.678476,-2812.782580,13767.830521,-4596.572988
155.678786,5699.585753,15914.427753,-9116.536426
155.679095,3034.844362,9474.636058,-10801.946522
155.679404,-4145.153275,11325.150913,0.000000
155.679714,2442.679609,6957.935855,4519.963438
155.680023,444.123565,1480.411884,-766.095498
155.680333,2220.617826,4219.173869,5209.449386
155.680642,-814.226536,4959.379811,10112.460574
155.680952,-148.041188,7920.203579,0.000000
155.681261,-1702.473667,8734.430116,153.219100
155.681571,444.123565,11325.150913,-3370.820191
155.681880,370.102971,10732.986159,-12563.966167
155.682189,-1406.391290,11325.150913,-12027.699319
155.682499,-10881.027347,11029.068536,3524.039291
155.682808,1110.308913,15914.427753,2221.676944
155.683118,4071.132681,14730.098246,-11721.261119
155.683427,1332.370696,6883.915261,1915.238745
155.683737,-3108.864956,9474.636058,12410.747068
155.684046,6291.750507,4663.297435,-7048.078582
155.684356,3256.906145,4515.256246,-6511.811733
155.684665,-6143.709319,6439.791695,9729.412825
155.684974,-1628.453072,9548.656652,4673.182538
155.685284,1036.288319,15248.242405,-14402.595362
155.685593,-1258.350101,9400.615463,-13176.842566
155.685903,-2960.823768,7254.018232,153.219100
155.686212,814.226536,4811.338623,-5515.887586
155.686522,666.185348,7402.059420,-5515.887586
155.686831,-1850.514855,8882.471304,6665.030833
155.687141,2294.638420,13989.892304,4290.134789
155.687450,2368.659014,12657.521608,-1149.143247
155.687759,2220.617826,14211.954086,2911.162892
155.688069,2960.823768,12435.459826,-1991.848295
155.688378,1776.494261,5255.462188,-8656.879127
155.688688,-7698.141797,16580.613101,-2451.505594
155.688997,-1110.308913,5625.565159,-7124.688131
155.689307,4515.256246,7031.956449,-12947.013916
155.689616,-6513.812290,9548.656652,153.219100
155.689926,-3552.988522,10288.862594,10265.679673
155.690235,6439.791695,5403.503377,-1149.143247
155.690544,1554.432478,1332.370696,612.876398
155.690854,2812.782580,4959.379811,8656.879127
155.691163,-5773.606348,3108.864956,8503.660028
155.691473,2812.782580,7328.038826,-1915.238745
155.691782,444.123565,17542.880825,-2911.162892
155.692092,5181.441594,16284.530724,-10189.070123
155.692401,-4293.194464,10584.944971,-8197.221829
155.692710,-8512.368333,18061.024985,3064.381992
155.693020,4367.215058,14211.954086,-4136.915689
155.693329,3997.112087,8142.265362,-10035.851024
155.693639,-5403.503377,12879.583391,7354.516781
155.693948,-1480.411884,7179.997637,8197.221829
155.694258,6291.750507,7994.224174,-10342.289223
155.694567,-3552.988522,6735.874072,-919.314598
155.694877,-740.205942,8216.285956,7354.516781
155.695186,5625.565159,10214.842000,-11031.775171
155.695495,2812.782580,3108.864956,-7048.078582
155.695805,-2146.597232,8660.409521,10801.946522
155.696114,1184.329507,6439.791695,5898.935335
155.696424,1702.473667,8956.491898,-4826.401637
155.696733,-3182.885551,10658.965565,9729.412825
155.697043,-444.123565,6883.915261,6128.763984
155.697352,4959.379811,11473.192101,-14172.766713
155.697662,-7105.977043,18801.230927,-6358.592633
155.697971,-1924.535449,16654.633695,-4979.620737
155.698280,4293.194464,10658.965565,-16164.615008
155.698590,-5625.565159,16062.468941,-383.047749
155.698899,-1776.494261,12805.562797,10725.336972
155.699209,2294.638420,8142.265362,-5898.935335
155.699518,5255.462188,-1036.288319,-2681.334243
155.699828,2146.597232,2738.761985,8733.488677
155.700137,2664.741391,3627.009116,2451.505594
155.700447,-2516.700203,5255.462188,-612.876398
155.700756,-592.164754,9844.739029,6128.763984
155.701065,5403.503377,9178.553681,-4903.011187
155.701375,6365.771101,4663.297435,-12717.185267
155.701684,-5625.565159,10288.862594,2221.676944
155.701994,-2664.741391,9030.512492,4979.620737
155.702303,888.247130,13249.686362,-6894.859482
155.702613,-5921.647536,16432.571912,4749.792088
155.702922,-444.123565,18949.272115,229.828649
155.703231,5773.606348,16432.571912,-12793.794817
155.703541,1480.411884,10362.883188,-5975.544884
155.703850,-3701.029710,9178.553681,6128.763984
155.704160,222.061783,8438.347739,-4366.744339
155.704469,-2072.576638,5995.668130,229.828649
155.704779,-1776.494261,4515.256246,9652.803275
155.705088,3775.050304,2886.803174,-2145.067394
155.705398,4441.235652,222.061783,-8580.269578
155.705707,-1554.432478,5403.503377,4290.134789
155.706016,-2220.617826,2294.638420,4979.620737
155.706326,222.061783,9474.636058,-3753.867940
155.706638,-5773.606348,15100.201217,1685.410096
155.706947,814.226536,12361.439231,-3447.429741
155.707257,6365.771101,13323.706956,-13253.452115
155.707566,-1332.370696,9918.759623,-4903.011187
155.707876,296.082377,13175.665768,3370.820191
155.708185,2442.679609,14878.139434,0.000000
155.708495,-2812.782580,13545.768739,5362.668486
155.708805,2220.617826,12953.603985,6818.249932
155.709114,3849.070898,13249.686362,-9269.755526
155.709424,1036.288319,6661.853478,-10342.289223
155.709733,-4367.215058,6069.688724,4290.134789
155.710043,1406.391290,5995.668130,-4136.915689
155.710352,3552.988522,3404.947333,-5975.544884
155.710662,-7476.080014,11991.336260,10035.851024
155.710972,814.226536,10140.821405,6818.249932
155.711281,10955.047942,8364.327145,-16164.615008
155.711591,2590.720797,2220.617826,-1072.533697
155.711900,-2886.803174,9400.615463,14096.157163
155.712210,-4219.173869,9474.636058,3753.867940
155.712519,-1998.556043,13471.748144,-1991.848295
155.712829,592.164754,20947.828159,-2221.676944
155.713138,4589.276840,16950.716072,-16241.224558
155.713448,-2516.700203,7698.141797,-14709.033562
155.713758,-6587.832884,13915.871710,1838.629195
155.714067,518.144159,9326.594869,-3830.477490
155.714377,2886.803174,8808.450710,-3447.429741
155.714686,-6291.750507,9696.697840,11568.042020
155.714996,2368.659014,5181.441594,9039.926876
155.715305,12139.377449,6291.750507,-9806.022374
155.715615,2368.659014,-814.226536,-6052.154434
155.715925,-5181.441594,4515.256246,10878.556072
155.716234,1628.453072,7105.977043,919.314598
155.716544,4293.194464,3404.947333,-5592.497135
155.716853,-814.226536,12361.439231,4519.963438
155.717163,-8956.491898,16358.551318,5975.544884
155.717472,-1850.514855,12213.398043,-9959.241474
155.717782,3923.091493,15988.448347,-13636.499864
155.718091,-666.185348,8586.388927,-13483.280765
155.718401,-5625.565159,14211.954086,-9499.584175
155.718711,-4589.276840,20133.601622,4903.011187
155.719020,4293.194464,15766.386565,766.095498
155.719330,10066.800811,7994.224174,-229.828649
155.719639,-2590.720797,6217.729913,7737.564530
155.719949,-2738.761985,1628.453072,6281.983084
155.720258,4959.379811,-1480.411884,-4979.620737
155.720568,3108.864956,-148.041188,-4673.182538
155.720878,-3330.926739,11917.315666,3600.648841
155.721187,-592.164754,17690.922014,153.219100
155.721497,-1332.370696,10066.800811,-6205.373534
155.721806,3330.926739,18135.045579,-2681.334243
155.722116,1036.288319,4885.359217,-6435.202183
155.722425,-3701.029710,2146.597232,-5132.839837
155.722735,-4219.173869,9696.697840,7124.688131
155.723044,2960.823768,10658.965565,-153.219100
155.723354,4367.215058,11917.315666,-3677.258390
155.723664,-3701.029710,21984.116477,7737.564530
155.723973,-222.061783,13249.686362,-766.095498
155.724283,4959.379811,8512.368333,-13713.109414
155.724592,-5773.606348,3478.967927,-1225.752797
155.724902,-3552.988522,9104.533087,229.828649
155.725211,5033.400406,12065.356855,-14096.157163
155.725521,3849.070898,6217.729913,-919.314598
155.725831,-2442.679609,7994.224174,15168.690860
155.726140,740.205942,4145.153275,12563.966167
155.726450,-296.082377,2886.803174,306.438199
155.726759,518.144159,10140.821405,0.000000
155.727069,962.267725,4441.235652,-5592.497135
155.727378,-1110.308913,9252.574275,-9882.631924
155.727688,-3108.864956,23168.445985,-1225.752797
155.727997,3701.029710,15248.242405,-4826.401637
155.728307,-2442.679609,11251.130318,-3447.429741
155.728617,-2294.638420,11843.295072,7737.564530
155.728926,-0.000000,8882.471304,2987.772442
155.729236,1924.535449,7402.059420,-8963.317327
155.729545,-2738.761985,2738.761985,-766.095498
155.729855,-962.267725,9622.677246,3677.258390
155.730164,1258.350101,9548.656652,-7124.688131
155.730474,6143.709319,8068.244768,-3677.258390
155.730784,962.267725,8438.347739,8120.612279
155.731093,-0.000000,4737.318029,10495.508323
155.731403,2442.679609,6957.935855,1532.190996
155.731712,-1776.494261,10807.006753,-2451.505594
155.732022,296.082377,7698.141797,-3064.381992
155.732331,814.226536,10362.883188,-5209.449386
155.732641,-5255.462188,13101.645173,-6971.469032
155.732950,740.205942,18357.107362,-4366.744339
155.733260,1776.494261,14063.912898,-5132.839837
155.733570,-3997.112087,6735.874072,2068.457845
155.733879,814.226536,11843.295072,3907.087040
155.734189,3552.988522,13471.748144,-5975.544884
155.734498,2590.720797,7920.203579,-4213.525239
155.734808,-4515.256246,4737.318029,6741.640382
155.735117,1628.453072,8882.471304,1608.800546
155.735427,-740.205942,7920.203579,-6665.030833
155.735737,-370.102971,13175.665768,383.047749
155.736046,3330.926739,1924.535449,-612.876398
155.736356,-444.123565,9030.512492,-8273.831378
155.736665,-2368.659014,8734.430116,2911.162892
155.736975,-4367.215058,8512.368333,0.000000
155.737284,3997.112087,7698.141797,-6128.763984
155.737594,3256.906145,7031.956449,1762.019645
155.737903,296.082377,10510.924376,6971.469032
155.738213,-2590.720797,17246.798449,1149.143247
155.738523,-4663.297435,14137.933492,-3064.381992
155.738832,666.185348,11843.295072,-3524.039291
155.739142,5033.400406,13027.624579,-15858.176809
155.739451,-2220.617826,10584.944971,-13330.061665
155.739761,-3849.070898,12361.439231,4826.401637
155.740070,5699.585753,6365.771101,3830.477490
155.740380,5625.565159,6439.791695,-4673.182538
155.740690,-518.144159,7031.956449,9116.536426
155.740999,-4071.132681,3552.988522,17237.148705
155.741309,3849.070898,7772.162391,-1378.971896
155.741618,1554.432478,6883.915261,-9269.755526
155.741928,4293.194464,12953.603985,-8810.098227
155.742237,-3404.947333,12287.418637,-10342.289223
155.742547,-3923.091493,9548.656652,-153.219100
155.742856,-0.000000,15766.386565,2374.896044
155.743166,3627.009116,11991.336260,-6205.373534
155.743476,1258.350101,11769.274478,1685.410096
155.743785,-5181.441594,4737.318029,11184.994271
155.744095,814.226536,6069.688724,842.705048
155.744404,1628.453072,8882.471304,-6511.811733
155.744714,-2072.576638,16358.551318,-689.485948
155.745023,592.164754,11621.233289,-3447.429741
155.745333,1702.473667,8586.388927,-7814.174080
155.745643,-2886.803174,9770.718434,-153.219100
155.745952,-444.123565,6291.750507,0.000000
155.746262,814.226536,8956.491898,-306.438199
155.746571,-3849.070898,5921.647536,6741.640382
155.746881,1628.453072,9548.656652,2374.896044
155.747190,5699.585753,8290.306550,-8044.002729
155.747500,-2220.617826,8290.306550,-1378.971896
155.747809,-2738.761985,8142.265362,4749.792088
155.748119,2590.720797,8956.491898,-4366.744339
155.748429,5255.462188,8882.471304,-7354.516781
155.748738,-2664.741391,11399.171507,6665.030833
155.749048,2960.823768,8364.327145,2834.553343
155.749357,-814.226536,7550.100608,-3983.696590
155.749667,-6069.688724,11103.089130,3983.696590
155.749976,2220.617826,13767.830521,-5362.668486
155.750286,3330.926739,11843.295072,-17850.025103
155.750596,2220.617826,8956.491898,-1991.848295
155.750905,-5255.462188,14656.077652,8810.098227
155.751215,1480.411884,13619.789333,-229.828649
155.751524,1776.494261,5625.565159,459.657299
155.751834,-1110.308913,5699.585753,8656.879127
155.752143,-74.020594,3478.967927,-919.314598
155.752453,1554.432478,7476.080014,-4136.915689
155.752763,-1036.288319,14211.954086,2681.334243
155.753072,2072.576638,5107.421000,-5822.325785
155.753382,-1258.350101,12287.418637,-4749.792088
155.753691,-5181.441594,18061.024985,4213.525239
155.754001,4515.256246,9622.677246,-5362.668486
155.754310,1184.329507,6439.791695,-5362.668486
155.754620,-3997.112087,3182.885551,3370.820191
155.754929,-3256.906145,7994.224174,-766.095498
155.755239,6513.812290,12879.583391,-10648.727422
155.755549,-2072.576638,8438.347739,-459.657299
155.755858,666.185348,10362.883188,7048.078582
155.756168,1480.411884,15100.201217,-153.219100
155.756477,2812.782580,11399.171507,-2681.334243
155.756787,-4145.153275,11103.089130,6435.202183
155.757096,2516.700203,4811.338623,-1685.410096
155.757406,-1258.350101,3849.070898,-8656.879127
155.757716,-7031.956449,10658.965565,-536.266849
155.758025,1554.432478,10288.862594,-6665.030833
155.758335,-1110.308913,10362.883188,-7737.564530
155.758644,-4071.132681,14359.995275,4596.572988
155.758954,2812.782580,14359.995275,2451.505594
155.759263,7031.956449,10807.006753,-10265.679673
155.759573,-2738.761985,4885.359217,3677.258390
155.759882,-518.144159,5921.647536,11874.480219
155.760192,4219.173869,6661.853478,-6128.763984
155.760502,3923.091493,7179.997637,-7584.345430
155.760811,-7698.141797,10584.944971,9269.755526
155.761121,1628.453072,8364.327145,-612.876398
155.761430,-0.000000,13841.851115,-15858.176809
155.761740,-7402.059420,14137.933492,-536.266849
155.762049,1554.432478,7698.141797,-689.485948
155.762359,3330.926739,8290.306550,-10955.165621
155.762669,-4959.379811,9252.574275,1149.143247
155.762978,-3775.050304,8438.347739,4596.572988
155.763288,4737.318029,9918.759623,-6665.030833
155.763597,4367.215058,5551.544565,2068.457845
155.763907,-1554.432478,7476.080014,9193.145976
155.764216,5107.421000,13619.789333,-3447.429741
155.764526,888.247130,4663.297435,-4060.306139
155.764835,-4737.318029,10436.903782,10648.727422
155.765145,-1998.556043,9622.677246,-2451.505594
155.765455,518.144159,6661.853478,-16777.491406
155.765764,-1258.350101,13693.809927,-6052.154434
155.766074,2442.679609,9400.615463,-3830.477490
155.766383,4293.194464,7624.121203,-7048.078582
155.766693,-10288.862594,12361.439231,13789.718964
155.767002,444.123565,11029.068536,10112.460574
155.767312,8734.430116,6143.709319,-8427.050478
155.767622,2368.659014,2960.823768,766.095498
155.767931,-4293.194464,5551.544565,10265.679673
155.768241,-3182.885551,11621.233289,-3064.381992
155.768550,814.226536,11621.233289,-7124.688131
155.768860,1110.308913,16358.551318,-4366.744339
155.769169,-444.123565,16876.695478,-11414.822920
155.769479,-2812.782580,11473.192101,-9269.755526
155.769788,-4367.215058,9178.553681,2681.334243
155.770098,6587.832884,1702.473667,0.000000
155.770408,-222.061783,1480.411884,1685.410096
155.770717,-4071.132681,12731.542202,14096.157163
155.771027,-2886.803174,5329.482782,6511.811733
155.771336,8956.491898,7402.059420,-10495.508323
155.771646,6291.750507,8882.471304,-7354.516781
155.771955,-7624.121203,12213.398043,995.924147
155.772265,-2886.803174,16432.571912,1991.848295
155.772575,-4441.235652,10436.903782,1685.410096
155.772884,6291.750507,11991.336260,-6971.469032
155.773194,2442.679609,8290.306550,-11031.775171
155.773503,-10510.924376,4515.256246,1302.362347
155.773813,-5625.565159,8956.491898,5056.230287
155.774122,9918.759623,3404.947333,-8503.660028
155.774432,5921.647536,11029.068536,-7048.078582
155.774741,-8956.491898,13915.871710,15551.738609
155.775051,-2738.761985,11251.130318,12180.918418
155.775361,2442.679609,9178.553681,-7584.345430
155.775670,4663.297435,5625.565159,-6741.640382
155.775980,-4885.359217,9178.553681,-5286.058936
155.776289,-3256.906145,9400.615463,-10801.946522
155.776599,-2664.741391,9992.780217,-3677.258390
155.776908,6143.709319,13619.789333,-1532.190996
155.777218,444.123565,8586.388927,-5515.887586
155.777528,-3404.947333,9400.615463,7354.516781
155.777837,-3849.070898,3552.988522,12717.185267
155.778147,7105.977043,2368.659014,-842.705048
155.778456,-1998.556043,7550.100608,-2374.896044
155.778766,-5403.503377,11917.315666,612.876398
155.779075,4589.276840,10658.965565,-11108.384721
155.779385,2738.761985,9918.759623,-13713.109414
155.779694,-6291.750507,14804.118840,2528.115143
155.780004,-3034.844362,13175.665768,2604.724693
155.780314,4515.256246,10732.986159,-4749.792088
155.780623,222.061783,6291.750507,3677.258390
155.780933,-4589.276840,4515.256246,7967.393179
155.781242,-3108.864956,7550.100608,-1915.238745
155.781552,222.061783,7994.224174,-9652.803275
155.781861,1332.370696,12509.480420,-4903.011187
155.782171,-0.000000,12509.480420,-8044.002729
155.782481,1480.411884,14137.933492,-4673.182538
155.782790,3552.988522,18283.086767,2911.162892
155.783100,2072.576638,4811.338623,1838.629195
155.783409,-0.000000,3775.050304,4060.306139
155.783719,-4515.256246,5329.482782,7660.954980
155.784028,3256.906145,4663.297435,-4443.353888
155.784338,2072.576638,6069.688724,-11644.651570
155.784647,-3997.112087,15248.242405,-4749.792088
155.784957,-0.000000,15766.386565,-5592.497135
155.785267,1850.514855,14582.057057,-8963.317327
155.785576,-296.082377,11547.212695,-1302.362347
155.785886,-3404.947333,6587.832884,8044.002729
155.786195,4811.338623,8808.450710,2681.334243
155.786505,1406.391290,5033.400406,-1149.143247
155.786814,-3627.009116,6069.688724,1838.629195
155.787124,814.226536,2738.761985,76.609550
155.787434,1184.329507,11399.171507,-6511.811733
155.787743,-7476.080014,21021.848753,-3217.601092
155.788053,2516.700203,17024.736666,-6358.592633
155.788362,-814.226536,6735.874072,-12257.527968
155.788672,370.102971,9474.636058,689.485948
155.788981,296.082377,7402.059420,2604.724693
155.789291,2516.700203,7328.038826,-2221.676944
155.789600,2886.803174,4737.318029,6741.640382
155.789910,-74.020594,6735.874072,10955.165621
155.790220,1406.391290,10362.883188,-2834.553343
155.790529,518.144159,9326.594869,-4366.744339
155.790839,-4071.132681,11399.171507,2451.505594
155.791148,1184.329507,9548.656652,-9652.803275
155.791458,-1850.514855,10584.944971,-8963.317327
155.791767,-8438.347739,13175.665768,1225.752797
155.792077,2442.679609,10881.027347,-3217.601092
155.792387,6217.729913,11103.089130,-9422.974625
155.792696,-4663.297435,10881.027347,2911.162892
155.793006,-4589.276840,9474.636058,7431.126331
155.793315,2146.597232,10584.944971,-4903.011187
155.793625,3330.926739,5181.441594,-2987.772442
155.793934,148.041188,9104.533087,4519.963438
155.794244,-370.102971,8882.471304,-2374.896044
155.794553,2072.576638,8142.265362,-2221.676944
155.794863,-0.000000,7846.182985,1149.143247
155.795173,1924.535449,6217.729913,-4060.306139
155.795482,592.164754,12361.439231,-3983.696590
155.795792,-2442.679609,8068.244768,4903.011187
155.796101,1776.494261,9474.636058,-995.924147
155.796411,3108.864956,5995.668130,-5745.716235
155.796720,-2960.823768,12287.418637,3217.601092
155.797030,-5255.462188,10732.986159,3983.696590
155.797340,2590.720797,10732.986159,-5286.058936
155.797649,444.123565,8068.244768,-4826.401637
155.797959,-296.082377,9252.574275,-2757.943793
155.798268,-4219.173869,15618.345376,-5975.544884
155.798578,-1850.514855,15026.180623,-2374.896044
155.798887,962.267725,11991.336260,-536.266849
155.799197,5995.668130,7772.162391,-5822.325785
155.799506,-2368.659014,5107.421000,689.485948
155.799816,-2812.782580,5107.421000,7814.174080
155.800126,5625.565159,1628.453072,-536.266849
155.800435,3997.112087,3404.947333,-4903.011187
155.800745,-518.144159,6439.791695,5362.668486
155.801054,-2368.659014,6143.709319,4903.011187
155.801364,3330.926739,12065.356855,-6665.030833
155.801673,-888.247130,8068.244768,-2298.286494
155.801983,-2738.761985,18283.086767,-1455.581446
155.802293,-2590.720797,16654.633695,-6435.202183
155.802602,-1554.432478,14582.057057,-6358.592633
155.802912,-666.185348,12065.356855,-3064.381992
155.803221,4441.235652,13471.748144,-10189.070123
155.803531,-1184.329507,8808.450710,-1915.238745
155.803840,-5699.585753,7476.080014,10725.336972
155.804150,6143.709319,5551.544565,1302.362347
155.804459,5255.462188,4737.318029,-2221.676944
155.804769,-7624.121203,9030.512492,8044.002729
155.805079,-296.082377,9548.656652,-3217.601092
155.805388,7476.080014,5921.647536,-17466.977354
155.805698,3404.947333,4737.318029,-4826.401637
155.806007,-6217.729913,9400.615463,7201.297681
155.806317,-148.041188,7105.977043,842.705048
155.806626,6957.935855,6957.935855,3217.601092
155.806936,-5181.441594,9178.553681,14402.595362
155.807245,-888.247130,12583.501014,0.000000
155.807555,6587.832884,11177.109724,-8963.317327
155.807864,-1998.556043,10140.821405,-5898.935335
155.808174,-6217.729913,9622.677246,1072.533697
155.808483,-4737.318029,16136.489536,-766.095498
155.808793,1628.453072,19911.539840,-5439.278036
155.809102,1924.535449,12805.562797,-8120.612279
155.809412,-222.061783,5107.421000,-3983.696590
155.809721,-8364.327145,5181.441594,5669.106685
155.810031,5403.503377,6069.688724,2068.457845
155.810340,2664.741391,2886.803174,-2681.334243
155.810650,3182.885551,3997.112087,5592.497135
155.810959,-4145.153275,7476.080014,12870.404366
155.811268,444.123565,12435.459826,-1072.533697
155.811578,4515.256246,6883.915261,-9806.022374
155.811887,888.247130,10510.924376,-3064.381992
155.812197,-3701.029710,14285.974681,-2911.162892
155.812506,-4071.132681,15248.242405,-4366.744339
155.812816,-370.102971,22354.219448,-4136.915689
155.813125,4885.359217,8586.388927,-8886.707777
155.813435,-1776.494261,7402.059420,-1991.848295
155.813744,-6513.812290,5477.523971,8886.707777
155.814054,-888.247130,5773.606348,-459.657299
155.814363,7846.182985,9326.594869,-4903.011187
155.814673,4515.256246,7402.059420,995.924147
155.814982,-4663.297435,9252.574275,4136.915689
155.815292,1480.411884,9844.739029,-2374.896044
155.815601,1702.473667,4885.359217,-7507.735880
155.815911,3478.967927,2220.617826,-2834.553343
155.816220,-4219.173869,4737.318029,383.047749
155.816530,296.082377,11251.130318,1685.410096
155.816839,-1628.453072,11621.233289,4290.134789
155.817149,1258.350101,11251.130318,229.828649
155.817458,-3404.947333,13545.768739,-2681.334243
155.817768,-1036.288319,16580.613101,-4826.401637
155.818077,814.226536,13767.830521,-11644.651570
155.818387,1702.473667,12657.521608,-5056.230287
155.818696,-148.041188,18431.127956,1378.971896
155.819006,-2590.720797,13693.809927,-3753.867940
155.819315,2368.659014,14137.933492,-5056.230287
155.819625,2146.597232,518.144159,1991.848295
155.819934,2442.679609,-1110.308913,3830.477490
155.820244,-2146.597232,1776.494261,2757.943793
155.820553,1628.453072,5847.626942,1302.362347
155.820863,666.185348,5847.626942,1149.143247
155.821172,1998.556043,6883.915261,153.219100
155.821482,1110.308913,7179.997637,-2528.115143
155.821791,-814.226536,16950.716072,-5515.887586
155.822101,2146.597232,10288.862594,-7660.954980
155.822410,-2664.741391,10658.965565,-766.095498
155.822720,-3478.967927,15026.180623,4903.011187
155.823029,3182.885551,15840.407159,-7890.783629
155.823339,962.267725,13767.830521,-4596.572988
155.823648,-2590.720797,7698.141797,6511.811733
155.823958,1628.453072,5847.626942,-3064.381992
155.824267,-2368.659014,8956.491898,-4673.182538
155.824577,-3552.988522,9252.574275,2834.553343
155.824886,-2960.823768,10214.842000,2221.676944
155.825196,5551.544565,11843.295072,-11261.603821
155.825505,2220.617826,7846.182985,-10265.679673
155.825815,-3923.091493,8438.347739,919.314598
155.826124,5181.441594,1406.391290,3524.039291
155.826434,6143.709319,5329.482782,995.924147
155.826743,3627.009116,6735.874072,7967.393179
155.827052,-2590.720797,7476.080014,12947.013916
155.827362,-0.000000,8956.491898,6741.640382
155.827671,-1406.391290,10140.821405,-6128.763984
155.827981,5477.523971,13249.686362,-16854.100956
155.828290,-7476.080014,19689.478057,-9116.536426
155.828600,-6883.915261,14952.160028,-1149.143247
155.828909,1406.391290,16432.571912,-5822.325785
155.829219,6513.812290,16062.468941,-11874.480219
155.829528,-5181.441594,6291.750507,6971.469032
155.829838,-9474.636058,5033.400406,15704.957709
155.830147,5995.668130,-444.123565,-536.266849
155.830457,10510.924376,4959.379811,-10112.460574
155.830766,-6069.688724,8142.265362,3907.087040
155.831076,-1554.432478,7624.121203,6818.249932
155.831385,5551.544565,13693.809927,-6052.154434
155.831695,2220.617826,7179.997637,-4826.401637
155.832004,2072.576638,5033.400406,919.314598
155.832314,-4219.173869,6513.812290,3294.210641
155.832623,-1702.473667,8290.306550,8503.660028
155.832933,-0.000000,9178.553681,1072.533697
155.833242,518.144159,13397.727550,-5975.544884
155.833552,-3478.967927,13175.665768,-1225.752797
155.833861,-3478.967927,17838.963202,306.438199
155.834171,3849.070898,16062.468941,-11184.994271
155.834480,-888.247130,11621.233289,-11108.384721
155.834790,-6217.729913,13471.748144,3524.039291
155.835099,2442.679609,5403.503377,2221.676944
155.835409,4441.235652,3997.112087,-6205.373534
155.835718,-3256.906145,6661.853478,6665.030833
155.836028,-148.041188,5921.647536,10265.679673
155.836337,3923.091493,5773.606348,-4673.182538
155.836647,4441.235652,5033.400406,-6281.983084
155.836956,-2368.659014,10362.883188,2374.896044
155.837266,-2220.617826,11325.150913,-536.266849
155.837575,1924.535449,11177.109724,-5669.106685
155.837885,-0.000000,8586.388927,-3064.381992
155.838194,592.164754,8586.388927,-5745.716235
155.838504,-0.000000,6587.832884,-1225.752797
155.838813,-2368.659014,10955.047942,7507.735880
155.839123,2368.659014,11843.295072,2528.115143
155.839432,1628.453072,13323.706956,-4290.134789
155.839742,-6365.771101,11843.295072,0.000000
155.840051,-74.020594,12509.480420,-4749.792088
155.840361,-962.267725,8660.409521,-14938.862211
155.840670,-2072.576638,7624.121203,-4826.401637
155.840980,-4293.194464,7994.224174,1225.752797
155.841289,1480.411884,13027.624579,-3600.648841
155.841599,7031.956449,5625.565159,-766.095498
155.841908,370.102971,3108.864956,9422.974625
155.842218,-1628.453072,3997.112087,9499.584175
155.842527,3701.029710,4219.173869,-536.266849
155.842836,-740.205942,5329.482782,-1225.752797
155.843146,814.226536,9400.615463,-4060.306139
155.843455,-2294.638420,10584.944971,-4596.572988
155.843765,-962.267725,19171.333898,-3447.429741
155.844074,4367.215058,14656.077652,-7354.516781
155.844384,370.102971,13027.624579,-5132.839837
155.844693,-7994.224174,10584.944971,4596.572988
155.845003,1480.411884,11621.233289,1685.410096
155.845312,3034.844362,6513.812290,-8120.612279
155.845622,3997.112087,7031.956449,229.828649
155.845931,-5699.585753,7254.018232,10342.289223
155.846241,-2886.803174,8586.388927,4903.011187
155.846550,2960.823768,11621.233289,-7124.688131
155.846860,1110.308913,13101.645173,-6588.421283
155.847169,1702.473667,10362.883188,-6894.859482
155.847479,1776.494261,8882.471304,-4826.401637
155.847788,-2886.803174,8882.471304,-689.485948
155.848098,4145.153275,4737.318029,842.705048
155.848407,1184.329507,7698.141797,6665.030833
155.848717,-1776.494261,8512.368333,10189.070123
155.849026,-3404.947333,7031.956449,1532.190996
155.849336,7254.018232,12139.377449,-11491.432470
155.849645,2960.823768,6957.935855,-10265.679673
155.849955,-4071.132681,10214.842000,-3294.210641
155.850264,-3923.091493,9844.739029,1838.629195
155.850574,4737.318029,10955.047942,2145.067394
155.850883,1036.288319,12361.439231,3983.696590
155.851193,-2960.823768,8956.491898,5286.058936
155.851502,1480.411884,11695.253884,-4596.572988
155.851812,-740.205942,10436.903782,-11951.089769
155.852121,-1480.411884,9474.636058,-7354.516781
155.852431,-3034.844362,13249.686362,-3677.258390
155.852740,-1184.329507,19837.519246,-7507.735880
155.853050,2368.659014,15100.201217,-10495.508323
155.853359,-888.247130,10732.986159,-5439.278036
155.853669,3849.070898,2368.659014,-2451.505594
155.853978,1998.556043,-2220.617826,1149.143247
155.854288,2072.576638,3108.864956,2221.676944
155.854597,-5107.421000,6735.874072,4903.011187
155.854907,-2738.761985,9918.759623,-1991.848295
155.855216,3701.029710,12879.583391,-15245.300410
155.855526,4589.276840,11103.089130,-23442.522239
155.855835,-0.000000,11769.274478,-17390.367805
155.856145,-2886.803174,8512.368333,-7277.907231
155.856454,-2220.617826,7254.018232,-3217.601092
155.856764,592.164754,4811.338623,-3677.258390
155.857073,2442.679609,10584.944971,-3753.867940
155.857383,5551.544565,10362.883188,-3830.477490
155.857692,1480.411884,8068.244768,-5669.106685
155.858001,-814.226536,5847.626942,-11184.994271
155.858311,2368.659014,11769.274478,-13100.233016
155.858620,-814.226536,12213.398043,-13330.061665
155.858930,-8068.244768,12435.459826,-6358.592633
155.859239,-1924.535449,12583.501014,-9346.365076
155.859549,4811.338623,9770.718434,-19765.263848
155.859858,592.164754,5033.400406,-16164.615008
155.860168,-3404.947333,2516.700203,-5132.839837
155.860477,4145.153275,6291.750507,-6511.811733
155.860787,7031.956449,8364.327145,-8963.317327
155.861096,-0.000000,9178.553681,-2068.457845
155.861406,-6513.812290,10732.986159,1302.362347
155.861715,222.061783,9548.656652,-10572.117872
155.862025,1406.391290,12213.398043,-20531.359346
155.862334,-1332.370696,8512.368333,-20837.797546
155.862644,-4663.297435,12879.583391,-12410.747068
155.862953,-1184.329507,16136.489536,-11874.480219
155.863263,2590.720797,17320.819043,-14632.424012
155.863572,-74.020594,10955.047942,-9422.974625
155.863882,-6661.853478,7624.121203,0.000000
155.864191,-2072.576638,3330.926739,-4903.011187
155.864501,2590.720797,2812.782580,-17313.758255
155.864810,-0.000000,5921.647536,-18692.730151
155.865120,-4515.256246,7698.141797,-9959.241474
155.865429,1480.411884,13915.871710,-14709.033562
155.865739,4145.153275,10732.986159,-16547.662757
155.866048,5921.647536,7476.080014,-11721.261119
155.866358,-7105.977043,5329.482782,-229.828649
155.866667,-1702.473667,5625.565159,-1532.190996
155.866977,4737.318029,4737.318029,-14249.376263
155.867286,4959.379811,7920.203579,-19765.263848
155.867596,-3775.050304,9030.512492,-12257.527968
155.867905,-2886.803174,12361.439231,-7354.516781
155.868215,666.185348,16284.530724,-14938.862211
155.868524,6365.771101,13323.706956,-17620.196454
155.868834,1554.432478,11251.130318,-7507.735880
155.869143,-4959.379811,6957.935855,995.924147
155.869453,-1258.350101,7402.059420,-2528.115143
155.869762,2738.761985,7550.100608,-14555.814462
155.870072,-0.000000,9622.677246,-16930.710506
155.870381,-2220.617826,11177.109724,-9729.412825
155.870691,-4589.276840,11769.274478,-10265.679673
155.871000,-444.123565,14878.139434,-15398.519510
155.871310,3552.988522,9992.780217,-17237.148705
155.871619,592.164754,7402.059420,-10801.946522
155.871929,148.041188,3552.988522,-1532.190996
155.872238,518.144159,2072.576638,995.924147
155.872548,-1036.288319,4145.153275,-1072.533697
155.872857,2368.659014,7846.182985,-6128.763984
155.873167,-3552.988522,13619.789333,-11491.432470
155.873476,-1776.494261,15988.448347,-14402.595362
155.873785,-1110.308913,16802.674883,-16394.443657
155.874095,-962.267725,17024.736666,-15704.957709
155.874404,-4071.132681,15470.304188,-13789.718964
155.874714,-4441.235652,7550.100608,-9269.755526
155.875023,-444.123565,4145.153275,-9652.803275
155.875333,6809.894666,4737.318029,-8886.707777
155.875642,1924.535449,2294.638420,-229.828649
155.875952,-1184.329507,9326.594869,2757.943793
155.876261,-1036.288319,8142.265362,-2987.772442
155.876571,296.082377,12879.583391,-12793.794817
155.876880,-1184.329507,13767.830521,-20531.359346
155.877190,370.102971,14878.139434,-22829.645840
155.877499,-2368.659014,12361.439231,-18692.730151
155.877809,-74.020594,9770.718434,-12870.404366
155.878118,1406.391290,6439.791695,-8044.002729
155.878428,3182.885551,7994.224174,-1762.019645
155.878737,-0.000000,9252.574275,2374.896044
155.879047,2516.700203,10436.903782,-5439.278036
155.879356,6439.791695,10288.862594,-13330.061665
155.879666,3552.988522,7402.059420,-14249.376263
155.879975,-5773.606348,10140.821405,-10955.165621
155.880285,-2960.823768,11769.274478,-11338.213370
155.880594,-518.144159,10732.986159,-15858.176809
155.880904,-2590.720797,11695.253884,-14785.643111
155.881213,-5329.482782,10066.800811,-11644.651570
155.881523,1776.494261,9696.697840,-13483.280765
155.881832,2738.761985,8068.244768,-15704.957709
155.882142,-888.247130,7031.956449,-8350.440928
155.882451,-1702.473667,8956.491898,-2068.457845
155.882761,3849.070898,8438.347739,-8656.879127
155.883070,2220.617826,7179.997637,-10801.946522
155.883380,-1184.329507,5995.668130,-6741.640382
155.883689,-2220.617826,6291.750507,-8810.098227
155.883999,-296.082377,10807.006753,-16930.710506
155.884308,592.164754,13175.665768,-17850.025103
155.884618,740.205942,14211.954086,-15475.129060
155.884927,-2220.617826,12657.521608,-7507.735880
155.885237,-1184.329507,11917.315666,-4290.134789
155.885546,222.061783,7550.100608,-9806.022374
155.885856,1110.308913,5995.668130,-11874.480219
155.886165,-2812.782580,5033.400406,-9346.365076
155.886475,-3627.009116,8290.306550,-8427.050478
155.886784,-74.020594,15248.242405,-11184.994271
155.887094,2590.720797,15840.407159,-17007.320056
155.887403,-74.020594,14730.098246,-14096.157163
155.887713,-1036.288319,11473.192101,-10495.508323
155.888022,2146.597232,6217.729913,-10112.460574
155.888332,1924.535449,3404.947333,-10342.289223
155.888641,962.267725,-518.144159,-6205.373534
155.888951,-666.185348,222.061783,-2145.067394
155.889260,-592.164754,3404.947333,-5132.839837
155.889569,-148.041188,7920.203579,-11874.480219
155.889879,-0.000000,13693.809927,-14325.985813
155.890188,-1850.514855,15470.304188,-14479.204912
155.890498,-888.247130,16802.674883,-13866.328514
155.890807,-0.000000,15026.180623,-15015.471761
155.891117,888.247130,11251.130318,-14632.424012
155.891426,-1406.391290,6957.935855,-7124.688131
155.891736,-2294.638420,7698.141797,-4060.306139
155.892045,-888.247130,7920.203579,-7277.907231
155.892355,1850.514855,6883.915261,-12640.575717
155.892664,592.164754,10214.842000,-14632.424012
155.892974,-592.164754,9326.594869,-13636.499864
155.893283,-222.061783,11103.089130,-11338.213370
155.893593,1480.411884,9844.739029,-11338.213370
155.893902,1776.494261,6587.832884,-10801.946522
155.894212,222.061783,4441.235652,-4519.963438
155.894521,-0.000000,2516.700203,-2374.896044
155.894831,2072.576638,4737.318029,-7354.516781
155.895140,2294.638420,8734.430116,-10112.460574
155.895450,-0.000000,10066.800811,-4443.353888
155.895759,-1332.370696,14804.118840,-9269.755526
155.896069,-148.041188,16062.468941,-13559.890315
155.896378,-74.020594,14878.139434,-14172.766713
155.896688,-1480.411884,11621.233289,-11108.384721
155.896997,-3552.988522,8660.409521,-9269.755526
155.897307,592.164754,9030.512492,-8656.879127
155.897616,-888.247130,9474.636058,-6818.249932
155.897926,814.226536,9474.636058,-5898.935335
155.898235,296.082377,9474.636058,-6511.811733
155.898545,-74.020594,7476.080014,-9346.365076
155.898854,1406.391290,7328.038826,-8733.488677
155.899164,1110.308913,5995.668130,-7584.345430
155.899473,-148.041188,6883.915261,-4596.572988
155.899783,-1776.494261,8734.430116,-5669.106685
155.900092,1332.370696,7624.121203,-5515.887586
155.900402,2368.659014,9030.512492,-8197.221829
155.900711,-0.000000,10658.965565,-5822.325785
155.901021,-2664.741391,11325.150913,-3907.087040
155.901330,-1554.432478,11473.192101,-5975.544884
155.901640,-3256.906145,12435.459826,-10495.508323
155.901949,-3701.029710,10288.862594,-10572.117872
155.902259,-4589.276840,10214.842000,-11108.384721
155.902568,-3552.988522,10881.027347,-13559.890315
155.902878,-2368.659014,12509.480420,-11951.089769
155.903187,-1406.391290,13323.706956,-11261.603821
155.903497,-296.082377,13175.665768,-11184.994271
155.903806,-222.061783,13397.727550,-9576.193725
155.904116,-1110.308913,14063.912898,-9039.926876
155.904425,-740.205942,12287.418637,-12180.918418
155.904735,-370.102971,11325.150913,-15168.690860
155.905044,-444.123565,9992.780217,-17390.367805
155.905354,1998.556043,8660.409521,-15934.786358
155.905663,1776.494261,8068.244768,-16164.615008
155.905973,3034.844362,7105.977043,-10342.289223
155.906282,3552.988522,6365.771101,-5209.449386
155.906592,2664.741391,4959.379811,-2604.724693
155.906901,8438.347739,5477.523971,-4443.353888
155.907211,-6809.894666,4293.194464,-4443.353888
155.907520,-1924.535449,8808.450710,-13253.452115
155.907830,-5033.400406,10436.903782,-24668.275036
155.908139,-148.041188,13915.871710,-29724.505322
155.908449,-296.082377,17690.922014,-23442.522239
155.908758,-3108.864956,16062.468941,-15551.738609
155.909068,5551.544565,14878.139434,-15628.348159
155.909377,1406.391290,6365.771101,-7277.907231
155.909687,666.185348,5625.565159,-1608.800546
155.909996,18801.230927,-9770.718434,-7890.783629
155.910306,-41451.532752,-8364.327145,-842.705048
155.910615,16654.633695,18357.107362,306.438199
155.910925,14952.160028,15988.448347,-25894.027832
155.911234,16580.613101,17172.777854,-33784.811462
155.911544,-21762.054695,1702.473667,-4596.572988
155.911854,-16950.716072,10066.800811,-4519.963438
155.912163,8734.430116,16654.633695,-25357.760984
155.912473,1406.391290,10658.965565,-21220.845295
155.912782,-3997.112087,9474.636058,-9652.803275
155.913092,-5477.523971,2072.576638,-8350.440928
155.913401,-4885.359217,10140.821405,-11108.384721
155.913711,3034.844362,14582.057057,-10801.946522
155.914020,4145.153275,11251.130318,-15398.519510
155.914330,-0.000000,10807.006753,-4903.011187
155.914639,-8142.265362,8956.491898,6511.811733
155.914949,1406.391290,8956.491898,-14402.595362
155.915258,814.226536,1998.556043,-29418.067123
155.915568,1850.514855,10658.965565,-18922.558801
155.915877,-7105.977043,5255.462188,-7737.564530
155.916187,962.267725,9992.780217,-12180.918418
155.916496,5921.647536,11917.315666,-11338.213370
155.916806,7179.997637,7179.997637,-8427.050478
155.917115,-2812.782580,3923.091493,5822.325785
155.917425,-3108.864956,5329.482782,5669.106685
155.917734,3849.070898,8068.244768,-9806.022374
155.918044,7105.977043,12435.459826,-24438.446386
155.918353,-3108.864956,14285.974681,-20684.578446
155.918663,-2368.659014,17172.777854,-9729.412825
155.918973,3849.070898,18875.251521,-13636.499864
155.919282,1332.370696,17616.901420,-12563.966167
155.919592,-2886.803174,11843.295072,-1991.848295
155.919901,-4737.318029,9400.615463,-1608.800546
155.920211,4515.256246,7105.977043,-12257.527968
155.920520,-296.082377,4737.318029,-16394.443657
155.920830,2442.679609,7698.141797,-13866.328514
155.921139,74.020594,7328.038826,-5439.278036
155.921449,-1110.308913,13693.809927,-919.314598
155.921758,-74.020594,12731.542202,-306.438199
155.922068,1110.308913,12139.377449,-5592.497135
155.922377,1332.370696,8808.450710,-9806.022374
155.922687,-5329.482782,4515.256246,-10495.508323
155.922996,-5551.544565,4367.215058,-12257.527968
155.923306,-2368.659014,7846.182985,-13100.233016
155.923615,-1184.329507,14582.057057,-10189.070123
155.923925,-4219.173869,15322.262999,-7660.954980
155.924234,-74.020594,13101.645173,-9576.193725
155.924544,2146.597232,9474.636058,-7967.393179
155.924853,-1628.453072,6365.771101,-2757.943793
155.925163,-740.205942,5551.544565,-5132.839837
155.925472,-3478.967927,5625.565159,-9576.193725
155.925782,1332.370696,15396.283594,-10725.336972
155.926092,4367.215058,12213.398043,-16317.834107
155.926401,1924.535449,14952.160028,-15704.957709
155.926711,-2072.576638,16506.592507,-8963.317327
155.927020,-1036.288319,8956.491898,-12027.699319
155.927330,-814.226536,7328.038826,-13713.109414
155.927639,4737.318029,7254.018232,-10495.508323
155.927949,-2220.617826,3701.029710,-7354.516781
155.928258,-2960.823768,8216.285956,-2451.505594
155.928568,814.226536,9252.574275,-8350.440928
155.928877,1702.473667,14730.098246,-19535.435199
155.929187,3404.947333,11029.068536,-21527.283494
155.929496,-4959.379811,10807.006753,-13100.233016
155.929806,-2368.659014,17764.942608,-11797.870669
155.930115,2738.761985,9844.739029,-16854.100956
155.930425,2072.576638,9622.677246,-16854.100956
155.930734,814.226536,3775.050304,-9959.241474
155.931044,-3701.029710,2442.679609,-1838.629195
155.931353,444.123565,8882.471304,-4903.011187
155.931663,6513.812290,11103.089130,-15015.471761
155.931972,6291.750507,11843.295072,-18386.291952
155.932282,-5699.585753,9474.636058,-10572.117872
155.932592,-3552.988522,10510.924376,-9422.974625
155.932901,-3330.926739,8290.306550,-17696.806004
155.933211,5255.462188,12953.603985,-21297.454844
155.933520,-3775.050304,4219.173869,-11721.261119
155.933830,-1406.391290,6883.915261,-1149.143247
155.934139,-3552.988522,9844.739029,-4060.306139
155.934449,7698.141797,10436.903782,-11338.213370
155.934758,-4515.256246,10955.047942,-12563.966167
155.935068,-1924.535449,10584.944971,-11721.261119
155.935377,-2886.803174,12361.439231,-11721.261119
155.935687,3034.844362,14211.954086,-21833.721693
155.935996,2886.803174,12435.459826,-21833.721693
155.936306,1332.370696,4959.379811,-9039.926876
155.936615,-6661.853478,11399.171507,1685.410096
155.936925,4145.153275,4811.338623,-1608.800546
155.937234,6661.853478,6957.935855,-12640.575717
155.937544,4293.194464,3849.070898,-12487.356617
155.937853,-0.000000,6957.935855,-4903.011187
155.938163,-1258.350101,4367.215058,-4903.011187
155.938472,1184.329507,8660.409521,-7737.564530
155.938782,-592.164754,12287.418637,-7277.907231
155.939091,2146.597232,10807.006753,-11031.775171
155.939401,-3256.906145,7402.059420,-12257.527968
155.939711,-3404.947333,4219.173869,-10035.851024
155.940020,6143.709319,9178.553681,-9269.755526
155.940330,7031.956449,8068.244768,-6971.469032
155.940639,-3627.009116,11029.068536,2604.724693
155.940949,-5033.400406,9548.656652,6281.983084
155.941258,5847.626942,10584.944971,-5209.449386
155.941568,3775.050304,9030.512492,-14019.547613
155.941877,-5033.400406,13989.892304,-10189.070123
155.942187,-1258.350101,10362.883188,-7354.516781
155.942496,4515.256246,11917.315666,-13483.280765
155.942806,5477.523971,9992.780217,-7737.564530
155.943115,-814.226536,10807.006753,5286.058936
155.943425,-2516.700203,7105.977043,9806.022374
155.943734,2886.803174,7031.956449,4903.011187
155.944044,-2072.576638,5107.421000,4673.182538
155.944353,-0.000000,7624.121203,-3217.601092
155.944663,-1850.514855,8882.471304,-8963.317327
155.944972,-3404.947333,15914.427753,-8963.317327
155.945282,-5329.482782,14952.160028,-4826.401637
155.945591,-1184.329507,19985.560434,-4443.353888
155.945901,1258.350101,18949.272115,-4519.963438
155.946210,-2960.823768,11547.212695,-2451.505594
155.946520,4071.132681,7328.038826,-689.485948
155.946830,-1110.308913,2590.720797,-3064.381992
155.947139,296.082377,6143.709319,3140.991542
155.947449,-148.041188,7105.977043,3830.477490
155.947758,3923.091493,11399.171507,-3677.258390
155.948068,370.102971,9030.512492,-3983.696590
155.948377,814.226536,9178.553681,-2834.553343
155.948687,3923.091493,8956.491898,-7660.954980
155.948996,1554.432478,7920.203579,-5975.544884
155.949306,-1184.329507,7550.100608,5439.278036
155.949615,-5329.482782,9252.574275,6511.811733
155.949925,1332.370696,11325.150913,-1838.629195
155.950234,-1998.556043,11843.295072,-4826.401637
155.950544,3330.926739,9474.636058,-8197.221829
155.950853,1184.329507,8808.450710,-6588.421283
155.951163,-4367.215058,14804.118840,689.485948
155.951472,1554.432478,13915.871710,-766.095498
155.951782,1258.350101,12287.418637,-6511.811733
155.952091,814.226536,12065.356855,-3370.820191
155.952401,1480.411884,6735.874072,383.047749
155.952710,-0.000000,12435.459826,-5209.449386
155.953020,3849.070898,9030.512492,-6511.811733
155.953329,2516.700203,8660.409521,-766.095498
155.953639,-222.061783,11473.192101,689.485948
155.953949,3923.091493,6143.709319,5286.058936
155.954258,-3478.967927,9474.636058,5515.887586
155.954568,-74.020594,7402.059420,459.657299
155.954877,3330.926739,5255.462188,-9806.022374
155.955187,-2516.700203,9104.533087,-4443.353888
155.955496,-2886.803174,14359.995275,-689.485948
155.955806,-3256.906145,16506.592507,-6818.249932
155.956115,-814.226536,12953.603985,-6358.592633
155.956425,3256.906145,12731.542202,-689.485948
155.956734,-962.267725,7254.018232,-4290.134789
155.957044,-2442.679609,6439.791695,1762.019645
155.957353,-2072.576638,7105.977043,4136.915689
155.957663,296.082377,5255.462188,-5822.325785
155.957972,2368.659014,7624.121203,-6665.030833
155.958282,296.082377,12953.603985,-9882.631924
155.958591,5033.400406,10436.903782,-9269.755526
155.958901,3923.091493,7920.203579,-3907.087040
155.959210,740.205942,7105.977043,8886.707777
155.959520,-1776.494261,7105.977043,8963.317327
155.959829,-3182.885551,4515.256246,1685.410096
155.960139,2368.659014,1628.453072,-2604.724693
155.960448,5329.482782,5995.668130,-12257.527968
155.960758,-296.082377,11843.295072,-12180.918418
155.961068,-6217.729913,13841.851115,766.095498
155.961377,2960.823768,13841.851115,5209.449386
155.961687,1776.494261,14285.974681,-1225.752797
155.961996,-888.247130,11769.274478,3217.601092
155.962306,-740.205942,9770.718434,0.000000
155.962615,4145.153275,1628.453072,-9422.974625
155.962925,-1184.329507,4737.318029,-2451.505594
155.963234,-5995.668130,12435.459826,6971.469032
155.963544,2442.679609,19393.395680,-4749.792088
155.963853,3627.009116,14285.974681,-9499.584175
155.964163,4219.173869,14952.160028,1149.143247
155.964472,3849.070898,5477.523971,1838.629195
155.964782,-2368.659014,4367.215058,459.657299
155.965091,-3404.947333,6217.729913,7354.516781
155.965401,3256.906145,1554.432478,689.485948
155.965710,5699.585753,8808.450710,-5439.278036
155.966020,-5329.482782,8734.430116,8427.050478
155.966329,-6291.750507,15174.221811,9576.193725
155.966639,1554.432478,12287.418637,-8886.707777
155.966948,2442.679609,9252.574275,-8197.221829
155.967258,-7846.182985,12879.583391,1991.848295
155.967567,-1850.514855,7698.141797,-4519.963438
155.967877,1332.370696,8438.347739,-4443.353888
155.968187,-1480.411884,12583.501014,7277.907231
155.968496,2738.761985,9400.615463,3217.601092
155.968806,-296.082377,11251.130318,1915.238745
155.969115,-4663.297435,9548.656652,7354.516781
155.969425,3923.091493,6883.915261,459.657299
155.969734,2886.803174,10066.800811,-6052.154434
155.970044,-3478.967927,5255.462188,919.314598
155.970353,-2590.720797,6957.935855,3983.696590
155.970663,-0.000000,7698.141797,-2528.115143
155.970972,1036.288319,9770.718434,229.828649
155.971282,-3923.091493,11843.295072,3600.648841
155.971591,1850.514855,9252.574275,-5132.839837
155.971901,1628.453072,6883.915261,-6281.983084
155.972210,-3404.947333,8660.409521,4673.182538
155.972520,-3256.906145,10288.862594,766.095498
155.972829,-3182.885551,11695.253884,-2681.334243
155.973139,1998.556043,13693.809927,-1991.848295
155.973448,3997.112087,7105.977043,-6358.592633
155.973758,2812.782580,11251.130318,-8733.488677
155.974067,148.041188,9400.615463,2145.067394
155.974377,-1110.308913,7772.162391,7354.516781
155.974686,-2516.700203,10658.965565,2374.896044
155.974996,1850.514855,9770.718434,-3524.039291
155.975306,518.144159,9252.574275,-8963.317327
155.975615,296.082377,6291.750507,-11338.213370
155.975925,1628.453072,6809.894666,-7890.783629
155.976234,-740.205942,10807.006753,-842.705048
155.976544,2146.597232,10362.883188,1762.019645
155.976853,1850.514855,13027.624579,2451.505594
155.977163,666.185348,8364.327145,5745.716235
155.977472,2368.659014,4737.318029,306.438199
155.977782,1702.473667,7772.162391,-6894.859482
155.978091,-1998.556043,6513.812290,-1608.800546
155.978401,-5995.668130,12065.356855,919.314598
155.978710,-0.000000,17616.901420,-5745.716235
155.979020,1702.473667,15840.407159,-9576.193725
155.979329,148.041188,12879.583391,-6052.154434
155.979639,-296.082377,10362.883188,-306.438199
155.979948,-1702.473667,6365.771101,2528.115143
155.980258,-1406.391290,12065.356855,1762.019645
155.980567,1258.350101,4885.359217,536.266849
155.980877,-2146.597232,7254.018232,1838.629195
155.981186,-0.000000,11843.295072,-1532.190996
155.981496,3552.988522,9326.594869,-9116.536426
155.981805,2368.659014,9474.636058,-5286.058936
155.982115,-2516.700203,7920.203579,4136.915689
155.982425,-1850.514855,3701.029710,2681.334243
155.982734,-3034.844362,10881.027347,1455.581446
155.983044,-666.185348,5329.482782,0.000000
155.983353,-74.020594,6809.894666,-5439.278036
155.983663,-1332.370696,9326.594869,-4213.525239
155.983972,-814.226536,13175.665768,0.000000
155.984282,-2590.720797,12287.418637,-2757.943793
155.984591,-962.267725,12805.562797,-153.219100
155.984901,-0.000000,12731.542202,1455.581446
155.985210,-1480.411884,8438.347739,-842.705048
155.985520,2886.803174,4811.338623,-3524.039291
155.985829,444.123565,5995.668130,1608.800546
155.986139,1702.473667,12213.398043,2145.067394
155.986448,2886.803174,7698.141797,-1991.848295
155.986758,-814.226536,12583.501014,-4290.134789
155.987067,666.185348,13323.706956,1915.238745
155.987377,2072.576638,7254.018232,-4749.792088
155.987686,2812.782580,8216.285956,-4596.572988
155.987996,-4293.194464,7328.038826,919.314598
155.988305,-6513.812290,8512.368333,2374.896044
155.988615,-296.082377,8734.430116,383.047749
155.988924,5255.462188,11769.274478,-3524.039291
155.989234,592.164754,13545.768739,-3294.210641
155.989544,-1258.350101,10955.047942,1685.410096
155.989853,-1332.370696,10140.821405,3677.258390
155.990163,2812.782580,8956.491898,-919.314598
155.990472,444.123565,8660.409521,-2451.505594
155.990782,-3775.050304,8660.409521,3140.991542
155.991091,1776.494261,9030.512492,-1685.410096
155.991401,3775.050304,6069.688724,-9652.803275
155.991710,-222.061783,8216.285956,-1225.752797
155.992020,-2886.803174,10436.903782,8427.050478
155.992329,-1036.288319,5921.647536,3907.087040
155.992639,-0.000000,10362.883188,3983.696590
155.992948,2590.720797,4071.132681,1991.848295
155.993258,-2960.823768,11917.315666,-2298.286494
155.993567,-5329.482782,8512.368333,-2451.505594
155.993877,2960.823768,8438.347739,-3370.820191
155.994186,1480.411884,4293.194464,-6128.763984
155.994496,-5921.647536,14952.160028,1685.410096
155.994805,-3849.070898,13471.748144,7431.126331
155.995115,3330.926739,6809.894666,-2834.553343
155.995424,148.041188,6809.894666,-4903.011187
155.995734,-5329.482782,7476.080014,4826.401637
155.996043,814.226536,9178.553681,1149.143247
155.996353,1924.535449,5995.668130,-7737.564530
155.996663,5255.462188,12213.398043,-3064.381992
155.996972,-962.267725,9844.739029,6128.763984
155.997282,-4737.318029,8808.450710,6128.763984
155.997591,-1554.432478,10510.924376,2451.505594
155.997901,666.185348,12139.377449,-2528.115143
155.998210,1110.308913,14211.954086,-9499.584175
155.998520,-0.000000,11917.315666,-8350.440928
155.998829,3330.926739,11991.336260,-6511.811733
155.999139,-1258.350101,7920.203579,-4749.792088
155.999448,518.144159,8364.327145,7277.907231
155.999758,-2812.782580,15248.242405,11338.213370
156.000067,2738.761985,3182.885551,2298.286494
156.000377,-5921.647536,1036.288319,612.876398
156.000686,4441.235652,4293.194464,-1455.581446
156.000996,2738.761985,6291.750507,-9346.365076
156.001305,-7846.182985,10140.821405,-6052.154434
156.001615,-7550.100608,13619.789333,5669.106685
156.001924,5551.544565,19985.560434,-6665.030833
156.002234,8808.450710,12879.583391,-17696.806004
156.002543,-148.041188,6957.935855,-5132.839837
156.002853,-4737.318029,3701.029710,11797.870669
156.003162,-1924.535449,148.041188,8810.098227
156.003472,3997.112087,7254.018232,2757.943793
156.003782,4219.173869,11917.315666,-3907.087040
156.004091,1702.473667,11547.212695,-4213.525239
156.004401,-8882.471304,10510.924376,1072.533697
156.004710,-518.144159,14878.139434,-5898.935335
156.005020,7105.977043,8290.306550,-19841.873398
156.005329,-3478.967927,9252.574275,-5362.668486
156.005639,-10807.006753,11251.130318,14249.376263
156.005948,1406.391290,6883.915261,2528.115143
156.006258,7328.038826,3330.926739,-7277.907231
156.006567,3849.070898,6143.709319,2757.943793
156.006877,-5329.482782,4737.318029,7890.783629
156.007186,-666.185348,8216.285956,6128.763984
156.007496,2516.700203,16580.613101,4213.525239
156.007806,1406.391290,14211.954086,-3830.477490
156.008115,-1110.308913,16136.489536,-5822.325785
156.008425,-3997.112087,10436.903782,-5286.058936
156.008735,-3552.988522,14508.036463,-8886.707777
156.009044,2220.617826,13323.706956,-13483.280765
156.009354,5847.626942,7476.080014,-7354.516781
156.009663,-3256.906145,7105.977043,9959.241474
156.009973,-962.267725,3108.864956,16547.662757
156.010283,-2664.741391,5699.585753,11644.651570
156.010592,6365.771101,7105.977043,3677.258390
156.010902,3108.864956,3108.864956,-5822.325785
156.011211,-4145.153275,2738.761985,-8273.831378
156.011521,-6069.688724,8512.368333,-2681.334243
156.011831,5625.565159,13989.892304,-7890.783629
156.012140,4885.359217,9696.697840,-7814.174080
156.012450,-5403.503377,16506.592507,7431.126331
156.012759,-13175.665768,15840.407159,14785.643111
156.013069,518.144159,11029.068536,-6281.983084
156.013379,9030.512492,5625.565159,-20531.359346
156.013688,4441.235652,7031.956449,-12257.527968
156.013998,-6217.729913,9992.780217,1685.410096
156.014308,-3923.091493,10436.903782,9039.926876
156.014617,9474.636058,12435.459826,4136.915689
156.014927,9326.594869,7772.162391,995.924147
156.015236,-3627.009116,5477.523971,4060.306139
156.015546,-5329.482782,-222.061783,5439.278036
156.015856,6291.750507,3849.070898,-5209.449386
156.016165,2516.700203,2590.720797,-8427.050478
156.016475,-6661.853478,13249.686362,1455.581446
156.016784,-5255.462188,17690.922014,1762.019645
156.017094,2812.782580,14359.995275,-6511.811733
156.017404,2738.761985,13027.624579,-6894.859482
156.017713,-4367.215058,13397.727550,1149.143247
156.018023,-2886.803174,11399.171507,1149.143247
156.018333,1036.288319,8586.388927,-2451.505594
156.018642,1258.350101,11843.295072,-1838.629195
156.018952,1258.350101,11547.212695,-1455.581446
156.019261,-518.144159,12509.480420,-3447.429741
156.019571,814.226536,6439.791695,-919.314598
156.019881,-0.000000,3849.070898,3447.429741
156.020190,-3108.864956,5773.606348,1991.848295
156.020500,-1702.473667,9548.656652,-1838.629195
156.020809,1628.453072,4293.194464,-3447.429741
156.021119,-148.041188,666.185348,-3370.820191
156.021429,592.164754,9770.718434,-5362.668486
156.021738,3478.967927,14582.057057,-3677.258390
156.022048,-2442.679609,11695.253884,1838.629195
156.022358,-4959.379811,12065.356855,6971.469032
156.022667,-5033.400406,14508.036463,2374.896044
156.022977,3997.112087,12731.542202,-10265.679673
156.023286,-222.061783,10214.842000,-12257.527968
156.023596,-2368.659014,9400.615463,-6281.983084
156.023906,-2146.597232,10288.862594,-4903.011187
156.024215,-0.000000,7105.977043,0.000000
156.024525,1850.514855,10066.800811,7890.783629
156.024834,-0.000000,5403.503377,4290.134789
156.025144,2442.679609,7105.977043,-2298.286494
156.025454,-74.020594,1702.473667,-2528.115143
156.025763,1554.432478,8882.471304,-8120.612279
156.026073,1628.453072,7698.141797,-6588.421283
156.026382,-2738.761985,11325.150913,2145.067394
156.026692,1480.411884,14582.057057,2987.772442
156.027002,-2368.659014,13767.830521,-766.095498
156.027311,-1184.329507,12731.542202,-766.095498
156.027621,-222.061783,10436.903782,-5515.887586
156.027931,3330.926739,11991.336260,-12717.185267
156.028240,-5181.441594,10140.821405,-1532.190996
156.028550,-1406.391290,10658.965565,1532.190996
156.028859,2590.720797,6069.688724,-7507.735880
156.029169,-666.185348,9252.574275,-2145.067394
156.029479,-3404.947333,1850.514855,10112.460574
156.029788,-444.123565,-74.020594,459.657299
156.030098,3849.070898,4663.297435,-8120.612279
156.030407,3923.091493,3997.112087,3524.039291
156.030717,-4071.132681,11621.233289,4136.915689
156.031027,-2886.803174,9400.615463,-1762.019645
156.031336,6661.853478,13249.686362,-612.876398
156.031646,-2368.659014,15322.262999,-383.047749
156.031956,-4145.153275,15100.201217,-3370.820191
156.032265,-2960.823768,16432.571912,-3064.381992
156.032575,1110.308913,11399.171507,-4826.401637
156.032884,-2442.679609,12731.542202,-7354.516781
156.033194,-0.000000,12731.542202,-3447.429741
156.033504,666.185348,9178.553681,-5592.497135
156.033813,592.164754,4441.235652,2681.334243
156.034123,2812.782580,2516.700203,12563.966167
156.034432,740.205942,3997.112087,5669.106685
156.034742,-1850.514855,6513.812290,689.485948
156.035052,4293.194464,4441.235652,1302.362347
156.035361,2738.761985,5181.441594,-2987.772442
156.035671,1258.350101,7550.100608,-8273.831378
156.035981,-3330.926739,13915.871710,1838.629195
156.036290,-1702.473667,17024.736666,5975.544884
156.036600,3701.029710,16876.695478,-3753.867940
156.036909,1184.329507,13471.748144,-5745.716235
156.037219,-8290.306550,14137.933492,1685.410096
156.037529,-4811.338623,12435.459826,-2834.553343
156.037838,3256.906145,11843.295072,-11951.089769
156.038148,1924.535449,10362.883188,-8656.879127
156.038457,-4663.297435,8068.244768,1915.238745
156.038767,-4441.235652,11843.295072,5362.668486
156.039077,3627.009116,5773.606348,-229.828649
156.039386,6291.750507,-3330.926739,-1532.190996
156.039696,962.267725,5625.565159,4903.011187
156.040005,-3997.112087,2294.638420,4519.963438
156.040315,-814.226536,3849.070898,3600.648841
156.040625,7550.100608,8808.450710,-1225.752797
156.040934,592.164754,11547.212695,-6511.811733
156.041244,-10807.006753,19985.560434,3370.820191
156.041554,-4515.256246,17764.942608,919.314598
156.041863,8512.368333,15174.221811,-18999.168350
156.042173,2368.659014,14804.118840,-17160.539155
156.042482,-4885.359217,14063.912898,2528.115143
156.042792,-7772.162391,9622.677246,5439.278036
156.043102,4811.338623,6365.771101,-842.705048
156.043411,2442.679609,7105.977043,1685.410096
156.043721,1480.411884,10807.006753,919.314598
156.044030,1850.514855,4071.132681,-1685.410096
156.044340,-888.247130,4293.194464,766.095498
156.044650,1628.453072,4071.132681,-612.876398
156.044959,1332.370696,5625.565159,-4826.401637
156.045269,-1924.535449,6143.709319,3830.477490
156.045579,-2368.659014,8364.327145,5362.668486
156.045888,962.267725,11991.336260,-5056.230287
156.046198,-2738.761985,12361.439231,-8886.707777
156.046507,-2294.638420,14211.954086,-4903.011187
156.046817,5255.462188,15174.221811,-6894.859482
156.047127,1850.514855,10732.986159,-4290.134789
156.047436,-5033.400406,9622.677246,5975.544884
156.047746,-3034.844362,10140.821405,7124.688131
156.048055,518.144159,9474.636058,-2221.676944
156.048365,1036.288319,2960.823768,-5669.106685
156.048675,444.123565,9252.574275,-4290.134789
156.048984,2442.679609,7105.977043,-9039.926876
156.049294,1702.473667,5181.441594,-4749.792088
156.049604,1998.556043,13323.706956,9269.755526
156.049913,-0.000000,7031.956449,9422.974625
156.050223,-7179.997637,9326.594869,5975.544884
156.050532,-1480.411884,7624.121203,1685.410096
156.050842,10658.965565,8660.409521,-10878.556072
156.051152,-3552.988522,13767.830521,-12870.404366
156.051461,-12361.439231,13989.892304,0.000000
156.051771,5699.585753,18505.148550,-4673.182538
156.052080,9104.533087,15618.345376,-12947.013916
156.052390,-4145.153275,8068.244768,7124.688131
156.052700,-9474.636058,9622.677246,20071.702048
156.053009,2590.720797,3256.906145,-1149.143247
156.053319,7846.182985,2886.803174,-11261.603821
156.053628,2146.597232,3627.009116,-2221.676944
156.053938,-1776.494261,5921.647536,2604.724693
156.054248,-3404.947333,9992.780217,536.266849
156.054557,1702.473667,12361.439231,8963.317327
156.054867,1776.494261,11769.274478,2374.896044
156.055177,518.144159,14285.974681,-5362.668486
156.055486,-2220.617826,8216.285956,-4060.306139
156.055796,5403.503377,11103.089130,-8197.221829
156.056105,-370.102971,10288.862594,-9422.974625
156.056415,-2960.823768,10584.944971,2987.772442
156.056725,-888.247130,15914.427753,1455.581446
156.057034,4959.379811,10436.903782,-1608.800546
156.057344,962.267725,6291.750507,-1378.971896
156.057653,-3108.864956,8808.450710,5132.839837
156.057963,2368.659014,6513.812290,-4443.353888
156.058273,222.061783,4515.256246,-7431.126331
156.058582,-1924.535449,9030.512492,2757.943793
156.058892,444.123565,13693.809927,229.828649
156.059202,2590.720797,13175.665768,-8120.612279
156.059511,2516.700203,12213.398043,-306.438199
156.059821,1924.535449,7254.018232,3983.696590
156.060130,-3627.009116,7772.162391,3140.991542
156.060440,-3923.091493,7105.977043,3447.429741
156.060750,2294.638420,10807.006753,-3294.210641
156.061059,2220.617826,7920.203579,-7507.735880
156.061369,-6365.771101,7550.100608,-1838.629195
156.061678,1554.432478,13915.871710,-1608.800546
156.061988,2590.720797,10214.842000,-7431.126331
156.062298,1184.329507,8808.450710,-2451.505594
156.062607,-6513.812290,9400.615463,8810.098227
156.062917,4071.132681,11621.233289,-1685.410096
156.063227,3923.091493,7402.059420,-10112.460574
156.063536,1850.514855,7920.203579,-3370.820191
156.063846,-1702.473667,4145.153275,1915.238745
156.064155,-2294.638420,6957.935855,0.000000
156.064465,2294.638420,9770.718434,-1532.190996
156.064775,3849.070898,15322.262999,-1838.629195
156.065084,962.267725,9252.574275,-766.095498
156.065394,-7105.977043,8216.285956,4903.011187
156.065703,1258.350101,14211.954086,-2681.334243
156.066013,5995.668130,10658.965565,-15551.738609
156.066323,-148.041188,7624.121203,-9269.755526
156.066632,-4885.359217,10881.027347,2528.115143
156.066942,-1480.411884,11917.315666,-1378.971896
156.067251,5181.441594,11473.192101,-5592.497135
156.067561,2516.700203,8216.285956,2681.334243
156.067871,1036.288319,7402.059420,4826.401637
156.068180,-2146.597232,8290.306550,-689.485948
156.068490,-0.000000,8512.368333,-2681.334243
156.068800,2368.659014,11769.274478,-8197.221829
156.069109,3034.844362,10140.821405,-7660.954980
156.069419,-2590.720797,9770.718434,-5515.887586
156.069728,-1110.308913,14878.139434,-2681.334243
156.070038,2812.782580,7920.203579,1838.629195
156.070348,-888.247130,3330.926739,4213.525239
156.070657,-1480.411884,7476.080014,3907.087040
156.070967,518.144159,7105.977043,-2145.067394
156.071276,-962.267725,8142.265362,-2221.676944
156.071586,2960.823768,11325.150913,-2757.943793
156.071896,3034.844362,18653.189738,-6205.373534
156.072205,-2368.659014,15766.386565,-1685.410096
156.072515,-3627.009116,11695.253884,5975.544884
156.072825,148.041188,10658.965565,-2451.505594
156.073134,-222.061783,11325.150913,-9269.755526
156.073444,2072.576638,4737.318029,-5056.230287
156.073753,3478.967927,5847.626942,-1762.019645
156.074063,-3627.009116,814.226536,4596.572988
156.074373,-5329.482782,2960.823768,11261.603821
156.074682,5181.441594,5847.626942,3600.648841
156.074992,7994.224174,10436.903782,-7737.564530
156.075301,-5551.544565,7846.182985,-3524.039291
156.075611,-3034.844362,10807.006753,2145.067394
156.075921,5477.523971,13619.789333,-12870.404366
156.076230,3256.906145,10732.986159,-11951.089769
156.076540,-1924.535449,9918.759623,7124.688131
156.076850,148.041188,11547.212695,7890.783629
156.077159,-1406.391290,15766.386565,2911.162892
156.077469,-296.082377,11621.233289,2681.334243
156.077778,8068.244768,11103.089130,-5515.887586
156.078088,-3923.091493,4367.215058,-7431.126331
156.078398,-8216.285956,2442.679609,76.609550
156.078707,1702.473667,10584.944971,-6205.373534
156.079017,4589.276840,9622.677246,-12640.575717
156.079326,2072.576638,13471.748144,2068.457845
156.079636,-1110.308913,7328.038826,5209.449386
156.079946,4737.318029,2368.659014,919.314598
156.080255,814.226536,7846.182985,6588.421283
156.080565,962.267725,7994.224174,10342.289223
156.080874,4293.194464,8142.265362,-2451.505594
156.081184,-3108.864956,12435.459826,-4136.915689
156.081494,-8290.306550,17098.757260,-2757.943793
156.081803,2368.659014,18801.230927,-15015.471761
156.082113,2960.823768,17246.798449,-21450.673944
156.082423,-592.164754,8364.327145,-4673.182538
156.082732,-2146.597232,6513.812290,9422.974625
156.083042,-3108.864956,2368.659014,10035.851024
156.083351,-222.061783,3627.009116,10265.679673
156.083661,3997.112087,4589.276840,4060.306139
156.083971,8882.471304,3997.112087,-7431.126331
156.084280,-3108.864956,4663.297435,-4903.011187
156.084590,-3330.926739,9992.780217,689.485948
156.084899,4515.256246,19837.519246,-5592.497135
156.085209,3330.926739,18357.107362,-16241.224558
156.085519,-4071.132681,12953.603985,689.485948
156.085828,-1850.514855,10881.027347,3140.991542
156.086138,-0.000000,6365.771101,-2374.896044
156.086448,-148.041188,7920.203579,-2068.457845
156.086757,5477.523971,7476.080014,-153.219100
156.087067,-3330.926739,7550.100608,1455.581446
156.087376,-7031.956449,9178.553681,6435.202183
156.087686,888.247130,18209.066173,-2451.505594
156.087996,7772.162391,11399.171507,-17850.025103
156.088305,3775.050304,11325.150913,-12870.404366
156.088615,-2220.617826,1998.556043,6741.640382
156.088924,-3997.112087,2664.741391,7737.564530
156.089234,2294.638420,9104.533087,3524.039291
156.089544,5699.585753,11103.089130,5515.887586
156.089853,-2368.659014,7698.141797,5592.497135
156.090163,-4515.256246,14137.933492,-1455.581446
156.090473,444.123565,11621.233289,-10189.070123
156.090782,5181.441594,8586.388927,-14785.643111
156.091092,-3627.009116,9474.636058,-3983.696590
156.091401,-9178.553681,10510.924376,6818.249932
156.091711,-444.123565,13175.665768,-306.438199
156.092021,6069.688724,6143.709319,-5592.497135
156.092330,4071.132681,8882.471304,4673.182538
156.092640,-5477.523971,7698.141797,10648.727422
156.092949,-1332.370696,6291.750507,766.095498
156.093259,1258.350101,9992.780217,-6511.811733
156.093569,5921.647536,10510.924376,-5132.839837
156.093878,2516.700203,8808.450710,-1915.238745
156.094188,-6735.874072,10362.883188,4060.306139
156.094497,-1258.350101,11769.274478,1838.629195
156.094807,5033.400406,2368.659014,-4749.792088
156.095117,-666.185348,4663.297435,766.095498
156.095426,-6735.874072,9326.594869,5822.325785
156.095736,1702.473667,10436.903782,-3677.258390
156.096046,3478.967927,12583.501014,-8580.269578
156.096355,-1850.514855,12805.562797,-1685.410096
156.096665,-148.041188,11991.336260,459.657299
156.096974,1554.432478,2664.741391,-3907.087040
156.097284,2294.638420,9178.553681,689.485948
156.097594,-0.000000,9548.656652,9806.022374
156.097903,-1776.494261,8586.388927,6128.763984
156.098213,-148.041188,15988.448347,-2681.334243
156.098522,3404.947333,14582.057057,-7584.345430
156.098832,6069.688724,6217.729913,-8656.879127
156.099142,-6069.688724,6217.729913,-1685.410096
156.099451,-4071.132681,9474.636058,4366.744339
156.099761,-1998.556043,8068.244768,-306.438199
156.100071,888.247130,5403.503377,-2451.505594
156.100380,-1850.514855,6957.935855,2068.457845
156.100690,1850.514855,12287.418637,-2145.067394
156.100999,3108.864956,5033.400406,-4136.915689
156.101309,-740.205942,9696.697840,5669.106685
156.101619,1036.288319,17468.860231,4903.011187
156.101928,2886.803174,13915.871710,-5286.058936
156.102238,-2220.617826,15026.180623,-2374.896044
156.102547,-3034.844362,15248.242405,0.000000
156.102857,2220.617826,12287.418637,-10418.898773
156.103167,-1702.473667,6957.935855,-7737.564530
156.103476,-518.144159,5403.503377,153.219100
156.103786,-518.144159,3478.967927,459.657299
156.104096,1702.473667,5329.482782,2068.457845
156.104405,-1628.453072,6883.915261,7737.564530
156.104715,3997.112087,10436.903782,3217.601092
156.105024,5403.503377,5551.544565,-4979.620737
156.105334,-4959.379811,3775.050304,-3600.648841
156.105644,592.164754,10584.944971,383.047749
156.105953,1850.514855,11325.150913,-4749.792088
156.106263,-2886.803174,17616.901420,-2298.286494
156.106572,-2442.679609,18209.066173,2757.943793
156.106882,-1924.535449,14730.098246,-7201.297681
156.107192,2886.803174,12879.583391,-10035.851024
156.107501,-0.000000,3552.988522,-3064.381992
156.107811,-2368.659014,4441.235652,842.705048
156.108120,-3923.091493,6661.853478,4673.182538
156.108430,-2368.659014,9992.780217,2911.162892
156.108740,5625.565159,8438.347739,-1072.533697
156.109049,6661.853478,6217.729913,-7124.688131
156.109359,1036.288319,592.164754,-2987.772442
156.109668,-1184.329507,5033.400406,7967.393179
156.109978,-2368.659014,7920.203579,7814.174080
156.110288,-2812.782580,13767.830521,2451.505594
156.110597,888.247130,19171.333898,-2298.286494
156.110907,-1554.432478,16062.468941,-12563.966167
156.111216,-148.041188,13471.748144,-14325.985813
156.111526,-2590.720797,11103.089130,-3753.867940
156.111836,814.226536,7698.141797,-2145.067394
156.112145,-4959.379811,8438.347739,536.266849
156.112455,-1110.308913,5551.544565,8120.612279
156.112764,6069.688724,9992.780217,3677.258390
156.113074,2294.638420,2738.761985,-1532.190996
156.113384,518.144159,3552.988522,306.438199
156.113693,-4367.215058,3552.988522,-459.657299
156.114003,2442.679609,6587.832884,-4903.011187
156.114312,666.185348,12583.501014,-383.047749
156.114622,-888.247130,17394.839637,2298.286494
156.114932,-666.185348,14434.015869,-1302.362347
156.115241,1850.514855,10288.862594,-8273.831378
156.115551,-1036.288319,8364.327145,-2911.162892
156.115860,-2516.700203,2664.741391,-5515.887586
156.116170,-2368.659014,9548.656652,-4903.011187
156.116480,-1258.350101,14952.160028,383.047749
156.116789,8660.409521,12139.377449,-842.705048
156.117099,2220.617826,8882.471304,-153.219100
