#time,accel_x,accel_y,accel_z
138.833150,-0.000000,9844.739029,-995.924147
138.833460,148.041188,9622.677246,-766.095498
138.833769,222.061783,9474.636058,-995.924147
138.834079,-0.000000,8882.471304,-1532.190996
138.834389,-148.041188,9252.574275,-1608.800546
138.834699,740.205942,9474.636058,-995.924147
138.835009,-0.000000,10140.821405,-1072.533697
138.835319,-0.000000,9844.739029,-995.924147
138.835629,-296.082377,9474.636058,-1072.533697
138.835938,-0.000000,8956.491898,-1991.848295
138.836248,-148.041188,9548.656652,-2528.115143
138.836558,-740.205942,9622.677246,-842.705048
138.836868,-0.000000,9696.697840,-306.438199
138.837178,444.123565,9770.718434,-1455.581446
138.837488,370.102971,9252.574275,-1455.581446
138.837798,-0.000000,8290.306550,-1532.190996
138.838107,-74.020594,8808.450710,-1455.581446
138.838417,592.164754,9548.656652,-383.047749
138.838727,222.061783,8586.388927,459.657299
138.839037,888.247130,7179.997637,1302.362347
138.839347,2886.803174,6291.750507,306.438199
138.839657,4293.194464,6883.915261,2834.553343
138.839966,2220.617826,7698.141797,9652.803275
138.840276,-1628.453072,5847.626942,10801.946522
138.840586,2738.761985,6883.915261,9806.022374
138.840896,7105.977043,9474.636058,3447.429741
138.841206,4071.132681,7105.977043,2604.724693
138.841516,-3627.009116,9400.615463,13330.061665
138.841826,-1924.535449,12287.418637,14709.033562
138.842135,2516.700203,10584.944971,3217.601092
138.842445,1776.494261,11843.295072,5515.887586
138.842755,-1998.556043,11547.212695,13406.671215
138.843065,-15100.201217,14804.118840,13789.718964
138.843375,25981.228564,18209.066173,-5669.106685
138.843685,-11029.068536,6661.853478,689.485948
138.843995,-2960.823768,15988.448347,19075.777900
138.844304,-18949.272115,7624.121203,27043.171079
138.844614,5033.400406,13989.892304,995.924147
138.844924,7772.162391,12139.377449,-3447.429741
138.845234,-10140.821405,9326.594869,10265.679673
138.845544,-4515.256246,10881.027347,7660.954980
138.845854,-1406.391290,5773.606348,-306.438199
138.846164,-3182.885551,8142.265362,5056.230287
138.846473,-3923.091493,4589.276840,17160.539155
138.846783,3775.050304,5625.565159,11644.651570
138.847093,-4441.235652,2146.597232,13253.452115
138.847403,148.041188,4441.235652,17390.367805
138.847713,-444.123565,5329.482782,10495.508323
138.848023,-2664.741391,4515.256246,1838.629195
138.848333,1406.391290,14285.974681,4136.915689
138.848642,1332.370696,11399.171507,-1762.019645
138.848952,7994.224174,13323.706956,-4136.915689
138.849262,370.102971,12139.377449,18769.339701
138.849572,-962.267725,7994.224174,25281.151434
138.849882,1258.350101,4885.359217,17926.634653
138.850192,3478.967927,5329.482782,9499.584175
138.850502,-2664.741391,5033.400406,9346.365076
138.850811,4811.338623,13397.727550,-842.705048
138.851121,6069.688724,17098.757260,-5362.668486
138.851431,444.123565,17172.777854,6588.421283
138.851741,-6735.874072,14508.036463,18616.120601
138.852051,-3701.029710,10510.924376,14096.157163
138.852361,3997.112087,10436.903782,383.047749
138.852671,3923.091493,8142.265362,-4903.011187
138.852980,1480.411884,6661.853478,3064.381992
138.853290,-1258.350101,9326.594869,15015.471761
138.853600,-888.247130,10510.924376,16164.615008
138.853910,3034.844362,8068.244768,8273.831378
138.854220,3701.029710,5329.482782,766.095498
138.854530,-3552.988522,2146.597232,3140.991542
138.854840,-6365.771101,7402.059420,9039.926876
138.855149,296.082377,9178.553681,306.438199
138.855459,9030.512492,8068.244768,-8044.002729
138.855769,3849.070898,7254.018232,3830.477490
138.856079,-7031.956449,6439.791695,21757.112143
138.856389,-5551.544565,7920.203579,19918.482948
138.856699,4219.173869,10510.924376,3830.477490
138.857008,4589.276840,11769.274478,-5669.106685
138.857318,-2886.803174,11251.130318,153.219100
138.857628,-9178.553681,10214.842000,2528.115143
138.857938,2516.700203,14508.036463,-5515.887586
138.858248,8882.471304,12953.603985,-2374.896044
138.858558,-888.247130,8586.388927,17620.196454
138.858868,-4441.235652,7031.956449,28958.409824
138.859177,5107.421000,3923.091493,15015.471761
138.859487,4293.194464,3923.091493,1762.019645
138.859797,-3404.947333,5551.544565,7431.126331
138.860107,962.267725,5921.647536,2987.772442
138.860417,3923.091493,4367.215058,-5898.935335
138.860727,-4293.194464,-2738.761985,9652.803275
138.861037,-9918.759623,18061.024985,18233.072852
138.861346,12731.542202,14804.118840,18003.244203
138.861656,-17764.942608,7105.977043,16164.615008
138.861966,8438.347739,19985.560434,7048.078582
138.862276,2294.638420,2220.617826,-15245.300410
138.862586,1036.288319,16284.530724,-5898.935335
138.862896,-12731.542202,14804.118840,28728.581175
138.863206,4219.173869,16432.571912,14632.424012
138.863515,2812.782580,12435.459826,306.438199
138.863825,-10510.924376,10658.965565,17466.977354
138.864135,-0.000000,7772.162391,14862.252661
138.864445,1776.494261,7550.100608,-6281.983084
138.864755,3108.864956,14804.118840,-612.876398
138.865065,-3701.029710,9252.574275,15015.471761
138.865375,-888.247130,16876.695478,8656.879127
138.865684,4663.297435,9474.636058,3370.820191
138.865994,-0.000000,8438.347739,9729.412825
138.866304,-4367.215058,10658.965565,22293.378992
138.866614,-1554.432478,3478.967927,17237.148705
138.866924,4515.256246,5921.647536,7814.174080
138.867234,3627.009116,3108.864956,8733.488677
138.867544,1776.494261,222.061783,5515.887586
138.867853,2146.597232,6883.915261,8886.707777
138.868163,-6143.709319,10807.006753,17620.196454
138.868473,-2664.741391,10288.862594,14249.376263
138.868783,3627.009116,11843.295072,4060.306139
138.869093,-2368.659014,9030.512492,766.095498
138.869403,-9548.656652,7179.997637,11874.480219
138.869713,-4737.318029,10881.027347,12334.137518
138.870022,2516.700203,11473.192101,1378.971896
138.870332,296.082377,12287.418637,4366.744339
138.870642,3404.947333,16506.592507,9959.241474
138.870952,-4145.153275,13619.789333,12104.308868
138.871262,-3552.988522,10881.027347,9882.631924
138.871572,-3182.885551,11695.253884,7814.174080
138.871882,3552.988522,11991.336260,1378.971896
138.872191,4885.359217,7254.018232,-4290.134789
138.872501,-5699.585753,4145.153275,8273.831378
138.872811,-74.020594,9326.594869,15168.690860
138.873121,148.041188,2960.823768,9193.145976
138.873431,8364.327145,4885.359217,5898.935335
138.873741,-7105.977043,2590.720797,15704.957709
138.874050,-4737.318029,4219.173869,8886.707777
138.874360,7179.997637,11399.171507,-7507.735880
138.874670,3701.029710,8734.430116,-6665.030833
138.874980,-3034.844362,12509.480420,12257.527968
138.875290,-3923.091493,13101.645173,16164.615008
138.875600,666.185348,9622.677246,5286.058936
138.875910,4737.318029,10214.842000,1149.143247
138.876219,-4737.318029,9252.574275,12410.747068
138.876529,-3256.906145,14508.036463,766.095498
138.876839,3404.947333,10140.821405,-11414.822920
138.877149,4441.235652,15174.221811,-10189.070123
138.877459,-5255.462188,11769.274478,4060.306139
138.877769,-0.000000,9992.780217,6818.249932
138.878079,5329.482782,8068.244768,76.609550
138.878388,4515.256246,5995.668130,1838.629195
138.878698,-3034.844362,5329.482782,12793.794817
138.879008,-1110.308913,5699.585753,9806.022374
138.879318,10436.903782,2072.576638,-9959.241474
138.879628,10436.903782,3404.947333,-15168.690860
138.879938,-6069.688724,7772.162391,2911.162892
138.880248,-5477.523971,7698.141797,12947.013916
138.880557,4663.297435,7254.018232,2834.553343
138.880867,7179.997637,9400.615463,-3370.820191
138.881177,-5551.544565,7624.121203,7737.564530
138.881487,-4589.276840,4737.318029,6818.249932
138.881797,8068.244768,10288.862594,-11874.480219
138.882107,-370.102971,14730.098246,-11338.213370
138.882417,-3997.112087,21021.848753,1455.581446
138.882726,-4293.194464,17912.983796,3753.867940
138.883036,4663.297435,18801.230927,-1762.019645
138.883346,-5255.462188,13915.871710,5209.449386
138.883656,-3997.112087,12139.377449,3447.429741
138.883966,3701.029710,7920.203579,-5822.325785
138.884276,3923.091493,9474.636058,-6741.640382
138.884586,-0.000000,8956.491898,4903.011187
138.884895,1480.411884,5995.668130,6281.983084
138.885205,2812.782580,2664.741391,1991.848295
138.885515,-962.267725,2812.782580,6358.592633
138.885825,-2812.782580,3701.029710,9499.584175
138.886135,-2442.679609,888.247130,-3600.648841
138.886445,4515.256246,5329.482782,-8656.879127
138.886755,-4219.173869,7994.224174,3600.648841
138.887064,7105.977043,14211.954086,3524.039291
138.887374,-666.185348,4145.153275,-459.657299
138.887684,962.267725,14804.118840,8044.002729
138.887994,-10214.842000,9844.739029,14325.985813
138.888303,-1702.473667,16506.592507,-7584.345430
138.888612,5551.544565,15618.345376,-18539.511052
138.888922,-7846.182985,16580.613101,-8427.050478
138.889231,666.185348,20355.663405,-3217.601092
138.889541,2072.576638,12213.398043,-3370.820191
138.889850,3552.988522,9622.677246,3524.039291
138.890160,-6217.729913,6661.853478,17083.929605
138.890469,-3034.844362,9400.615463,8503.660028
138.890779,6957.935855,4515.256246,-7201.297681
138.891088,1480.411884,4219.173869,-9729.412825
138.891397,2368.659014,8660.409521,-2451.505594
138.891707,2072.576638,6735.874072,229.828649
138.892016,1332.370696,9474.636058,612.876398
138.892326,-1924.535449,4071.132681,13176.842566
138.892635,444.123565,11399.171507,9882.631924
138.892945,592.164754,8142.265362,-2681.334243
138.893254,3997.112087,6587.832884,-8886.707777
138.893564,-4885.359217,11177.109724,-6818.249932
138.893873,-0.000000,11029.068536,-6971.469032
138.894182,592.164754,11103.089130,-2451.505594
138.894492,-1850.514855,13249.686362,4826.401637
138.894801,-8068.244768,14878.139434,11644.651570
138.895111,-814.226536,15174.221811,2145.067394
138.895420,6143.709319,8364.327145,-14709.033562
138.895730,4219.173869,9326.594869,-14402.595362
138.896039,-3923.091493,5921.647536,689.485948
138.896349,2146.597232,5921.647536,2681.334243
138.896658,9696.697840,8364.327145,-2528.115143
138.896967,-0.000000,5551.544565,7354.516781
138.897277,-5773.606348,7846.182985,18003.244203
138.897586,-1998.556043,2664.741391,2834.553343
138.897896,10510.924376,8438.347739,-15245.300410
138.898205,1554.432478,5847.626942,-8273.831378
138.898515,1184.329507,13619.789333,-3064.381992
138.898824,-0.000000,9474.636058,-2834.553343
138.899134,1924.535449,13619.789333,3294.210641
138.899443,-2886.803174,13027.624579,7124.688131
138.899752,-10955.047942,10732.986159,6435.202183
138.900062,-666.185348,13619.789333,-4060.306139
138.900371,-0.000000,9548.656652,-19382.216099
138.900681,5995.668130,15248.242405,-18233.072852
138.900990,-5329.482782,8882.471304,229.828649
138.901300,2738.761985,8660.409521,3600.648841
138.901609,-1110.308913,4737.318029,4903.011187
138.901919,-3256.906145,5329.482782,11338.213370
138.902228,-814.226536,1628.453072,6358.592633
138.902537,2220.617826,1406.391290,-5975.544884
138.902847,1702.473667,8808.450710,-9269.755526
138.903156,962.267725,8512.368333,-7737.564530
138.903466,4367.215058,3923.091493,-4519.963438
138.903775,-1332.370696,8142.265362,6435.202183
138.904085,-2072.576638,13323.706956,14709.033562
138.904394,-2368.659014,9770.718434,5056.230287
138.904704,1702.473667,15100.201217,-3524.039291
138.905013,-222.061783,12509.480420,-4673.182538
138.905322,-370.102971,13619.789333,-10801.946522
138.905632,-1628.453072,14211.954086,-13483.280765
138.905941,3775.050304,17764.942608,-5592.497135
138.906251,-6809.894666,11991.336260,4826.401637
138.906560,-7031.956449,12287.418637,7507.735880
138.906870,5847.626942,9178.553681,-3370.820191
138.907179,1776.494261,5773.606348,-8120.612279
138.907489,-1480.411884,6735.874072,-4903.011187
138.907798,-2368.659014,1628.453072,2834.553343
138.908107,8290.306550,7846.182985,-3217.601092
138.908417,4293.194464,2960.823768,766.095498
138.908726,-7698.141797,5477.523971,13406.671215
138.909036,-1110.308913,4885.359217,6435.202183
138.909345,5107.421000,8586.388927,-10112.460574
138.909655,962.267725,8142.265362,-8427.050478
138.909964,-1776.494261,12879.583391,1991.848295
138.910274,3775.050304,9770.718434,-5669.106685
138.910583,-592.164754,10288.862594,-6588.421283
138.910893,-8290.306550,13915.871710,12793.794817
138.911202,-6661.853478,14952.160028,8810.098227
138.911511,6217.729913,13989.892304,-10648.727422
138.911821,1110.308913,14211.954086,-9959.241474
138.912130,-3701.029710,10658.965565,-689.485948
138.912440,-1110.308913,3256.906145,-3447.429741
138.912749,6069.688724,5699.585753,-4596.572988
138.913059,-5181.441594,7846.182985,9499.584175
138.913368,-4959.379811,5921.647536,9422.974625
138.913678,4441.235652,4145.153275,-2757.943793
138.913987,1998.556043,7254.018232,-2068.457845
138.914296,-962.267725,8512.368333,-919.314598
138.914606,222.061783,2960.823768,-4443.353888
138.914915,3478.967927,6365.771101,-4213.525239
138.915225,-2516.700203,13175.665768,5898.935335
138.915534,370.102971,12509.480420,8733.488677
138.915844,-592.164754,11695.253884,3294.210641
138.916153,1480.411884,17616.901420,-6511.811733
138.916463,-888.247130,11991.336260,-8503.660028
138.916772,-2220.617826,16136.489536,-9576.193725
138.917081,-2590.720797,11769.274478,-9729.412825
138.917391,4589.276840,15470.304188,-8656.879127
138.917700,-3775.050304,13471.748144,4826.401637
138.918010,-3701.029710,9548.656652,9116.536426
138.918319,3404.947333,5551.544565,0.000000
138.918629,370.102971,1850.514855,-4213.525239
138.918938,-3256.906145,6365.771101,2987.772442
138.919248,444.123565,3701.029710,-2757.943793
138.919557,6587.832884,6587.832884,-7967.393179
138.919866,2738.761985,7698.141797,-1838.629195
138.920176,-6587.832884,10140.821405,5822.325785
138.920485,-4589.276840,4811.338623,2834.553343
138.920795,1998.556043,6883.915261,-5592.497135
138.921104,3182.885551,9918.759623,-11031.775171
138.921414,-3627.009116,9474.636058,-1378.971896
138.921723,1702.473667,11399.171507,1915.238745
138.922033,-1702.473667,11917.315666,-1762.019645
138.922342,1776.494261,15322.262999,-4366.744339
138.922651,-7105.977043,9622.677246,-536.266849
138.922961,962.267725,16654.633695,-4290.134789
138.923270,4663.297435,12805.562797,-10878.556072
138.923580,-74.020594,8882.471304,-3830.477490
138.923889,1850.514855,8068.244768,3294.210641
138.924199,2146.597232,4293.194464,-2757.943793
138.924508,-1036.288319,5847.626942,2681.334243
138.924818,-2886.803174,8808.450710,9499.584175
138.925127,2442.679609,4589.276840,-3447.429741
138.925436,7402.059420,8586.388927,-7737.564530
138.925746,-1776.494261,6735.874072,-689.485948
138.926055,-1702.473667,10881.027347,-3677.258390
138.926365,1924.535449,8660.409521,-4596.572988
138.926674,962.267725,7550.100608,-2221.676944
138.926984,-3775.050304,14508.036463,919.314598
138.927293,-1110.308913,9844.739029,229.828649
138.927603,-74.020594,12731.542202,-3600.648841
138.927912,-2294.638420,10807.006753,-3524.039291
138.928221,-1332.370696,11843.295072,-5362.668486
138.928531,888.247130,9548.656652,-6741.640382
138.928840,888.247130,12361.439231,-7277.907231
138.929150,-6217.729913,9844.739029,2834.553343
138.929459,-1406.391290,8956.491898,4903.011187
138.929769,6217.729913,7328.038826,-4290.134789
138.930078,-0.000000,4885.359217,-3677.258390
138.930388,-1184.329507,8216.285956,-1225.752797
138.930697,-888.247130,4293.194464,0.000000
138.931006,8586.388927,10732.986159,-6281.983084
138.931316,-2738.761985,9622.677246,1685.410096
138.931625,-1776.494261,9696.697840,3524.039291
138.931935,740.205942,11991.336260,-5439.278036
138.932244,222.061783,8438.347739,-6588.421283
138.932554,-1036.288319,11547.212695,995.924147
138.932863,-1850.514855,14285.974681,-919.314598
138.933173,4811.338623,11325.150913,-3370.820191
138.933482,-518.144159,12657.521608,-1608.800546
138.933791,-3997.112087,11177.109724,2068.457845
138.934101,1036.288319,7105.977043,-1608.800546
138.934410,1998.556043,10732.986159,-8656.879127
138.934720,1628.453072,5699.585753,-5515.887586
138.935029,-4219.173869,7698.141797,5056.230287
138.935339,2220.617826,8142.265362,919.314598
138.935648,6735.874072,4367.215058,-6971.469032
138.935958,-4071.132681,6217.729913,2911.162892
138.936267,-1184.329507,7031.956449,7737.564530
138.936576,2516.700203,4367.215058,-5439.278036
138.936886,3997.112087,11251.130318,-9499.584175
138.937195,-1924.535449,11991.336260,2374.896044
138.937505,1406.391290,10510.924376,-2528.115143
138.937814,5477.523971,6809.894666,-3524.039291
138.938124,-7698.141797,10955.047942,3983.696590
138.938433,-0.000000,13619.789333,2298.286494
138.938743,1110.308913,8956.491898,-5209.449386
138.939052,-222.061783,14434.015869,-3677.258390
138.939361,-2072.576638,10658.965565,-1991.848295
138.939671,888.247130,10658.965565,-5898.935335
138.939980,518.144159,9474.636058,-2911.162892
138.940290,-2072.576638,11103.089130,1455.581446
138.940599,-5181.441594,10288.862594,4903.011187
138.940909,-0.000000,9474.636058,-995.924147
138.941218,5847.626942,9104.533087,-10878.556072
138.941528,-74.020594,5921.647536,-6281.983084
138.941837,888.247130,8586.388927,4903.011187
138.942146,370.102971,5995.668130,2451.505594
138.942456,3034.844362,5403.503377,-2298.286494
138.942765,-4737.318029,6587.832884,4749.792088
138.943075,-5773.606348,10436.903782,4519.963438
138.943384,4663.297435,8808.450710,-9346.365076
138.943694,2664.741391,11251.130318,-13636.499864
138.944003,-1110.308913,12139.377449,-5975.544884
138.944313,-5181.441594,9548.656652,4136.915689
138.944622,1554.432478,11917.315666,-842.705048
138.944932,1702.473667,10066.800811,-919.314598
138.945241,-5181.441594,13027.624579,3524.039291
138.945550,-962.267725,12287.418637,-1149.143247
138.945860,3478.967927,4293.194464,-12793.794817
138.946169,5255.462188,10436.903782,-8503.660028
138.946479,-3923.091493,9918.759623,1378.971896
138.946788,1554.432478,8142.265362,-306.438199
138.947098,5699.585753,9992.780217,-1225.752797
138.947407,-5403.503377,5477.523971,6665.030833
138.947717,1702.473667,8364.327145,3753.867940
138.948026,814.226536,6513.812290,-6128.763984
138.948335,5625.565159,6661.853478,-12870.404366
138.948645,-222.061783,10658.965565,-6588.421283
138.948954,-1924.535449,14211.954086,-306.438199
138.949264,4145.153275,9770.718434,-842.705048
138.949573,-2220.617826,12287.418637,2681.334243
138.949883,-3627.009116,14730.098246,6588.421283
138.950192,740.205942,5477.523971,-2451.505594
138.950502,2590.720797,10584.944971,-10648.727422
138.950811,-1258.350101,10881.027347,-7048.078582
138.951120,740.205942,8586.388927,-4213.525239
138.951430,6365.771101,12139.377449,-6281.983084
138.951739,-2886.803174,8586.388927,-1225.752797
138.952049,-3627.009116,8512.368333,10112.460574
138.952358,-2738.761985,9992.780217,1685.410096
138.952668,5625.565159,7772.162391,-9806.022374
138.952977,2294.638420,4959.379811,-5209.449386
138.953287,-4071.132681,13175.665768,306.438199
138.953596,4515.256246,6735.874072,-2451.505594
138.953905,3182.885551,9104.533087,0.000000
138.954215,-3330.926739,7920.203579,4903.011187
138.954524,-5773.606348,11991.336260,7354.516781
138.954834,1036.288319,10436.903782,-4060.306139
138.955143,2664.741391,6809.894666,-12410.747068
138.955453,-0.000000,16062.468941,-7737.564530
138.955762,-962.267725,10066.800811,-612.876398
138.956072,5699.585753,7624.121203,-1762.019645
138.956381,-2590.720797,10955.047942,1608.800546
138.956690,-7772.162391,11991.336260,14019.547613
138.957000,888.247130,11621.233289,3983.696590
138.957309,7105.977043,11325.150913,-16547.662757
138.957619,-2220.617826,13397.727550,-13636.499864
138.957928,-3627.009116,10436.903782,1225.752797
138.958238,1332.370696,6069.688724,536.266849
138.958547,4367.215058,10881.027347,-2298.286494
138.958857,-7402.059420,7402.059420,7737.564530
138.959166,-2812.782580,7846.182985,6665.030833
138.959475,9844.739029,6291.750507,-12257.527968
138.959785,-0.000000,6513.812290,-11414.822920
138.960094,-1184.329507,9474.636058,2298.286494
138.960404,296.082377,8586.388927,2145.067394
138.960713,3108.864956,9622.677246,-1915.238745
138.961023,-3108.864956,9548.656652,5822.325785
138.961332,-7031.956449,14211.954086,6358.592633
138.961642,2812.782580,13619.789333,-8503.660028
138.961951,4219.173869,9622.677246,-14172.766713
138.962260,-370.102971,14656.077652,-4749.792088
138.962570,-1628.453072,9770.718434,1072.533697
138.962879,5107.421000,4515.256246,-2145.067394
138.963189,-2072.576638,9696.697840,229.828649
138.963498,-10732.986159,9548.656652,14785.643111
138.963808,2294.638420,10066.800811,3447.429741
138.964117,10288.862594,8956.491898,-18769.339701
138.964427,-0.000000,6513.812290,-11721.261119
138.964736,-5477.523971,10288.862594,4366.744339
138.965045,1776.494261,7402.059420,0.000000
138.965355,5181.441594,10140.821405,-6435.202183
138.965664,-3849.070898,12139.377449,9346.365076
138.965974,-9548.656652,7846.182985,9576.193725
138.966283,9474.636058,6439.791695,-10265.679673
138.966593,2294.638420,11251.130318,-14325.985813
138.966902,-3923.091493,7994.224174,-2374.896044
138.967212,1036.288319,8882.471304,1149.143247
138.967521,3627.009116,13841.851115,-4826.401637
138.967830,-222.061783,8586.388927,2604.724693
138.968140,-4959.379811,12509.480420,8810.098227
138.968449,-1850.514855,11103.089130,153.219100
138.968759,8216.285956,8512.368333,-12410.747068
138.969068,962.267725,7031.956449,-9499.584175
138.969378,-5033.400406,10955.047942,-612.876398
138.969687,4293.194464,8216.285956,-1915.238745
138.969997,-592.164754,7105.977043,-2911.162892
138.970306,-3182.885551,9992.780217,7584.345430
138.970615,-1776.494261,7846.182985,9346.365076
138.970925,11177.109724,6809.894666,-6741.640382
138.971234,-2146.597232,6069.688724,-8580.269578
138.971544,-4959.379811,7550.100608,2604.724693
138.971853,2960.823768,7550.100608,-1991.848295
138.972163,4663.297435,9992.780217,-11568.042020
138.972472,-5255.462188,13841.851115,3677.258390
138.972782,-5847.626942,13693.809927,11414.822920
138.973091,6143.709319,7476.080014,-6588.421283
138.973400,2368.659014,8586.388927,-12793.794817
138.973710,-7476.080014,10955.047942,1608.800546
138.974019,-296.082377,5773.606348,-766.095498
138.974329,7402.059420,10436.903782,-11721.261119
138.974638,-1258.350101,9622.677246,1455.581446
138.974948,-4885.359217,11399.171507,12793.794817
138.975257,1480.411884,7402.059420,-689.485948
138.975567,7105.977043,7105.977043,-11797.870669
138.975876,-3330.926739,5033.400406,-4903.011187
138.976186,-444.123565,4441.235652,3753.867940
138.976495,3034.844362,9474.636058,-2681.334243
138.976804,3997.112087,10510.924376,-2298.286494
138.977114,-2220.617826,9622.677246,6281.983084
138.977423,-3478.967927,9918.759623,1608.800546
138.977733,1850.514855,9844.739029,-4366.744339
138.978042,1554.432478,11177.109724,-8503.660028
138.978352,-1776.494261,10288.862594,-2911.162892
138.978661,2368.659014,13767.830521,-1149.143247
138.978971,3997.112087,7920.203579,-4596.572988
138.979280,-4441.235652,11325.150913,4366.744339
138.979589,-3923.091493,15544.324782,9422.974625
138.979899,2960.823768,6735.874072,-2604.724693
138.980208,7994.224174,12065.356855,-11031.775171
138.980518,-3256.906145,9622.677246,-2221.676944
138.980827,-3404.947333,8068.244768,2068.457845
138.981137,4219.173869,7994.224174,-4213.525239
138.981446,-2960.823768,10066.800811,-2068.457845
138.981756,-5107.421000,10510.924376,13253.452115
138.982065,-1258.350101,6365.771101,1302.362347
138.982374,4959.379811,9474.636058,-11108.384721
138.982684,1480.411884,7550.100608,-4596.572988
138.982993,-962.267725,4959.379811,4903.011187
138.983303,2072.576638,8586.388927,1302.362347
138.983612,1110.308913,11547.212695,383.047749
138.983922,-2812.782580,11917.315666,3370.820191
138.984231,-666.185348,11769.274478,0.000000
138.984541,1998.556043,10214.842000,-5975.544884
138.984850,-148.041188,12139.377449,-5592.497135
138.985159,-2220.617826,11325.150913,-2757.943793
138.985469,-1554.432478,10214.842000,-2757.943793
138.985778,2590.720797,9104.533087,-1072.533697
138.986088,-4737.318029,14878.139434,3217.601092
138.986397,148.041188,12139.377449,5515.887586
138.986707,5773.606348,6439.791695,-4903.011187
138.987016,8586.388927,7624.121203,-7584.345430
138.987325,-7105.977043,2590.720797,2834.553343
138.987635,-3330.926739,7328.038826,5745.716235
138.987944,5033.400406,7624.121203,-766.095498
138.988253,3849.070898,7846.182985,-3983.696590
138.988563,-4441.235652,10214.842000,4903.011187
138.988872,-2368.659014,11251.130318,3370.820191
138.989181,5033.400406,8512.368333,-10648.727422
138.989491,5699.585753,7772.162391,-10418.898773
138.989800,-6143.709319,12287.418637,4213.525239
138.990110,-3923.091493,9400.615463,9806.022374
138.990419,5551.544565,11621.233289,0.000000
138.990728,-444.123565,9844.739029,-153.219100
138.991038,-4293.194464,15396.283594,3524.039291
138.991347,1110.308913,10807.006753,-2681.334243
138.991656,7105.977043,9918.759623,-12640.575717
138.991966,-222.061783,11769.274478,-6971.469032
138.992275,-4367.215058,10658.965565,6281.983084
138.992584,2220.617826,7031.956449,4749.792088
138.992894,962.267725,6291.750507,-1608.800546
138.993203,-5107.421000,9474.636058,6971.469032
138.993512,-1776.494261,4219.173869,3677.258390
138.993822,5181.441594,6143.709319,-9039.926876
138.994131,2442.679609,6587.832884,-5056.230287
138.994440,-592.164754,13545.768739,3983.696590
138.994750,2590.720797,8142.265362,2068.457845
138.995059,370.102971,8438.347739,2451.505594
138.995368,-5773.606348,12361.439231,7354.516781
138.995678,518.144159,11473.192101,-1532.190996
138.995987,5329.482782,7179.997637,-9193.145976
138.996297,-2516.700203,10881.027347,-4519.963438
138.996606,-3701.029710,14508.036463,153.219100
138.996915,-592.164754,11103.089130,-2145.067394
138.997225,3849.070898,13619.789333,-6205.373534
138.997534,-2664.741391,11843.295072,3140.991542
138.997843,-2960.823768,11473.192101,7660.954980
138.998153,2590.720797,2516.700203,-2834.553343
138.998462,5107.421000,6957.935855,-9039.926876
138.998771,-2072.576638,4367.215058,2145.067394
138.999081,-2368.659014,5551.544565,8044.002729
138.999390,4293.194464,6143.709319,-536.266849
138.999699,2960.823768,8438.347739,-1685.410096
139.000009,-1702.473667,10214.842000,3370.820191
139.000318,-2738.761985,9326.594869,-3983.696590
139.000627,5921.647536,9770.718434,-9422.974625
139.000937,1850.514855,9770.718434,-5286.058936
139.001246,-6957.935855,13545.768739,2987.772442
139.001555,5477.523971,11843.295072,3983.696590
139.001865,1850.514855,9844.739029,-3983.696590
139.002174,-5329.482782,12879.583391,2681.334243
139.002484,-3108.864956,11843.295072,5056.230287
139.002793,5181.441594,6291.750507,-9193.145976
139.003102,2516.700203,16802.674883,-12257.527968
139.003412,-5551.544565,12731.542202,1915.238745
139.003721,-1850.514855,6957.935855,3064.381992
139.004030,4441.235652,9548.656652,-4213.525239
139.004340,-518.144159,4663.297435,1532.190996
139.004649,-4589.276840,2220.617826,7048.078582
139.004958,2590.720797,3404.947333,-3370.820191
139.005268,5255.462188,7402.059420,-9346.365076
139.005577,-2442.679609,7772.162391,3447.429741
139.005886,888.247130,8142.265362,4519.963438
139.006196,-1110.308913,8438.347739,-612.876398
139.006505,7772.162391,10362.883188,0.000000
139.006814,-5477.523971,9844.739029,2145.067394
139.007124,-5773.606348,7105.977043,536.266849
139.007433,2146.597232,12805.562797,-612.876398
139.007742,-1332.370696,15026.180623,-8503.660028
139.008052,1036.288319,13323.706956,-8810.098227
139.008361,962.267725,15100.201217,153.219100
139.008671,-2294.638420,12879.583391,2068.457845
139.008980,-1480.411884,11769.274478,1455.581446
139.009289,2812.782580,10214.842000,4826.401637
139.009599,-0.000000,8882.471304,-2604.724693
139.009908,2516.700203,7031.956449,-5056.230287
139.010217,-1184.329507,9104.533087,1378.971896
139.010527,2220.617826,8956.491898,153.219100
139.010836,6217.729913,7254.018232,-2911.162892
139.011145,740.205942,4959.379811,4596.572988
139.011455,-5329.482782,9918.759623,10572.117872
139.011764,-4071.132681,4811.338623,-4979.620737
139.012073,5403.503377,9844.739029,-9116.536426
139.012383,-3478.967927,13471.748144,-3830.477490
139.012692,-3849.070898,12139.377449,689.485948
139.013001,4293.194464,8586.388927,-1072.533697
139.013311,-592.164754,9104.533087,-1378.971896
139.013620,-3997.112087,10881.027347,7201.297681
139.013929,-4145.153275,11029.068536,6665.030833
139.014239,1702.473667,9474.636058,-5975.544884
139.014548,2146.597232,11399.171507,-9193.145976
139.014858,-1110.308913,10807.006753,-4366.744339
139.015167,-2664.741391,10955.047942,-306.438199
139.015476,3627.009116,8734.430116,-2451.505594
139.015786,-0.000000,3478.967927,1915.238745
139.016095,-888.247130,5107.421000,9269.755526
139.016404,-2738.761985,3108.864956,4290.134789
139.016714,4959.379811,7846.182985,-3753.867940
139.017023,1850.514855,7624.121203,-6588.421283
139.017332,-444.123565,9844.739029,-842.705048
139.017642,1554.432478,10955.047942,1685.410096
139.017951,-962.267725,8438.347739,1302.362347
139.018260,-444.123565,12657.521608,3064.381992
139.018570,-2960.823768,10362.883188,-383.047749
139.018879,-2072.576638,14582.057057,-5898.935335
139.019188,-1036.288319,11917.315666,-5592.497135
139.019498,-2220.617826,14211.954086,-3907.087040
139.019807,1850.514855,15248.242405,-4903.011187
139.020117,1850.514855,6143.709319,-5362.668486
139.020426,-888.247130,10362.883188,3217.601092
139.020735,-7179.997637,10955.047942,6128.763984
139.021045,4811.338623,7698.141797,-1991.848295
139.021354,2442.679609,5995.668130,-5286.058936
139.021663,-6809.894666,5921.647536,0.000000
139.021973,-2738.761985,5255.462188,2374.896044
139.022282,9474.636058,2072.576638,-11338.213370
139.022591,5847.626942,6217.729913,-10189.070123
139.022901,-7105.977043,7328.038826,10112.460574
139.023210,-2886.803174,10881.027347,8580.269578
139.023519,4219.173869,9770.718434,-4290.134789
139.023829,222.061783,8586.388927,-6052.154434
139.024138,-3627.009116,12805.562797,689.485948
139.024447,-1258.350101,8142.265362,-5898.935335
139.024757,5921.647536,9918.759623,-12027.699319
139.025066,-1036.288319,18061.024985,-3140.991542
139.025375,-4663.297435,12139.377449,4979.620737
139.025685,-0.000000,13471.748144,1225.752797
139.025994,222.061783,11399.171507,-7737.564530
139.026304,1554.432478,7476.080014,-1072.533697
139.026613,-148.041188,7550.100608,-3294.210641
139.026922,5181.441594,3034.844362,-6741.640382
139.027232,-1850.514855,3701.029710,2757.943793
139.027541,-3182.885551,7698.141797,7814.174080
139.027850,2368.659014,6661.853478,-919.314598
139.028160,592.164754,8512.368333,-4060.306139
139.028469,-3182.885551,11473.192101,-1915.238745
139.028778,1702.473667,7105.977043,-4596.572988
139.029088,5033.400406,6957.935855,-7584.345430
139.029397,-5033.400406,10436.903782,1915.238745
139.029706,-2368.659014,11029.068536,9039.926876
139.030016,4737.318029,14063.912898,-3524.039291
139.030325,-148.041188,9770.718434,-9576.193725
139.030634,-5921.647536,11029.068536,5362.668486
139.030944,-740.205942,12731.542202,1685.410096
139.031253,4293.194464,12287.418637,-14019.547613
139.031562,-0.000000,5773.606348,-6511.811733
139.031872,-5255.462188,11029.068536,8120.612279
139.032181,-2294.638420,11251.130318,229.828649
139.032491,5477.523971,8364.327145,-8963.317327
139.032800,1850.514855,8364.327145,-2451.505594
139.033109,-3701.029710,6513.812290,7048.078582
139.033419,1628.453072,6513.812290,5056.230287
139.033728,4293.194464,6661.853478,-919.314598
139.034037,518.144159,6143.709319,-612.876398
139.034347,-4219.173869,10955.047942,1915.238745
139.034656,-1036.288319,9696.697840,-5056.230287
139.034965,5107.421000,10807.006753,-8963.317327
139.035275,-0.000000,15470.304188,-6052.154434
139.035584,-3775.050304,14508.036463,3677.258390
139.035893,-2664.741391,11695.253884,3600.648841
139.036203,888.247130,8734.430116,-612.876398
139.036512,-1110.308913,12065.356855,766.095498
139.036821,-962.267725,12731.542202,-4213.525239
139.037131,740.205942,5847.626942,-7431.126331
139.037440,-1702.473667,8216.285956,-1378.971896
139.037749,-1184.329507,8660.409521,1532.190996
139.038059,2738.761985,10066.800811,-3140.991542
139.038368,592.164754,6587.832884,-1685.410096
139.038678,-2368.659014,9252.574275,6818.249932
139.038987,-2590.720797,7031.956449,2145.067394
139.039296,4885.359217,5773.606348,-8810.098227
139.039606,148.041188,7031.956449,-2987.772442
139.039915,-1480.411884,9252.574275,306.438199
139.040224,666.185348,7254.018232,-4136.915689
139.040534,3330.926739,9844.739029,-3294.210641
139.040843,-4071.132681,12065.356855,4979.620737
139.041152,-1332.370696,11917.315666,1685.410096
139.041462,2516.700203,9548.656652,-6588.421283
139.041771,518.144159,12805.562797,-3600.648841
139.042080,-0.000000,14063.912898,-3370.820191
139.042390,-0.000000,11325.150913,-2068.457845
139.042699,3330.926739,11473.192101,-2987.772442
139.043008,-1702.473667,7402.059420,-229.828649
139.043318,-6661.853478,9400.615463,4519.963438
139.043627,1628.453072,7550.100608,-2757.943793
139.043936,3034.844362,5551.544565,-10725.336972
139.044246,1776.494261,10362.883188,-4903.011187
139.044555,-3256.906145,7994.224174,5745.716235
139.044865,518.144159,5847.626942,76.609550
139.045174,4885.359217,6957.935855,-5898.935335
139.045483,-1554.432478,8512.368333,689.485948
139.045793,-3404.947333,6957.935855,7890.783629
139.046102,3034.844362,12213.398043,-766.095498
139.046411,814.226536,10732.986159,-7431.126331
139.046721,-3108.864956,8734.430116,-3370.820191
139.047030,444.123565,11399.171507,-4213.525239
139.047339,2516.700203,10436.903782,-9193.145976
139.047649,1332.370696,12065.356855,-2604.724693
139.047958,-1628.453072,13471.748144,2298.286494
139.048267,-2664.741391,11917.315666,1225.752797
139.048577,-592.164754,7105.977043,-306.438199
139.048886,1258.350101,7031.956449,-3983.696590
139.049195,296.082377,9474.636058,-6741.640382
139.049505,2812.782580,3627.009116,-7277.907231
139.049814,-1628.453072,7179.997637,229.828649
139.050124,-1258.350101,7772.162391,4903.011187
139.050433,3849.070898,10288.862594,2068.457845
139.050742,592.164754,9622.677246,-2604.724693
139.051052,-296.082377,9770.718434,76.609550
139.051361,-222.061783,8808.450710,1685.410096
139.051670,-518.144159,6439.791695,-7124.688131
139.051980,5255.462188,8512.368333,-6971.469032
139.052289,-3701.029710,8808.450710,1532.190996
139.052598,-6587.832884,13693.809927,6435.202183
139.052908,3775.050304,13175.665768,-3983.696590
139.053217,-3330.926739,12583.501014,-6894.859482
139.053526,-2960.823768,10807.006753,383.047749
139.053836,-1036.288319,10288.862594,-1762.019645
139.054145,4959.379811,13027.624579,-9576.193725
139.054454,148.041188,8734.430116,-3217.601092
139.054764,-4145.153275,10436.903782,6818.249932
139.055073,-962.267725,9992.780217,3140.991542
139.055382,518.144159,3701.029710,-3677.258390
139.055692,962.267725,6883.915261,-1225.752797
139.056001,740.205942,6809.894666,-383.047749
139.056311,1924.535449,6069.688724,-7354.516781
139.056620,1480.411884,6365.771101,1532.190996
139.056929,-5033.400406,8216.285956,7431.126331
139.057239,-444.123565,10436.903782,0.000000
139.057548,518.144159,9252.574275,-5898.935335
139.057857,-0.000000,13915.871710,-5439.278036
139.058167,-962.267725,14137.933492,-5745.716235
139.058476,1776.494261,11843.295072,-5669.106685
139.058785,592.164754,12287.418637,-842.705048
139.059095,-2294.638420,11177.109724,3140.991542
139.059404,-1998.556043,6365.771101,3370.820191
139.059713,-814.226536,9030.512492,-6511.811733
139.060023,1332.370696,8586.388927,-7507.735880
139.060332,2368.659014,13397.727550,-1532.190996
139.060641,-74.020594,9548.656652,-1838.629195
139.060951,5181.441594,10807.006753,-3217.601092
139.061260,1406.391290,4293.194464,2298.286494
139.061569,-4441.235652,6291.750507,8810.098227
139.061879,-2072.576638,7402.059420,919.314598
139.062188,5847.626942,4589.276840,-10035.851024
139.062498,-1184.329507,7698.141797,-8044.002729
139.062807,-2294.638420,12879.583391,76.609550
139.063116,2368.659014,9992.780217,-6741.640382
139.063426,1998.556043,9696.697840,-2374.896044
139.063735,-1850.514855,13397.727550,6435.202183
139.064044,-4293.194464,9400.615463,5975.544884
139.064354,2368.659014,9622.677246,-5822.325785
139.064663,-0.000000,7772.162391,-5898.935335
139.064972,-1258.350101,13545.768739,-5669.106685
139.065282,592.164754,11103.089130,-7277.907231
139.065591,814.226536,9548.656652,-4673.182538
139.065900,-1110.308913,4145.153275,4979.620737
139.066210,-0.000000,9400.615463,7201.297681
139.066519,-1036.288319,12065.356855,-306.438199
139.066828,1406.391290,7772.162391,-1149.143247
139.067138,222.061783,8882.471304,-3217.601092
139.067447,3478.967927,7328.038826,-7967.393179
139.067756,4515.256246,7254.018232,-8503.660028
139.068066,-1776.494261,7624.121203,3217.601092
139.068375,-3330.926739,9400.615463,9422.974625
139.068685,-3256.906145,11177.109724,3217.601092
139.068994,3256.906145,11843.295072,-5669.106685
139.069303,740.205942,8438.347739,-5286.058936
139.069613,-1480.411884,9030.512492,-3217.601092
139.069922,1184.329507,11177.109724,-6894.859482
139.070231,1480.411884,7772.162391,-3677.258390
139.070541,-2812.782580,8882.471304,4749.792088
139.070850,-5847.626942,13397.727550,8580.269578
139.071159,592.164754,13101.645173,-766.095498
139.071469,2960.823768,6957.935855,-7277.907231
139.071778,-2368.659014,13915.871710,-5362.668486
139.072087,1702.473667,7772.162391,-2834.553343
139.072397,370.102971,5551.544565,-4903.011187
139.072706,3923.091493,6883.915261,995.924147
139.073015,-6069.688724,9844.739029,10572.117872
139.073325,-2220.617826,11473.192101,5362.668486
139.073634,-1258.350101,7402.059420,-1149.143247
139.073943,5477.523971,9474.636058,-6894.859482
139.074253,-1036.288319,9178.553681,-4749.792088
139.074562,370.102971,8734.430116,-3064.381992
139.074872,3182.885551,7402.059420,-3447.429741
139.075181,-2442.679609,11769.274478,0.000000
139.075490,-1332.370696,14211.954086,8120.612279
139.075800,-1480.411884,11103.089130,4519.963438
139.076109,3923.091493,12213.398043,-5515.887586
139.076418,-666.185348,10140.821405,-2068.457845
139.076728,-2738.761985,12213.398043,153.219100
139.077037,3478.967927,12805.562797,-9193.145976
139.077346,814.226536,10955.047942,-11874.480219
139.077656,-9104.533087,9030.512492,7201.297681
139.077965,740.205942,14359.995275,5439.278036
139.078274,6513.812290,5255.462188,-13253.452115
139.078584,-518.144159,6809.894666,-1838.629195
139.078893,-8512.368333,8068.244768,15934.786358
139.079202,7402.059420,2960.823768,-3294.210641
139.079512,7105.977043,1924.535449,-15015.471761
139.079821,-6291.750507,10881.027347,6665.030833
139.080131,-6883.915261,10732.986159,9959.241474
139.080440,5847.626942,8956.491898,-11031.775171
139.080749,3108.864956,12435.459826,-11721.261119
139.081059,-8216.285956,7994.224174,9193.145976
139.081368,2368.659014,10658.965565,-1149.143247
139.081677,5921.647536,8956.491898,-19995.092498
139.081987,-6439.791695,11103.089130,3677.258390
139.082296,-5551.544565,13619.789333,12180.918418
139.082605,4811.338623,15470.304188,-12487.356617
139.082915,7254.018232,11843.295072,-14632.424012
139.083224,-8290.306550,9770.718434,7048.078582
139.083533,-888.247130,10288.862594,2681.334243
139.083843,9548.656652,8364.327145,-13559.890315
139.084152,1184.329507,1258.350101,1378.971896
139.084461,-7105.977043,4959.379811,14249.376263
139.084771,2516.700203,8438.347739,0.000000
139.085080,8364.327145,5995.668130,-14172.766713
139.085389,-2220.617826,5921.647536,-995.924147
139.085699,-3182.885551,11917.315666,4903.011187
139.086008,4589.276840,11251.130318,-5898.935335
139.086318,3330.926739,7994.224174,-6435.202183
139.086627,-5847.626942,11029.068536,8350.440928
139.086936,-2146.597232,11621.233289,2911.162892
139.087246,1850.514855,11103.089130,-7277.907231
139.087555,-2220.617826,11399.171507,-2451.505594
139.087864,-4219.173869,11769.274478,766.095498
139.088174,4737.318029,12139.377449,-7967.393179
139.088483,1628.453072,9474.636058,-7890.783629
139.088792,-1702.473667,10658.965565,4366.744339
139.089102,-4219.173869,10140.821405,7354.516781
139.089411,2664.741391,5625.565159,-2757.943793
139.089721,5403.503377,2442.679609,-7124.688131
139.090030,-3997.112087,4293.194464,-153.219100
139.090339,-1628.453072,4441.235652,6511.811733
139.090649,5329.482782,8142.265362,-3064.381992
139.090958,5773.606348,8660.409521,-8656.879127
139.091267,-4959.379811,10362.883188,4749.792088
139.091577,-3182.885551,11917.315666,9806.022374
139.091886,1776.494261,12509.480420,-6818.249932
139.092196,4737.318029,12805.562797,-13023.623466
139.092505,-5995.668130,11251.130318,2987.772442
139.092814,1406.391290,13249.686362,1608.800546
139.093124,3849.070898,12287.418637,-10189.070123
139.093433,-6957.935855,9696.697840,2681.334243
139.093743,-5773.606348,12435.459826,13483.280765
139.094052,2886.803174,11695.253884,-7507.735880
139.094361,7031.956449,9104.533087,-16317.834107
139.094671,-8438.347739,8660.409521,2374.896044
139.094980,-1258.350101,9178.553681,3524.039291
139.095290,7920.203579,7105.977043,-12334.137518
139.095599,1702.473667,5033.400406,-612.876398
139.095908,-4959.379811,4811.338623,17850.025103
139.096218,4515.256246,5699.585753,3217.601092
139.096527,5477.523971,3849.070898,-10572.117872
139.096837,-2220.617826,8364.327145,3753.867940
139.097146,-3478.967927,9474.636058,919.314598
139.097455,2294.638420,11547.212695,-9499.584175
139.097765,1850.514855,11251.130318,-4673.182538
139.098074,-6587.832884,12435.459826,3064.381992
139.098384,2664.741391,15174.221811,-2604.724693
139.098693,4663.297435,12879.583391,-919.314598
139.099002,-4515.256246,10955.047942,2987.772442
139.099312,-962.267725,10881.027347,-306.438199
139.099621,4071.132681,7772.162391,-4443.353888
139.099931,2590.720797,10214.842000,-2221.676944
139.100240,444.123565,9252.574275,2298.286494
139.100549,-2812.782580,8882.471304,2528.115143
139.100859,1258.350101,10807.006753,2374.896044
139.101168,7402.059420,5625.565159,-9039.926876
139.101478,-3330.926739,5699.585753,-6741.640382
139.101787,-4145.153275,3182.885551,9806.022374
139.102096,1184.329507,9548.656652,3830.477490
139.102406,5107.421000,7031.956449,-9729.412825
139.102715,-4737.318029,8216.285956,5362.668486
139.103025,-5625.565159,13175.665768,8273.831378
139.103334,6365.771101,7846.182985,-15245.300410
139.103643,6069.688724,11769.274478,-12027.699319
139.103953,-7698.141797,12213.398043,9269.755526
139.104262,-370.102971,14952.160028,1532.190996
139.104571,2220.617826,14359.995275,-8810.098227
139.104881,148.041188,8808.450710,4979.620737
139.105190,-5847.626942,11843.295072,6665.030833
139.105500,3034.844362,7105.977043,-8886.707777
139.105809,74.020594,6217.729913,-6511.811733
139.106118,-0.000000,9474.636058,1378.971896
139.106428,-814.226536,6365.771101,-5439.278036
139.106737,2368.659014,10658.965565,-3600.648841
139.107047,-518.144159,5181.441594,5286.058936
139.107356,-6143.709319,8142.265362,5439.278036
139.107665,2146.597232,8660.409521,919.314598
139.107975,4441.235652,7402.059420,-6971.469032
139.108284,1850.514855,8882.471304,-9116.536426
139.108594,-1850.514855,4737.318029,995.924147
139.108903,-1258.350101,12287.418637,4903.011187
139.109212,2738.761985,10955.047942,-1149.143247
139.109522,-2368.659014,11695.253884,5056.230287
139.109831,-3182.885551,10214.842000,9039.926876
139.110141,6217.729913,9844.739029,-9959.241474
139.110450,-814.226536,7105.977043,-11414.822920
139.110759,-8216.285956,13619.789333,3907.087040
139.111069,2664.741391,14730.098246,-2374.896044
139.111378,5773.606348,9770.718434,-11491.432470
139.111688,-5551.544565,15544.324782,6435.202183
139.111997,-5625.565159,9252.574275,13942.938064
139.112306,7254.018232,8660.409521,-8044.002729
139.112616,2812.782580,2368.659014,-9346.365076
139.112925,-6291.750507,5329.482782,7354.516781
139.113235,-2738.761985,7254.018232,4596.572988
139.113544,7402.059420,6883.915261,-9576.193725
139.113853,4959.379811,6661.853478,-153.219100
139.114163,-7624.121203,9844.739029,12257.527968
139.114472,-2664.741391,8882.471304,4366.744339
139.114782,5181.441594,6661.853478,-9116.536426
139.115091,-814.226536,10584.944971,-9039.926876
139.115400,-1998.556043,8660.409521,229.828649
139.115710,-1184.329507,11621.233289,153.219100
139.116019,1998.556043,15396.283594,-3447.429741
139.116329,-3775.050304,11399.171507,4290.134789
139.116638,-1184.329507,15470.304188,9116.536426
139.116947,4441.235652,14804.118840,-7354.516781
139.117257,222.061783,7328.038826,-15398.519510
139.117566,-4071.132681,12657.521608,2757.943793
139.117876,148.041188,9030.512492,-1149.143247
139.118185,9252.574275,4515.256246,-7124.688131
139.118494,-4737.318029,7624.121203,6435.202183
139.118804,-5033.400406,4145.153275,14785.643111
139.119113,3330.926739,5255.462188,-3370.820191
139.119422,5181.441594,8068.244768,-12257.527968
139.119732,-7179.997637,7698.141797,-842.705048
139.120041,-74.020594,8290.306550,2145.067394
139.120351,6587.832884,12657.521608,-8273.831378
139.120660,2516.700203,9326.594869,-2604.724693
139.120969,-3478.967927,8068.244768,10189.070123
139.121279,-3478.967927,7105.977043,5439.278036
139.121588,2442.679609,10881.027347,-2528.115143
139.121898,1776.494261,11695.253884,-5286.058936
139.122207,-2960.823768,11991.336260,-5975.544884
139.122516,2812.782580,11251.130318,-7354.516781
139.122826,1110.308913,10732.986159,-5362.668486
139.123135,-4293.194464,11103.089130,1455.581446
139.123445,-4515.256246,9104.533087,5515.887586
139.123754,3478.967927,8586.388927,-3447.429741
139.124063,4811.338623,4515.256246,-4673.182538
139.124373,1184.329507,4219.173869,3447.429741
139.124682,-814.226536,4663.297435,2911.162892
139.124992,4737.318029,12435.459826,-4596.572988
139.125301,4515.256246,5551.544565,-459.657299
139.125610,-7402.059420,10436.903782,10418.898773
139.125920,1776.494261,8142.265362,76.609550
139.126229,6809.894666,7772.162391,-13023.623466
139.126539,-3404.947333,11917.315666,-7354.516781
139.126848,-3108.864956,9178.553681,1915.238745
139.127157,2072.576638,10881.027347,-3140.991542
139.127467,-1184.329507,11399.171507,-842.705048
139.127776,-4959.379811,14952.160028,9499.584175
139.128086,-1258.350101,9104.533087,2145.067394
139.128395,3478.967927,9104.533087,-11568.042020
139.128704,1406.391290,7846.182985,-7277.907231
139.129014,-2590.720797,5033.400406,536.266849
139.129323,888.247130,7994.224174,-919.314598
139.129633,1998.556043,11029.068536,-2145.067394
139.129942,1702.473667,6735.874072,5515.887586
139.130251,-3256.906145,8734.430116,11721.261119
139.130561,-814.226536,11843.295072,306.438199
139.130870,5477.523971,6217.729913,-12717.185267
139.131180,-2294.638420,7698.141797,-6894.859482
139.131489,-1480.411884,10807.006753,-1378.971896
139.131798,-2220.617826,10584.944971,-4519.963438
139.132108,3182.885551,12583.501014,-6205.373534
139.132417,-3478.967927,11325.150913,6741.640382
139.132726,-2886.803174,10584.944971,6205.373534
139.133036,5921.647536,10807.006753,-1072.533697
139.133345,592.164754,11325.150913,-4366.744339
139.133655,-3849.070898,13915.871710,0.000000
139.133964,222.061783,11473.192101,-1991.848295
139.134273,3997.112087,7772.162391,-9346.365076
139.134583,-4367.215058,9844.739029,-383.047749
139.134892,-2590.720797,8956.491898,3907.087040
139.135202,1628.453072,6143.709319,-3753.867940
139.135511,-3627.009116,6217.729913,-4213.525239
139.135820,-1258.350101,5995.668130,3064.381992
139.136130,-0.000000,4885.359217,-1455.581446
139.136439,8512.368333,11843.295072,-6052.154434
139.136749,-3256.906145,8216.285956,5286.058936
139.137058,-3330.926739,10881.027347,7201.297681
139.137367,5625.565159,9178.553681,-6741.640382
139.137677,888.247130,9548.656652,-7354.516781
139.137986,-3923.091493,15840.407159,-1532.190996
139.138296,-2812.782580,9992.780217,-3524.039291
139.138605,4145.153275,14582.057057,-7431.126331
139.138914,1036.288319,14359.995275,-2987.772442
139.139224,-1110.308913,13027.624579,2298.286494
139.139533,-4515.256246,7105.977043,4366.744339
139.139843,3404.947333,11251.130318,-2451.505594
139.140152,-3552.988522,3404.947333,-2911.162892
139.140461,-2812.782580,5551.544565,1915.238745
139.140771,2812.782580,10807.006753,-2221.676944
139.141080,3330.926739,4515.256246,-8963.317327
139.141390,814.226536,9918.759623,4596.572988
139.141699,-5699.585753,12805.562797,7967.393179
139.142008,5329.482782,9326.594869,-6511.811733
139.142318,4071.132681,5625.565159,-7507.735880
139.142627,-6809.894666,6513.812290,1302.362347
139.142937,1184.329507,7105.977043,-612.876398
139.143246,3997.112087,10807.006753,-7737.564530
139.143555,-2442.679609,9474.636058,1532.190996
139.143865,-7254.018232,11473.192101,9806.022374
139.144174,1998.556043,14804.118840,-5592.497135
139.144484,5033.400406,6809.894666,-13023.623466
139.144793,-1406.391290,9992.780217,1149.143247
139.145102,-5625.565159,10881.027347,6358.592633
139.145412,3775.050304,11177.109724,-5286.058936
139.145721,5033.400406,9696.697840,-4213.525239
139.146030,-2812.782580,10955.047942,7890.783629
139.146340,-2516.700203,8068.244768,3217.601092
139.146649,4219.173869,9474.636058,-8656.879127
139.146959,-1406.391290,9030.512492,-6971.469032
139.147268,-1110.308913,9030.512492,2068.457845
139.147577,1332.370696,8956.491898,153.219100
139.147887,2590.720797,13175.665768,-4596.572988
139.148196,-1406.391290,8734.430116,2298.286494
139.148506,-0.000000,6365.771101,4979.620737
139.148815,518.144159,5033.400406,-1838.629195
139.149124,-1406.391290,9622.677246,-3217.601092
139.149434,296.082377,11399.171507,-1378.971896
139.149743,-592.164754,11695.253884,-5898.935335
139.150053,2146.597232,15248.242405,-5898.935335
139.150362,-3627.009116,11251.130318,2757.943793
139.150671,-3182.885551,10436.903782,2145.067394
139.150981,2516.700203,5403.503377,-3064.381992
139.151290,-222.061783,8512.368333,-2298.286494
139.151600,-3923.091493,7105.977043,459.657299
139.151909,-592.164754,9844.739029,-1532.190996
139.152218,3849.070898,13471.748144,-6281.983084
139.152528,222.061783,11473.192101,-3064.381992
139.152837,2294.638420,10140.821405,4749.792088
139.153147,-3552.988522,6661.853478,-383.047749
139.153456,1924.535449,7550.100608,-4443.353888
139.153765,-2516.700203,5033.400406,-1991.848295
139.154075,-1332.370696,4367.215058,-2068.457845
139.154384,296.082377,6143.709319,-4979.620737
139.154694,592.164754,15692.365970,-766.095498
139.155003,-2294.638420,10955.047942,2298.286494
139.155312,-1554.432478,14359.995275,1608.800546
139.155622,2368.659014,13471.748144,-4596.572988
139.155931,888.247130,6587.832884,-4596.572988
139.156241,-6069.688724,9918.759623,-2145.067394
139.156550,-1332.370696,9326.594869,-2221.676944
139.156859,2442.679609,8734.430116,-6894.859482
139.157169,3108.864956,11177.109724,1532.190996
139.157478,-3034.844362,11325.150913,5056.230287
139.157788,-1554.432478,7254.018232,2604.724693
139.158097,1036.288319,10288.862594,-2528.115143
139.158406,1628.453072,7550.100608,-4673.182538
139.158716,-740.205942,4737.318029,-2221.676944
139.159025,-2146.597232,5181.441594,-2987.772442
139.159335,-370.102971,7105.977043,153.219100
139.159644,-1332.370696,8660.409521,3294.210641
139.159953,-148.041188,11251.130318,2604.724693
139.160263,740.205942,14063.912898,-2145.067394
139.160572,2220.617826,7624.121203,-4366.744339
139.160881,666.185348,12139.377449,-3677.258390
139.161191,-2368.659014,14359.995275,-5286.058936
139.161500,2664.741391,11991.336260,-9346.365076
139.161810,-3701.029710,9400.615463,3830.477490
139.162119,962.267725,10658.965565,4443.353888
139.162428,-666.185348,8586.388927,-2221.676944
139.162738,1184.329507,9622.677246,-4366.744339
139.163047,-2664.741391,8882.471304,-1762.019645
139.163357,-518.144159,7846.182985,-3907.087040
139.163666,2664.741391,9474.636058,-7660.954980
139.163975,1702.473667,6883.915261,-1838.629195
139.164285,-222.061783,8512.368333,7277.907231
139.164594,-2220.617826,5033.400406,4213.525239
139.164904,1184.329507,7105.977043,-2451.505594
139.165213,518.144159,3775.050304,-3524.039291
139.165522,592.164754,11029.068536,-3370.820191
139.165832,-1554.432478,9252.574275,2145.067394
139.166141,-1110.308913,11991.336260,-459.657299
139.166451,-592.164754,13175.665768,3140.991542
139.166760,-2664.741391,10732.986159,2145.067394
139.167069,148.041188,10807.006753,-4366.744339
139.167379,-1628.453072,8290.306550,-5898.935335
139.167688,-2368.659014,12657.521608,-3600.648841
139.167998,-296.082377,11029.068536,-3830.477490
139.168307,2146.597232,11621.233289,-3447.429741
139.168616,1036.288319,11399.171507,-2528.115143
139.168926,-3997.112087,11843.295072,3294.210641
139.169235,370.102971,5995.668130,3677.258390
139.169545,4219.173869,3108.864956,-3140.991542
139.169854,148.041188,7179.997637,-3907.087040
139.170163,-2886.803174,3775.050304,5975.544884
139.170473,-1258.350101,8068.244768,842.705048
139.170782,814.226536,11325.150913,-2145.067394
139.171092,1406.391290,12657.521608,1762.019645
139.171401,-3775.050304,12805.562797,-2221.676944
139.171710,2072.576638,11843.295072,-6971.469032
139.172020,222.061783,10955.047942,-7201.297681
139.172329,-666.185348,8808.450710,-1455.581446
139.172639,-1258.350101,11251.130318,1608.800546
139.172948,3627.009116,8438.347739,766.095498
139.173257,-444.123565,8290.306550,5132.839837
139.173567,-370.102971,13175.665768,4903.011187
139.173876,-74.020594,5107.421000,-5592.497135
139.174185,-0.000000,9918.759623,-8503.660028
139.174495,2886.803174,8734.430116,-4826.401637
139.174804,-2664.741391,4441.235652,-4443.353888
139.175114,-0.000000,10584.944971,842.705048
139.175423,666.185348,8068.244768,5209.449386
139.175732,-2368.659014,7846.182985,7354.516781
139.176042,2146.597232,7550.100608,1149.143247
139.176351,-962.267725,8660.409521,-5822.325785
139.176661,370.102971,7846.182985,-8044.002729
139.176970,1702.473667,13249.686362,-7584.345430
139.177279,888.247130,10288.862594,-5286.058936
139.177589,1258.350101,14137.933492,1378.971896
139.177898,-1554.432478,13767.830521,7507.735880
139.178208,-1628.453072,9326.594869,4979.620737
139.178517,4145.153275,7550.100608,229.828649
139.178826,-740.205942,6439.791695,-3753.867940
139.179136,-814.226536,13323.706956,-7201.297681
139.179445,1998.556043,7402.059420,-8963.317327
139.179755,-222.061783,12509.480420,-9422.974625
139.180064,814.226536,11251.130318,536.266849
139.180373,-1332.370696,11621.233289,7354.516781
139.180683,666.185348,7846.182985,1991.848295
139.180992,592.164754,7328.038826,-2604.724693
139.181302,2664.741391,4293.194464,-2451.505594
139.181611,2146.597232,4441.235652,-4903.011187
139.181920,-592.164754,8808.450710,-2068.457845
139.182230,2368.659014,10807.006753,-153.219100
139.182539,370.102971,11843.295072,3064.381992
139.182849,-4515.256246,11103.089130,3370.820191
139.183158,592.164754,8438.347739,-3064.381992
139.183467,-2294.638420,10955.047942,-7660.954980
139.183777,592.164754,8808.450710,-7967.393179
139.184086,-0.000000,8290.306550,-3753.867940
139.184396,-740.205942,12139.377449,-306.438199
139.184705,740.205942,8512.368333,5362.668486
139.185014,-2294.638420,11621.233289,7354.516781
139.185324,-1110.308913,9696.697840,1838.629195
139.185633,2886.803174,8438.347739,-5822.325785
139.185943,-1036.288319,11473.192101,-7354.516781
139.186252,-3034.844362,9252.574275,-4749.792088
139.186561,2664.741391,10732.986159,-3677.258390
139.186871,-370.102971,8956.491898,-1685.410096
139.187180,4145.153275,8216.285956,6205.373534
139.187489,-6365.771101,7179.997637,7124.688131
139.187799,3404.947333,12805.562797,-1532.190996
139.188108,5551.544565,5329.482782,-9806.022374
139.188418,296.082377,7402.059420,-7584.345430
139.188727,-1702.473667,8956.491898,1915.238745
139.189036,2516.700203,11029.068536,76.609550
139.189346,-888.247130,9252.574275,4213.525239
139.189655,-3108.864956,8808.450710,6588.421283
139.189965,3627.009116,9844.739029,612.876398
139.190274,4811.338623,11325.150913,-8120.612279
139.190583,-3775.050304,12139.377449,-4213.525239
139.190893,-2294.638420,9252.574275,1149.143247
139.191202,1332.370696,15026.180623,-6128.763984
139.191512,4959.379811,12879.583391,-5439.278036
139.191822,-4811.338623,7772.162391,6971.469032
139.192131,-4219.173869,9400.615463,2298.286494
139.192441,6143.709319,7772.162391,-9576.193725
139.192750,3701.029710,8364.327145,-4060.306139
139.193060,-1850.514855,8068.244768,3600.648841
139.193369,2220.617826,7772.162391,0.000000
139.193679,5477.523971,10288.862594,-3830.477490
139.193989,-222.061783,7105.977043,8044.002729
139.194298,-4663.297435,7476.080014,12563.966167
139.194608,2886.803174,10288.862594,-5056.230287
139.194917,2072.576638,6587.832884,-9193.145976
139.195227,-3182.885551,9474.636058,-2298.286494
139.195536,-222.061783,10881.027347,-4749.792088
139.195846,2442.679609,12731.542202,-5669.106685
139.196156,-4959.379811,14952.160028,4596.572988
139.196465,-1332.370696,13249.686362,7354.516781
139.196775,2442.679609,8290.306550,-1608.800546
139.197084,2072.576638,9770.718434,-6818.249932
139.197394,518.144159,6143.709319,-1072.533697
139.197703,-2664.741391,9400.615463,-2681.334243
139.198013,3775.050304,11843.295072,-7124.688131
139.198323,3330.926739,4885.359217,842.705048
139.198632,-1110.308913,10436.903782,5745.716235
139.198942,-5255.462188,4219.173869,5209.449386
139.199251,2368.659014,9696.697840,-1225.752797
139.199561,1406.391290,4441.235652,-5362.668486
139.199870,-74.020594,4737.318029,-4673.182538
139.200180,1924.535449,15544.324782,-6588.421283
139.200490,-518.144159,10955.047942,-3830.477490
139.200799,-148.041188,11547.212695,4826.401637
139.201109,-2146.597232,13619.789333,4826.401637
139.201418,3997.112087,12583.501014,-3064.381992
139.201728,1776.494261,7698.141797,-5132.839837
139.202037,-4219.173869,9622.677246,689.485948
139.202347,-666.185348,10288.862594,-1149.143247
139.202657,3849.070898,13619.789333,-6205.373534
139.202966,3997.112087,11177.109724,-842.705048
139.203276,-2294.638420,10584.944971,3907.087040
139.203585,518.144159,9548.656652,-995.924147
139.203895,-74.020594,5995.668130,-7201.297681
139.204204,370.102971,6809.894666,-3447.429741
139.204514,-1110.308913,8364.327145,-1378.971896
139.204824,1702.473667,6217.729913,-1762.019645
139.205133,6513.812290,10140.821405,536.266849
139.205443,-1258.350101,6883.915261,5439.278036
139.205752,-3182.885551,6291.750507,3217.601092
139.206062,1998.556043,10881.027347,153.219100
139.206372,-962.267725,9770.718434,-7277.907231
139.206681,1480.411884,15988.448347,-9652.803275
139.206991,814.226536,9770.718434,-5822.325785
139.207300,-4145.153275,14804.118840,-2145.067394
139.207610,-666.185348,12879.583391,1991.848295
139.207919,-962.267725,11399.171507,2757.943793
139.208229,2368.659014,12361.439231,766.095498
139.208539,2072.576638,5181.441594,-4979.620737
139.208848,-1702.473667,6883.915261,-4979.620737
139.209158,-0.000000,7994.224174,-306.438199
139.209467,4589.276840,8290.306550,-4673.182538
139.209777,2146.597232,11769.274478,-1149.143247
139.210086,-2146.597232,7920.203579,7431.126331
139.210396,-1628.453072,4515.256246,6435.202183
139.210706,2442.679609,11325.150913,-6818.249932
139.211015,2368.659014,4737.318029,-6435.202183
139.211325,-1332.370696,7624.121203,-1455.581446
139.211634,1036.288319,9252.574275,-7277.907231
139.211944,740.205942,8068.244768,-4060.306139
139.212253,-4959.379811,13545.768739,9882.631924
139.212563,-1776.494261,12361.439231,6281.983084
139.212873,3256.906145,9252.574275,-9193.145976
139.213182,1332.370696,11399.171507,-9499.584175
139.213492,-4885.359217,7328.038826,689.485948
139.213801,1480.411884,7994.224174,-3830.477490
139.214111,2442.679609,10584.944971,-6741.640382
139.214420,-1924.535449,12139.377449,9806.022374
139.214730,-3775.050304,7402.059420,11184.994271
139.215040,3701.029710,8956.491898,-2451.505594
139.215349,4367.215058,9326.594869,-11874.480219
139.215659,-4441.235652,3034.844362,-1455.581446
139.215968,-666.185348,6513.812290,229.828649
139.216278,1924.535449,6883.915261,-7354.516781
139.216587,2368.659014,10214.842000,306.438199
139.216897,-1702.473667,11399.171507,10801.946522
139.217207,-0.000000,8956.491898,2221.676944
139.217516,6365.771101,11843.295072,-8886.707777
139.217826,-5699.585753,7846.182985,-2068.457845
139.218135,3182.885551,9474.636058,-2221.676944
139.218445,592.164754,5847.626942,-3907.087040
139.218754,-1776.494261,14656.077652,6435.202183
139.219064,-370.102971,14359.995275,8044.002729
139.219374,-2664.741391,10288.862594,-1762.019645
139.219683,1702.473667,11991.336260,-7660.954980
139.219993,-1406.391290,7698.141797,-9729.412825
139.220302,-0.000000,8438.347739,-6511.811733
139.220612,-0.000000,8068.244768,-4443.353888
139.220921,1702.473667,5921.647536,2145.067394
139.221231,-222.061783,12213.398043,7354.516781
139.221541,-1110.308913,8438.347739,9806.022374
139.221850,3997.112087,3552.988522,3370.820191
139.222160,-296.082377,7179.997637,-5286.058936
139.222469,2664.741391,6365.771101,-6281.983084
139.222779,-1850.514855,7254.018232,-5515.887586
139.223088,2664.741391,13693.809927,-6205.373534
139.223398,-2220.617826,13619.789333,229.828649
139.223708,-1184.329507,14952.160028,6665.030833
139.224017,-2664.741391,7624.121203,1838.629195
139.224327,1628.453072,12435.459826,-5362.668486
139.224636,222.061783,9770.718434,-5132.839837
139.224946,-148.041188,6069.688724,-1762.019645
139.225255,296.082377,13471.748144,-7277.907231
139.225565,4145.153275,11029.068536,-3677.258390
139.225875,-1554.432478,13249.686362,11338.213370
139.226184,-2590.720797,10955.047942,12257.527968
139.226494,3034.844362,10807.006753,-5515.887586
139.226803,3627.009116,3182.885551,-11108.384721
139.227113,-2072.576638,1406.391290,2298.286494
139.227422,-2368.659014,10436.903782,-4903.011187
139.227732,5847.626942,9474.636058,-8427.050478
139.228042,-3330.926739,11917.315666,4826.401637
139.228351,-4589.276840,15396.283594,13789.718964
139.228661,3182.885551,8364.327145,0.000000
139.228970,1998.556043,10140.821405,-10801.946522
139.229280,-4367.215058,7698.141797,-1762.019645
139.229589,518.144159,7179.997637,-5439.278036
139.229899,3108.864956,13397.727550,-11031.775171
139.230209,2220.617826,15174.221811,5056.230287
139.230518,-6957.935855,11325.150913,14938.862211
139.230828,2516.700203,9474.636058,3524.039291
139.231137,3552.988522,5033.400406,-5286.058936
139.231447,-3552.988522,370.102971,-4366.744339
139.231756,-2812.782580,9104.533087,-6665.030833
139.232066,-740.205942,10807.006753,-13176.842566
139.232376,2294.638420,10140.821405,-3370.820191
139.232685,-1924.535449,9696.697840,9806.022374
139.232995,592.164754,16728.654289,5822.325785
139.233304,5181.441594,5995.668130,-306.438199
139.233614,-888.247130,3256.906145,2221.676944
139.233924,-3256.906145,6661.853478,-1378.971896
139.234233,2812.782580,9918.759623,-10955.165621
139.234543,1184.329507,8660.409521,-5209.449386
139.234852,-3182.885551,10140.821405,5745.716235
139.235162,-148.041188,17098.757260,4826.401637
139.235471,-1036.288319,9474.636058,-1991.848295
139.235781,-3108.864956,8290.306550,3830.477490
139.236091,-5403.503377,8290.306550,689.485948
139.236400,4293.194464,10362.883188,-14249.376263
139.236710,2664.741391,9030.512492,-12257.527968
139.237019,-444.123565,9844.739029,6435.202183
139.237329,-2812.782580,13397.727550,10495.508323
139.237638,444.123565,12879.583391,1608.800546
139.237948,1406.391290,9030.512492,-459.657299
139.238258,-1998.556043,4811.338623,-842.705048
139.238567,4737.318029,7476.080014,-12717.185267
139.238877,-3478.967927,6809.894666,-8580.269578
139.239186,-0.000000,11325.150913,612.876398
139.239496,1776.494261,11103.089130,1838.629195
139.239805,-0.000000,9548.656652,3907.087040
139.240115,1850.514855,13027.624579,7124.688131
139.240425,-740.205942,4219.173869,76.609550
139.240734,-296.082377,6735.874072,-7967.393179
139.241044,296.082377,7179.997637,-7584.345430
139.241353,1036.288319,8734.430116,-5669.106685
139.241663,962.267725,14211.954086,-689.485948
139.241972,-3108.864956,16062.468941,9959.241474
139.242282,-740.205942,15840.407159,6971.469032
139.242592,740.205942,10140.821405,-5132.839837
139.242901,444.123565,8216.285956,-4903.011187
139.243211,-1406.391290,6291.750507,-7048.078582
139.243520,-3775.050304,6587.832884,-7737.564530
139.243830,1776.494261,9474.636058,-2451.505594
139.244139,962.267725,9474.636058,3677.258390
139.244449,-1628.453072,11769.274478,5822.325785
139.244759,1110.308913,5773.606348,7890.783629
139.245068,1406.391290,4959.379811,-3370.820191
139.245378,2590.720797,8142.265362,-9959.241474
139.245687,-1850.514855,4959.379811,-8273.831378
139.245997,-740.205942,8956.491898,-1608.800546
139.246306,-0.000000,12731.542202,-1915.238745
139.246616,740.205942,13693.809927,6052.154434
139.246926,-2590.720797,12065.356855,8427.050478
139.247235,3627.009116,7550.100608,-5132.839837
139.247545,-4737.318029,8586.388927,-6818.249932
139.247854,-1480.411884,10288.862594,-3524.039291
139.248164,740.205942,7105.977043,-12180.918418
139.248473,1480.411884,16580.613101,-9652.803275
139.248783,-5995.668130,14582.057057,10342.289223
139.249093,370.102971,13767.830521,8197.221829
139.249402,7105.977043,11029.068536,-7507.735880
139.249712,-74.020594,7179.997637,-4903.011187
139.250021,1998.556043,-296.082377,2681.334243
139.250331,-2812.782580,-222.061783,-6128.763984
139.250640,5847.626942,9474.636058,-5132.839837
139.250950,1480.411884,12805.562797,3983.696590
139.251260,-2146.597232,11029.068536,6052.154434
139.251569,2368.659014,5033.400406,4060.306139
139.251879,2146.597232,11399.171507,-4213.525239
139.252188,-3701.029710,7476.080014,-4673.182538
139.252498,-4515.256246,9696.697840,-6511.811733
139.252807,4441.235652,14285.974681,-11644.651570
139.253117,2368.659014,14359.995275,-11108.384721
139.253427,-4145.153275,13175.665768,8810.098227
139.253736,1110.308913,11547.212695,8733.488677
139.254046,2442.679609,9326.594869,-2604.724693
139.254355,-5995.668130,7254.018232,5669.106685
139.254665,-148.041188,7772.162391,-766.095498
139.254974,-74.020594,4811.338623,-17466.977354
139.255284,4959.379811,11325.150913,-9806.022374
139.255594,-1406.391290,10140.821405,5439.278036
139.255903,-3997.112087,12805.562797,995.924147
139.256213,2220.617826,13693.809927,689.485948
139.256522,7179.997637,7846.182985,383.047749
139.256832,-1628.453072,4071.132681,-1302.362347
139.257141,-0.000000,7698.141797,-919.314598
139.257451,3182.885551,4663.297435,-4136.915689
139.257761,-1850.514855,8808.450710,-2451.505594
139.258070,592.164754,11843.295072,8120.612279
139.258380,1480.411884,12435.459826,612.876398
139.258689,1776.494261,16802.674883,-8886.707777
139.258999,-7105.977043,12065.356855,4903.011187
139.259309,-1628.453072,7402.059420,-3294.210641
139.259618,1628.453072,8734.430116,-19228.997000
139.259928,-0.000000,13767.830521,-3140.991542
139.260237,-5033.400406,15322.262999,11644.651570
139.260547,370.102971,9104.533087,-2604.724693
139.260856,8586.388927,13397.727550,-5056.230287
139.261166,-3330.926739,6217.729913,6205.373534
139.261476,-1702.473667,5995.668130,-2528.115143
139.261785,-0.000000,2368.659014,-7201.297681
139.262095,1184.329507,9178.553681,-919.314598
139.262404,-814.226536,7772.162391,2451.505594
139.262714,3701.029710,7254.018232,-842.705048
139.263023,-0.000000,6883.915261,1455.581446
139.263333,-4441.235652,7254.018232,4903.011187
139.263643,2812.782580,11473.192101,-2298.286494
139.263952,-740.205942,7994.224174,-9806.022374
139.264262,-1110.308913,11695.253884,-3370.820191
139.264571,-2294.638420,11473.192101,0.000000
139.264881,1480.411884,11621.233289,-3447.429741
139.265190,-3775.050304,13101.645173,-1915.238745
139.265500,1332.370696,12287.418637,4903.011187
139.265810,2960.823768,8956.491898,0.000000
139.266119,-1850.514855,12435.459826,-4060.306139
139.266429,-1998.556043,10807.006753,-2681.334243
139.266738,1036.288319,7179.997637,-5439.278036
139.267048,-148.041188,9548.656652,-5286.058936
139.267357,-1480.411884,14952.160028,-1762.019645
139.267667,2886.803174,7179.997637,-1762.019645
139.267977,-592.164754,6143.709319,-383.047749
139.268286,2516.700203,7254.018232,4136.915689
139.268596,592.164754,666.185348,-1991.848295
139.268905,3034.844362,4737.318029,1302.362347
139.269215,-1332.370696,8142.265362,2528.115143
139.269524,-2072.576638,13175.665768,-2221.676944
139.269834,2368.659014,10362.883188,-4903.011187
139.270144,-2368.659014,9400.615463,-4903.011187
139.270453,-2516.700203,15174.221811,-612.876398
139.270763,-1258.350101,17468.860231,-4596.572988
139.271072,-1850.514855,8512.368333,-5745.716235
139.271382,-1036.288319,12065.356855,0.000000
139.271691,-1480.411884,9252.574275,153.219100
139.272001,-2886.803174,10807.006753,-3064.381992
139.272311,1628.453072,7328.038826,-2374.896044
139.272620,2812.782580,9844.739029,-842.705048
139.272930,-592.164754,9252.574275,-76.609550
139.273239,-2294.638420,3404.947333,2221.676944
139.273549,3034.844362,8956.491898,-1149.143247
139.273858,1184.329507,4219.173869,-4903.011187
139.274168,-1036.288319,3627.009116,612.876398
139.274478,2368.659014,6143.709319,3677.258390
139.274787,444.123565,7846.182985,-1915.238745
139.275097,2368.659014,11695.253884,-2068.457845
139.275406,-4145.153275,7846.182985,995.924147
139.275716,5033.400406,14137.933492,-3830.477490
139.276025,1184.329507,13027.624579,-5056.230287
139.276335,-1406.391290,13175.665768,-306.438199
139.276645,-3552.988522,9252.574275,-1378.971896
139.276954,-0.000000,9252.574275,-5132.839837
139.277264,-2516.700203,10510.924376,-1378.971896
139.277573,-3775.050304,14063.912898,1072.533697
139.277883,1258.350101,13619.789333,-3370.820191
139.278192,4663.297435,9178.553681,-4596.572988
139.278502,-666.185348,7624.121203,3140.991542
139.278812,-5551.544565,9622.677246,4366.744339
139.279121,3478.967927,5773.606348,-5209.449386
139.279431,2442.679609,4663.297435,-6741.640382
139.279740,-1406.391290,7846.182985,-459.657299
139.280050,2072.576638,8586.388927,-1991.848295
139.280359,3701.029710,8734.430116,-3600.648841
139.280669,148.041188,5181.441594,7890.783629
139.280979,-4145.153275,9178.553681,11414.822920
139.281288,-592.164754,12435.459826,-2298.286494
139.281598,4663.297435,10584.944971,-6971.469032
139.281907,-592.164754,9474.636058,-1915.238745
139.282217,-4885.359217,14063.912898,-5592.497135
139.282526,-740.205942,12435.459826,-10801.946522
139.282836,1480.411884,12361.439231,-766.095498
139.283146,-4071.132681,14582.057057,4903.011187
139.283455,-370.102971,11251.130318,1685.410096
139.283765,2368.659014,7105.977043,536.266849
139.284074,2960.823768,7624.121203,2374.896044
139.284384,-1480.411884,5995.668130,-3830.477490
139.284694,-222.061783,4663.297435,-4673.182538
139.285003,2664.741391,7846.182985,-1072.533697
139.285313,-74.020594,5847.626942,3907.087040
139.285622,666.185348,13027.624579,306.438199
139.285932,-2146.597232,10362.883188,-2451.505594
139.286241,3256.906145,6587.832884,-1915.238745
139.286551,1036.288319,9696.697840,-1762.019645
139.286861,-222.061783,7105.977043,-3600.648841
139.287170,518.144159,9474.636058,-2451.505594
139.287480,-888.247130,9178.553681,5439.278036
139.287789,296.082377,15544.324782,3677.258390
139.288099,222.061783,13471.748144,-1608.800546
139.288408,592.164754,12287.418637,-4903.011187
139.288718,-3256.906145,9918.759623,-6435.202183
139.289028,-814.226536,13175.665768,-9422.974625
139.289337,592.164754,8808.450710,-8273.831378
139.289647,-0.000000,9474.636058,-612.876398
139.289956,1554.432478,12953.603985,7431.126331
139.290266,-3108.864956,7698.141797,6128.763984
139.290575,3923.091493,8512.368333,306.438199
139.290885,2146.597232,5921.647536,-995.924147
139.291194,1702.473667,4737.318029,-5132.839837
139.291504,2368.659014,2516.700203,-5515.887586
139.291813,3552.988522,8808.450710,-1762.019645
139.292123,-3404.947333,11251.130318,2604.724693
139.292432,2072.576638,11399.171507,2911.162892
139.292742,1702.473667,10066.800811,1072.533697
139.293051,-370.102971,10510.924376,-1915.238745
139.293361,-3182.885551,8956.491898,-1838.629195
139.293670,-370.102971,9104.533087,-5975.544884
139.293980,666.185348,12657.521608,-9806.022374
139.294290,-2738.761985,13323.706956,-5209.449386
139.294599,-1850.514855,12509.480420,4136.915689
139.294909,-592.164754,15322.262999,995.924147
139.295218,2664.741391,10066.800811,-2604.724693
139.295528,1702.473667,6439.791695,-2221.676944
139.295837,-1850.514855,8216.285956,-4443.353888
139.296147,-1258.350101,3182.885551,-2604.724693
139.296456,962.267725,4515.256246,612.876398
139.296766,3256.906145,6217.729913,2221.676944
139.297075,-518.144159,9918.759623,2451.505594
139.297385,-1258.350101,11029.068536,2298.286494
139.297694,-0.000000,8364.327145,-2987.772442
139.298004,2960.823768,6143.709319,-8197.221829
139.298313,444.123565,6957.935855,-7660.954980
139.298623,-1554.432478,8216.285956,-6741.640382
139.298932,-1184.329507,12213.398043,2911.162892
139.299242,-814.226536,11473.192101,8963.317327
139.299551,1258.350101,10510.924376,5669.106685
139.299861,-2146.597232,15618.345376,-1532.190996
139.300170,-74.020594,9030.512492,-3140.991542
139.300480,-740.205942,4811.338623,-10112.460574
139.300789,-3997.112087,8290.306550,-11721.261119
139.301099,-1480.411884,15026.180623,-5362.668486
139.301409,2146.597232,11843.295072,2834.553343
139.301718,-740.205942,8808.450710,4366.744339
139.302028,2146.597232,12213.398043,10495.508323
139.302337,2960.823768,3923.091493,2451.505594
139.302647,2590.720797,3108.864956,-5362.668486
139.302956,-518.144159,9918.759623,-229.828649
139.303266,2072.576638,6069.688724,-3294.210641
139.303575,1702.473667,8438.347739,-1991.848295
139.303885,-222.061783,14508.036463,2451.505594
139.304194,-1702.473667,11917.315666,4213.525239
139.304504,3182.885551,11473.192101,-2298.286494
139.304813,592.164754,9622.677246,-3370.820191
139.305123,-5403.503377,10807.006753,-1378.971896
139.305432,1850.514855,10362.883188,-6818.249932
139.305742,814.226536,9252.574275,-7890.783629
139.306051,-1110.308913,14878.139434,2298.286494
139.306361,-4589.276840,15618.345376,3600.648841
139.306670,3108.864956,13249.686362,-995.924147
139.306980,4885.359217,9770.718434,919.314598
139.307289,1036.288319,6069.688724,-2834.553343
139.307599,-2442.679609,5773.606348,-3524.039291
139.307908,962.267725,2960.823768,-3447.429741
139.308218,4737.318029,3997.112087,689.485948
139.308527,-4441.235652,7179.997637,4596.572988
139.308837,1480.411884,13619.789333,3217.601092
139.309147,2072.576638,12509.480420,-1149.143247
139.309456,4885.359217,8956.491898,-3677.258390
139.309766,-2368.659014,9104.533087,-2068.457845
139.310075,-962.267725,7105.977043,-3294.210641
139.310385,-2072.576638,8734.430116,-4596.572988
139.310694,1554.432478,11695.253884,1685.410096
139.311004,-222.061783,10288.862594,2834.553343
139.311313,-370.102971,13397.727550,-1072.533697
139.311623,2516.700203,12879.583391,-995.924147
139.311932,-3552.988522,11621.233289,-3677.258390
139.312242,962.267725,7846.182985,-8273.831378
139.312551,-1850.514855,9400.615463,-6818.249932
139.312861,962.267725,7846.182985,1302.362347
139.313170,-1258.350101,12065.356855,2145.067394
139.313480,2664.741391,7254.018232,1302.362347
139.313789,1628.453072,6957.935855,3217.601092
139.314099,4145.153275,7550.100608,689.485948
139.314408,-1702.473667,9030.512492,-3217.601092
139.314718,518.144159,9770.718434,-5056.230287
139.315027,1406.391290,8660.409521,-306.438199
139.315337,1332.370696,9474.636058,-1608.800546
139.315646,-1036.288319,9548.656652,-3370.820191
139.315956,2368.659014,14285.974681,459.657299
139.316265,1110.308913,7105.977043,536.266849
139.316575,-2738.761985,6883.915261,-2911.162892
139.316885,-222.061783,11103.089130,-4519.963438
139.317194,-592.164754,14878.139434,-7431.126331
139.317504,-2886.803174,11325.150913,-3753.867940
139.317813,-2220.617826,10584.944971,-2298.286494
139.318123,3330.926739,12879.583391,-2681.334243
139.318432,222.061783,8512.368333,-2834.553343
139.318742,-666.185348,6587.832884,-766.095498
139.319051,1110.308913,9104.533087,1149.143247
139.319361,1850.514855,5403.503377,-2451.505594
139.319670,222.061783,9770.718434,689.485948
139.319980,-1480.411884,5107.421000,1762.019645
139.320289,2738.761985,4737.318029,-1991.848295
139.320599,-444.123565,12509.480420,-2528.115143
139.320908,296.082377,10066.800811,-2145.067394
139.321218,-370.102971,10066.800811,-3524.039291
139.321527,4737.318029,9770.718434,-2528.115143
139.321837,-4219.173869,7254.018232,4366.744339
139.322146,-222.061783,10732.986159,153.219100
139.322456,-1258.350101,6291.750507,-3524.039291
139.322765,-814.226536,10732.986159,1302.362347
139.323075,-2664.741391,13471.748144,-995.924147
139.323384,3182.885551,11917.315666,-6818.249932
139.323694,1702.473667,15322.262999,-6894.859482
139.324003,-1184.329507,12509.480420,1149.143247
139.324313,296.082377,5625.565159,-995.924147
139.324623,-2590.720797,5995.668130,-536.266849
139.324932,5773.606348,6883.915261,1685.410096
139.325242,-2072.576638,3997.112087,1991.848295
139.325551,-296.082377,7624.121203,-1225.752797
139.325861,518.144159,7624.121203,-2221.676944
139.326170,2368.659014,7031.956449,-1991.848295
139.326480,-1480.411884,8882.471304,-1685.410096
139.326789,-0.000000,9030.512492,-842.705048
139.327099,-148.041188,8438.347739,1991.848295
139.327408,370.102971,11177.109724,-306.438199
139.327718,2294.638420,13175.665768,842.705048
139.328027,-2886.803174,7994.224174,-459.657299
139.328337,2146.597232,12583.501014,-1838.629195
139.328646,1554.432478,13471.748144,459.657299
139.328956,-2960.823768,10881.027347,-1302.362347
139.329265,-3404.947333,12805.562797,-1072.533697
139.329575,1924.535449,11991.336260,-4290.134789
139.329884,370.102971,11103.089130,-6511.811733
139.330194,592.164754,5921.647536,-995.924147
139.330503,-1332.370696,5921.647536,3830.477490
139.330813,2812.782580,6661.853478,229.828649
139.331122,666.185348,9548.656652,995.924147
139.331432,666.185348,5995.668130,2604.724693
139.331742,370.102971,7179.997637,2145.067394
139.332051,3182.885551,10288.862594,-5515.887586
139.332361,2368.659014,11991.336260,-7354.516781
139.332670,-3997.112087,11621.233289,-4290.134789
139.332980,962.267725,9326.594869,-2298.286494
139.333289,444.123565,8882.471304,3294.210641
139.333599,-148.041188,13397.727550,2145.067394
139.333908,-1554.432478,8808.450710,-153.219100
139.334218,-0.000000,10584.944971,-1762.019645
139.334527,-444.123565,9400.615463,-4366.744339
139.334837,-3997.112087,10955.047942,-3524.039291
139.335146,2664.741391,11769.274478,-6128.763984
139.335456,-814.226536,10658.965565,-3830.477490
139.335765,1110.308913,10214.842000,2757.943793
139.336075,-5107.421000,8364.327145,3907.087040
139.336384,3849.070898,7846.182985,-2374.896044
139.336694,4145.153275,4219.173869,-4136.915689
139.337003,-0.000000,7105.977043,-2911.162892
139.337313,-2220.617826,6957.935855,383.047749
139.337622,3182.885551,9104.533087,0.000000
139.337932,1332.370696,9030.512492,1532.190996
139.338241,-2442.679609,8956.491898,4673.182538
139.338551,-1036.288319,10658.965565,-4519.963438
139.338860,370.102971,9252.574275,-7431.126331
139.339170,2886.803174,11621.233289,-3294.210641
139.339480,-5477.523971,8808.450710,-3217.601092
139.339789,3256.906145,14952.160028,-7048.078582
139.340099,-222.061783,11991.336260,-1838.629195
139.340408,-5921.647536,10881.027347,5898.935335
139.340718,-5403.503377,9030.512492,3370.820191
139.341027,5995.668130,12065.356855,-7660.954980
139.341337,3627.009116,9030.512492,-8886.707777
139.341646,-1480.411884,4663.297435,1149.143247
139.341956,1998.556043,7698.141797,995.924147
139.342265,2220.617826,10214.842000,-3983.696590
139.342575,444.123565,5477.523971,5592.497135
139.342884,-5551.544565,4663.297435,5822.325785
139.343194,3775.050304,6661.853478,-919.314598
139.343503,2590.720797,10955.047942,-5439.278036
139.343813,-888.247130,9474.636058,-6205.373534
139.344122,-4515.256246,6883.915261,-3140.991542
139.344432,4589.276840,11769.274478,-2221.676944
139.344741,-2738.761985,10732.986159,1991.848295
139.345051,-814.226536,14211.954086,4749.792088
139.345360,-2220.617826,9770.718434,3524.039291
139.345670,1924.535449,11843.295072,-612.876398
139.345979,-0.000000,12361.439231,-3677.258390
139.346289,-4367.215058,11103.089130,-4903.011187
139.346598,4737.318029,12731.542202,-5056.230287
139.346908,-0.000000,11843.295072,-3983.696590
139.347218,-1332.370696,12731.542202,-612.876398
139.347527,-7179.997637,5107.421000,4136.915689
139.347837,3330.926739,11473.192101,-1532.190996
139.348146,2146.597232,4885.359217,-5056.230287
139.348456,-0.000000,4515.256246,459.657299
139.348765,2220.617826,5773.606348,4596.572988
139.349075,6143.709319,5995.668130,-306.438199
139.349384,-1036.288319,6809.894666,4596.572988
139.349694,-1036.288319,10584.944971,5286.058936
139.350003,1406.391290,9548.656652,536.266849
139.350313,2590.720797,9474.636058,-3907.087040
139.350622,-3552.988522,12583.501014,-3064.381992
139.350932,-1258.350101,14508.036463,-9499.584175
139.351241,2590.720797,14063.912898,-12027.699319
139.351551,-3478.967927,11029.068536,1302.362347
139.351860,-2886.803174,12879.583391,4290.134789
139.352170,-2442.679609,7846.182985,2298.286494
139.352479,4145.153275,14804.118840,-995.924147
139.352789,-1036.288319,7179.997637,-1915.238745
139.353098,962.267725,7105.977043,-5056.230287
139.353408,222.061783,4367.215058,-229.828649
139.353717,518.144159,9400.615463,-229.828649
139.354027,2886.803174,7105.977043,536.266849
139.354337,-4737.318029,5255.462188,4979.620737
139.354646,4441.235652,11547.212695,1149.143247
139.354956,222.061783,7994.224174,-6281.983084
139.355265,1702.473667,7994.224174,-7048.078582
139.355575,-1702.473667,5699.585753,-2298.286494
139.355884,2812.782580,13471.748144,-3217.601092
139.356194,1036.288319,11843.295072,536.266849
139.356503,-2664.741391,10658.965565,7354.516781
139.356813,-148.041188,13989.892304,3600.648841
139.357122,-3034.844362,14434.015869,-7890.783629
139.357432,370.102971,11695.253884,-7737.564530
139.357741,-9252.574275,8216.285956,-3217.601092
139.358051,5477.523971,13619.789333,-7814.174080
139.358360,3701.029710,12509.480420,-9882.631924
139.358670,-1332.370696,8808.450710,1608.800546
139.358979,-9548.656652,6661.853478,11414.822920
139.359289,1628.453072,5995.668130,1302.362347
139.359598,6883.915261,1628.453072,-6358.592633
139.359908,-1850.514855,7254.018232,-5056.230287
139.360217,296.082377,6143.709319,2145.067394
139.360527,3330.926739,5625.565159,-4443.353888
139.360836,4589.276840,9326.594869,-2145.067394
139.361146,-6883.915261,10288.862594,4366.744339
139.361455,666.185348,7846.182985,3677.258390
139.361765,4441.235652,10140.821405,-536.266849
139.362075,2886.803174,10955.047942,-4903.011187
139.362384,-5329.482782,13101.645173,-4136.915689
139.362694,1036.288319,13989.892304,-7124.688131
139.363003,-2886.803174,13767.830521,-6971.469032
139.363313,-2220.617826,13027.624579,-766.095498
139.363622,-2294.638420,9252.574275,-229.828649
139.363932,1628.453072,11917.315666,-4060.306139
139.364241,74.020594,10510.924376,229.828649
139.364551,-2220.617826,6069.688724,1991.848295
139.364860,5699.585753,7846.182985,-3370.820191
139.365170,814.226536,7031.956449,-2068.457845
139.365479,-518.144159,6513.812290,5286.058936
139.365789,-2368.659014,4515.256246,6128.763984
139.366098,5551.544565,9918.759623,-1608.800546
139.366408,740.205942,6957.935855,-3064.381992
139.366717,-6069.688724,7254.018232,-612.876398
139.367027,-2590.720797,11547.212695,-1302.362347
139.367336,8660.409521,11843.295072,-7890.783629
139.367646,814.226536,12879.583391,-2911.162892
139.367955,-2812.782580,12287.418637,6052.154434
139.368265,1480.411884,12583.501014,2757.943793
139.368574,3849.070898,11177.109724,-4596.572988
139.368884,-7624.121203,8808.450710,-1455.581446
139.369193,-5773.606348,11621.233289,-229.828649
139.369503,4811.338623,12213.398043,-8886.707777
139.369813,4737.318029,10955.047942,-10418.898773
139.370122,-3923.091493,8956.491898,995.924147
139.370432,-5403.503377,6217.729913,7890.783629
139.370741,1998.556043,9030.512492,612.876398
139.371051,666.185348,3775.050304,-3294.210641
139.371360,-0.000000,4737.318029,2987.772442
139.371670,3108.864956,3627.009116,-536.266849
139.371979,4441.235652,9252.574275,-3907.087040
139.372289,1110.308913,7031.956449,995.924147
139.372598,-2812.782580,10140.821405,3064.381992
139.372908,-0.000000,12435.459826,4060.306139
139.373217,296.082377,10732.986159,459.657299
139.373527,-74.020594,12805.562797,-3983.696590
139.373836,-1850.514855,10658.965565,-6511.811733
139.374146,3034.844362,11769.274478,-6128.763984
139.374455,-4663.297435,11399.171507,-2604.724693
139.374765,-3923.091493,15248.242405,995.924147
139.375074,-1110.308913,13175.665768,76.609550
139.375384,2294.638420,11547.212695,-5898.935335
139.375693,-1184.329507,3997.112087,-1685.410096
139.376003,-5699.585753,5033.400406,2757.943793
139.376312,2368.659014,6809.894666,-536.266849
139.376622,6291.750507,5773.606348,-6128.763984
139.376931,2368.659014,8882.471304,-1762.019645
139.377241,-3256.906145,9252.574275,5515.887586
139.377551,1406.391290,8068.244768,995.924147
139.377860,3108.864956,3775.050304,-1532.190996
139.378170,2146.597232,6587.832884,-2374.896044
139.378479,-4885.359217,8216.285956,306.438199
139.378789,1036.288319,14211.954086,-612.876398
139.379098,2294.638420,12509.480420,-3064.381992
139.379408,-888.247130,11547.212695,-3600.648841
139.379717,2220.617826,11769.274478,-1915.238745
139.380027,-1332.370696,6587.832884,-1378.971896
139.380336,-4737.318029,13693.809927,-1991.848295
139.380646,-4293.194464,8438.347739,-995.924147
139.380955,7254.018232,14211.954086,-7277.907231
139.381265,-0.000000,10066.800811,-4060.306139
139.381574,-3182.885551,7772.162391,4366.744339
139.381884,-1406.391290,8734.430116,3753.867940
139.382193,3330.926739,7328.038826,-5515.887586
139.382503,3034.844362,6587.832884,-4366.744339
139.382812,-4441.235652,6143.709319,3983.696590
139.383122,2664.741391,9918.759623,153.219100
139.383431,888.247130,9474.636058,-919.314598
139.383741,6291.750507,7624.121203,-229.828649
139.384050,-5551.544565,8734.430116,2834.553343
139.384360,2146.597232,10658.965565,459.657299
139.384670,1332.370696,10362.883188,-4826.401637
139.384979,-222.061783,13101.645173,-5439.278036
139.385289,-3923.091493,11843.295072,2911.162892
139.385598,-962.267725,13101.645173,2604.724693
139.385908,-370.102971,9400.615463,-6128.763984
139.386217,-6809.894666,11843.295072,-2451.505594
139.386527,-666.185348,10510.924376,-842.705048
139.386836,1998.556043,8068.244768,-7814.174080
139.387146,592.164754,9622.677246,-3064.381992
139.387455,-2960.823768,7846.182985,4979.620737
139.387765,-222.061783,7476.080014,1072.533697
139.388074,3849.070898,5847.626942,-1915.238745
139.388384,1258.350101,3627.009116,2604.724693
139.388693,-2368.659014,6217.729913,6588.421283
139.389003,3775.050304,8364.327145,-1149.143247
139.389312,4441.235652,7920.203579,-4213.525239
139.389622,-2516.700203,11695.253884,-4060.306139
139.389931,-3256.906145,10140.821405,-3830.477490
139.390241,1332.370696,13397.727550,-2604.724693
139.390550,2664.741391,12139.377449,-3294.210641
139.390860,-4367.215058,8216.285956,689.485948
139.391169,-962.267725,10436.903782,2834.553343
139.391479,-2442.679609,10510.924376,-2145.067394
139.391788,-444.123565,8438.347739,-5515.887586
139.392098,-4515.256246,7920.203579,-689.485948
139.392407,962.267725,9844.739029,-1685.410096
139.392717,888.247130,10955.047942,-2451.505594
139.393026,-5181.441594,9474.636058,-306.438199
139.393336,-5477.523971,7328.038826,2068.457845
139.393645,3108.864956,5181.441594,-3140.991542
139.393955,4071.132681,5255.462188,-4673.182538
139.394264,-4737.318029,5773.606348,3677.258390
139.394574,2220.617826,8216.285956,2068.457845
139.394883,4219.173869,6735.874072,-2221.676944
139.395193,1924.535449,7550.100608,3677.258390
139.395502,-5477.523971,9696.697840,6818.249932
139.395812,962.267725,11103.089130,-1838.629195
139.396121,3330.926739,12657.521608,-6971.469032
139.396431,-3034.844362,11177.109724,-6511.811733
139.396740,-1036.288319,12805.562797,-2681.334243
139.397050,1628.453072,14211.954086,-5898.935335
139.397359,-1628.453072,10658.965565,-229.828649
139.397669,-3849.070898,9178.553681,5056.230287
139.397978,1110.308913,8216.285956,2221.676944
139.398288,1924.535449,12287.418637,-5669.106685
139.398597,370.102971,4663.297435,-3677.258390
139.398907,-4071.132681,8586.388927,1532.190996
139.399216,3997.112087,9474.636058,-3217.601092
139.399526,3701.029710,8364.327145,-2604.724693
139.399835,888.247130,9030.512492,-76.609550
139.400145,-3404.947333,8290.306550,2221.676944
139.400454,5033.400406,9400.615463,-612.876398
139.400764,1702.473667,5995.668130,-2451.505594
139.401073,-3997.112087,6365.771101,-3677.258390
139.401383,2812.782580,7624.121203,-1532.190996
139.401692,3034.844362,10732.986159,-229.828649
139.402002,444.123565,12213.398043,-1302.362347
139.402311,-4515.256246,14804.118840,1838.629195
139.402621,3330.926739,13471.748144,0.000000
139.402930,2886.803174,9400.615463,-8733.488677
139.403240,-1036.288319,4737.318029,-7814.174080
139.403549,-6439.791695,6883.915261,2374.896044
139.403859,1628.453072,10510.924376,0.000000
139.404168,-148.041188,12805.562797,-1532.190996
139.404478,-444.123565,8438.347739,2451.505594
139.404787,962.267725,7846.182985,3217.601092
139.405097,-1776.494261,8512.368333,-2374.896044
139.405406,3627.009116,6513.812290,-5745.716235
139.405716,-2960.823768,6957.935855,-5975.544884
139.406025,-0.000000,10436.903782,-1915.238745
139.406335,2442.679609,12065.356855,1762.019645
139.406644,-370.102971,10436.903782,2911.162892
139.406954,-2886.803174,10362.883188,842.705048
139.407263,-370.102971,14211.954086,-4903.011187
139.407573,1554.432478,11769.274478,-9116.536426
139.407882,-2664.741391,9474.636058,-8733.488677
139.408192,-4959.379811,15100.201217,-3677.258390
139.408501,2738.761985,13693.809927,-7354.516781
139.408811,-1258.350101,8438.347739,-7354.516781
139.409120,-5329.482782,8660.409521,76.609550
139.409430,-2812.782580,9844.739029,-1532.190996
139.409739,2738.761985,8142.265362,-9959.241474
139.410049,2960.823768,8068.244768,-12563.966167
139.410358,-4293.194464,7105.977043,-6665.030833
139.410668,-1924.535449,6365.771101,-5592.497135
139.410977,1554.432478,8068.244768,-5898.935335
139.411287,6069.688724,7624.121203,-6588.421283
139.411596,-740.205942,8290.306550,-3370.820191
139.411906,-2516.700203,7846.182985,-4060.306139
139.412215,1184.329507,6661.853478,-11108.384721
139.412525,5847.626942,7476.080014,-17773.415554
139.412834,-3701.029710,9400.615463,-10955.165621
139.413144,-1258.350101,13989.892304,-2911.162892
139.413453,3108.864956,13249.686362,-7124.688131
139.413763,7402.059420,7476.080014,-11797.870669
139.414072,-3775.050304,8734.430116,-2987.772442
139.414382,-4071.132681,2960.823768,-383.047749
139.414691,-296.082377,7624.121203,-12027.699319
139.415001,6513.812290,8956.491898,-20684.578446
139.415310,-1776.494261,11991.336260,-13100.233016
139.415620,-5181.441594,14359.995275,-3983.696590
139.415929,3034.844362,14063.912898,-10572.117872
139.416239,2886.803174,8734.430116,-15398.519510
139.416548,3034.844362,5699.585753,-5975.544884
139.416858,-9030.512492,4145.153275,1838.629195
139.417167,-962.267725,9696.697840,-4903.011187
139.417477,3404.947333,9178.553681,-16471.053207
139.417786,4071.132681,11103.089130,-19765.263848
139.418095,-7105.977043,11325.150913,-11338.213370
139.418405,-5847.626942,12583.501014,-3753.867940
139.418714,3330.926739,14582.057057,-17390.367805
139.419024,6587.832884,11251.130318,-17850.025103
139.419333,-3701.029710,7402.059420,-2987.772442
139.419643,-6069.688724,2960.823768,3217.601092
139.419952,-3627.009116,4441.235652,-9576.193725
139.420262,4811.338623,5033.400406,-18156.463303
139.420571,-666.185348,8660.409521,-14249.376263
139.420881,-1998.556043,11843.295072,-6741.640382
139.421190,-2960.823768,14582.057057,-7584.345430
139.421500,2146.597232,17468.860231,-14938.862211
139.421809,1702.473667,10288.862594,-18156.463303
139.422119,-1258.350101,7698.141797,-11721.261119
139.422428,-1924.535449,4737.318029,-4749.792088
139.422738,3701.029710,2960.823768,-8120.612279
139.423047,1702.473667,8660.409521,-6435.202183
139.423357,1480.411884,8808.450710,-7124.688131
139.423666,-1702.473667,11621.233289,-10189.070123
139.423976,1924.535449,11029.068536,-12334.137518
139.424285,3552.988522,12657.521608,-13483.280765
139.424595,-0.000000,11917.315666,-15092.081311
139.424904,-2368.659014,7476.080014,-10112.460574
139.425214,-1628.453072,7254.018232,-9422.974625
139.425523,4071.132681,7698.141797,-11414.822920
139.425833,4219.173869,9992.780217,-8120.612279
139.426142,-0.000000,8216.285956,-306.438199
139.426452,-0.000000,7328.038826,-766.095498
139.426761,-1554.432478,8216.285956,-6894.859482
139.427071,-3404.947333,13027.624579,-12487.356617
139.427380,-2368.659014,12953.603985,-17237.148705
139.427690,-1998.556043,13767.830521,-17160.539155
139.427999,-814.226536,13323.706956,-12717.185267
139.428309,-2368.659014,13027.624579,-10495.508323
139.428618,444.123565,10955.047942,-7584.345430
139.428928,-1258.350101,13175.665768,-4366.744339
139.429237,-2368.659014,8956.491898,-5669.106685
139.429547,666.185348,8586.388927,-11491.432470
139.429856,6365.771101,8068.244768,-14172.766713
139.430166,-592.164754,7105.977043,-11721.261119
139.430475,-4515.256246,8438.347739,-4213.525239
139.430785,1184.329507,9178.553681,-4826.401637
139.431094,1406.391290,7179.997637,-9652.803275
139.431404,-2590.720797,9918.759623,-5362.668486
139.431713,-814.226536,9252.574275,-9116.536426
139.432023,3849.070898,10140.821405,-16088.005458
139.432332,370.102971,9400.615463,-15475.129060
139.432642,-1850.514855,10066.800811,-7277.907231
139.432951,-1036.288319,11843.295072,-4826.401637
139.433261,2368.659014,11399.171507,-8580.269578
139.433570,1110.308913,11473.192101,-8733.488677
139.433880,-962.267725,9474.636058,-8886.707777
139.434189,-1110.308913,10436.903782,-11414.822920
139.434499,-0.000000,13841.851115,-17620.196454
139.434808,2442.679609,13989.892304,-20684.578446
139.435118,2146.597232,11547.212695,-14402.595362
139.435427,-296.082377,9992.780217,-3524.039291
139.435737,3034.844362,5773.606348,-2221.676944
139.436046,3552.988522,2886.803174,-6818.249932
139.436356,1036.288319,1850.514855,-5132.839837
139.436665,-3701.029710,1184.329507,-4366.744339
139.436975,-4219.173869,5699.585753,-10648.727422
139.437284,-1258.350101,14063.912898,-18003.244203
139.437594,-888.247130,18875.251521,-20378.140247
139.437903,-2886.803174,20133.601622,-19382.216099
139.438213,-1332.370696,16358.551318,-16317.834107
139.438522,-74.020594,11029.068536,-15015.471761
139.438832,1628.453072,5477.523971,-8503.660028
139.439141,1776.494261,-0.000000,-2374.896044
139.439451,-0.000000,740.205942,1072.533697
139.439760,-222.061783,2294.638420,-1378.971896
139.440070,2220.617826,5477.523971,-7354.516781
139.440379,1480.411884,11177.109724,-16241.224558
139.440689,-2368.659014,13101.645173,-16471.053207
139.440998,-1776.494261,15988.448347,-15551.738609
139.441308,814.226536,13545.768739,-18845.949251
139.441617,-296.082377,10510.924376,-16930.710506
139.441927,-2368.659014,7328.038826,-7660.954980
139.442236,666.185348,4811.338623,-3677.258390
139.442546,2368.659014,4145.153275,-5592.497135
139.442855,3108.864956,6217.729913,-7507.735880
139.443165,518.144159,9474.636058,-7890.783629
139.443474,1850.514855,10807.006753,-10342.289223
139.443783,-0.000000,14359.995275,-10955.165621
139.444093,-148.041188,12657.521608,-15704.957709
139.444402,962.267725,11103.089130,-15704.957709
139.444712,444.123565,7846.182985,-12563.966167
139.445021,-2220.617826,2368.659014,-9576.193725
139.445331,-1480.411884,2812.782580,-8427.050478
139.445640,-148.041188,8364.327145,-6052.154434
139.445950,-0.000000,11029.068536,-5592.497135
139.446259,592.164754,11843.295072,-8503.660028
139.446569,1924.535449,10807.006753,-10878.556072
139.446878,-444.123565,11103.089130,-11491.432470
139.447188,-1998.556043,11103.089130,-12717.185267
139.447497,-1628.453072,9918.759623,-10495.508323
139.447807,1258.350101,10510.924376,-9422.974625
139.448116,-740.205942,8882.471304,-8350.440928
139.448426,370.102971,10214.842000,-10112.460574
139.448735,-0.000000,7994.224174,-8656.879127
139.449045,-740.205942,7624.121203,-10648.727422
139.449354,518.144159,5995.668130,-8044.002729
139.449664,1776.494261,6883.915261,-6281.983084
139.449973,-3256.906145,7031.956449,-5439.278036
139.450283,1184.329507,8660.409521,-2604.724693
139.450592,2368.659014,8586.388927,-5056.230287
139.450902,1924.535449,8808.450710,-7431.126331
139.451211,-148.041188,10510.924376,-3217.601092
139.451521,-296.082377,11621.233289,-4136.915689
139.451830,-814.226536,13175.665768,-9422.974625
139.452140,-2146.597232,12879.583391,-9116.536426
139.452449,-2072.576638,12879.583391,-8886.707777
139.452759,-4071.132681,10732.986159,-14096.157163
139.453068,-3404.947333,11621.233289,-12640.575717
139.453378,-2072.576638,11917.315666,-11184.994271
139.453687,-0.000000,11029.068536,-13713.109414
139.453997,-74.020594,10881.027347,-11874.480219
139.454306,-1406.391290,11991.336260,-7431.126331
139.454616,-296.082377,12139.377449,-9422.974625
139.454925,-370.102971,12213.398043,-11414.822920
139.455235,-1184.329507,11399.171507,-12563.966167
139.455544,-1184.329507,9252.574275,-14862.252661
139.455854,222.061783,7179.997637,-18692.730151
139.456163,1850.514855,7179.997637,-15092.081311
139.456473,1332.370696,6217.729913,-9959.241474
139.456782,1850.514855,5107.421000,-6205.373534
139.457092,5181.441594,9252.574275,-3064.381992
139.457401,-4219.173869,6957.935855,229.828649
139.457711,-888.247130,5921.647536,-8656.879127
139.458020,-2590.720797,8660.409521,-20991.016645
139.458330,-2516.700203,10066.800811,-22293.378992
139.458639,-2072.576638,17838.963202,-20378.140247
139.458949,-4663.297435,16802.674883,-19458.825649
139.459258,7328.038826,16506.592507,-22829.645840
139.459568,-814.226536,10436.903782,-12180.918418
139.459877,1998.556043,10362.883188,-3677.258390
139.460187,2294.638420,3923.091493,-3370.820191
139.460496,23464.528361,1110.308913,-10878.556072
139.460806,-27905.764013,-11843.295072,2451.505594
139.461115,-1480.411884,-518.144159,-5362.668486
139.461425,11621.233289,18357.107362,-29877.724422
139.461734,5033.400406,26203.290347,-21144.235745
139.462044,-0.000000,11325.150913,-8197.221829
139.462353,-20577.725188,2220.617826,-11108.384721
139.462663,8586.388927,8142.265362,-25587.589633
139.462972,-1554.432478,12435.459826,-13253.452115
139.463282,2368.659014,13027.624579,-12257.527968
139.463591,-3404.947333,4737.318029,-5745.716235
139.463901,-4219.173869,10066.800811,-4903.011187
139.464210,13619.789333,10658.965565,-10878.556072
139.464520,-2072.576638,3478.967927,-19228.997000
139.464829,-1258.350101,14211.954086,-1302.362347
139.465139,-8586.388927,5033.400406,2528.115143
139.465448,2294.638420,8882.471304,-25664.199183
139.465758,-370.102971,1924.535449,-25740.808733
139.466067,-3627.009116,10881.027347,-13176.842566
139.466377,-6661.853478,5403.503377,-7737.564530
139.466686,3552.988522,11251.130318,-11338.213370
139.466996,6143.709319,8882.471304,-11338.213370
139.467305,1924.535449,6439.791695,-7354.516781
139.467615,-4219.173869,5625.565159,6665.030833
139.467924,-3182.885551,6439.791695,3217.601092
139.468234,7179.997637,9992.780217,-17466.977354
139.468543,6143.709319,14211.954086,-27656.047478
139.468853,-6143.709319,13693.809927,-11797.870669
139.469162,-296.082377,14285.974681,-8656.879127
139.469471,4663.297435,17987.004391,-15092.081311
139.469781,-0.000000,14285.974681,-10035.851024
139.470090,-4367.215058,10584.944971,-306.438199
139.470400,-0.000000,5995.668130,-6665.030833
139.470709,3775.050304,9252.574275,-15321.909960
139.471019,-0.000000,6439.791695,-15015.471761
139.471328,3997.112087,9474.636058,-13636.499864
139.471638,814.226536,10732.986159,-3830.477490
139.471947,-740.205942,15618.345376,0.000000
139.472257,-0.000000,11769.274478,-2681.334243
139.472566,1406.391290,11843.295072,-9269.755526
139.472876,296.082377,7105.977043,-11644.651570
139.473185,-4219.173869,4737.318029,-12180.918418
139.473495,-4145.153275,7179.997637,-13253.452115
139.473804,-3849.070898,11547.212695,-10265.679673
139.474114,-2590.720797,14434.015869,-5822.325785
139.474423,-592.164754,13397.727550,-9422.974625
139.474733,2368.659014,12435.459826,-11184.994271
139.475042,814.226536,7179.997637,-4290.134789
139.475352,-4219.173869,4441.235652,-383.047749
139.475661,-814.226536,4293.194464,-6818.249932
139.475971,-2590.720797,6883.915261,-10572.117872
139.476280,2664.741391,14359.995275,-11184.994271
139.476590,1628.453072,12139.377449,-16317.834107
139.476899,-1776.494261,15692.365970,-12410.747068
139.477209,-1628.453072,14063.912898,-11721.261119
139.477518,-3034.844362,7476.080014,-14325.985813
139.477828,-2146.597232,10066.800811,-12717.185267
139.478137,4737.318029,4737.318029,-10495.508323
139.478447,-1480.411884,6957.935855,-8120.612279
139.478756,-814.226536,7550.100608,-4519.963438
139.479066,-1776.494261,9696.697840,-11108.384721
139.479375,3775.050304,13767.830521,-17313.758255
139.479685,4737.318029,11695.253884,-17543.586904
139.479994,-5403.503377,12731.542202,-12410.747068
139.480304,1184.329507,14730.098246,-13406.671215
139.480613,2368.659014,8808.450710,-18692.730151
139.480923,3849.070898,7550.100608,-17160.539155
139.481232,1258.350101,2072.576638,-8656.879127
139.481542,-2664.741391,6365.771101,153.219100
139.481851,296.082377,7624.121203,-4213.525239
139.482161,6365.771101,7994.224174,-15015.471761
139.482470,1258.350101,11843.295072,-17543.586904
139.482780,-1184.329507,11991.336260,-11951.089769
139.483089,-6957.935855,13249.686362,-12870.404366
139.483399,-592.164754,11251.130318,-21527.283494
139.483708,4811.338623,9770.718434,-20837.797546
139.484018,-6291.750507,4589.276840,-9422.974625
139.484327,-2886.803174,9770.718434,459.657299
139.484637,-1332.370696,6883.915261,-3524.039291
139.484946,8068.244768,10362.883188,-12104.308868
139.485256,-3627.009116,6661.853478,-9422.974625
139.485565,-1110.308913,7402.059420,-2757.943793
139.485875,-6661.853478,10658.965565,-12257.527968
139.486184,9474.636058,11695.253884,-17850.025103
139.486494,1554.432478,8882.471304,-12257.527968
139.486803,-222.061783,4811.338623,1608.800546
139.487113,-5699.585753,9474.636058,3447.429741
139.487422,7772.162391,2738.761985,-3983.696590
139.487732,222.061783,5995.668130,-8503.660028
139.488041,962.267725,4589.276840,-3753.867940
139.488351,-4367.215058,12139.377449,-4596.572988
139.488660,4589.276840,12731.542202,-10189.070123
139.488970,1258.350101,12361.439231,-8427.050478
139.489279,-3849.070898,11029.068536,2987.772442
139.489589,-3478.967927,8438.347739,3370.820191
139.489898,1036.288319,6587.832884,-1225.752797
139.490208,1258.350101,6661.853478,-2221.676944
139.490517,1554.432478,6291.750507,0.000000
139.490827,-3923.091493,11399.171507,-1302.362347
139.491136,-1332.370696,13027.624579,-4443.353888
139.491446,-4737.318029,14730.098246,-4596.572988
139.491755,2368.659014,13397.727550,-3140.991542
139.492064,3330.926739,13175.665768,-4443.353888
139.492374,2146.597232,13027.624579,-1072.533697
139.492683,-2516.700203,7476.080014,3600.648841
139.492993,-1776.494261,6661.853478,4213.525239
139.493302,3997.112087,7550.100608,-1532.190996
139.493612,592.164754,13767.830521,-3447.429741
139.493921,-5033.400406,12287.418637,-612.876398
139.494231,-2368.659014,13693.809927,-3753.867940
139.494540,3034.844362,16580.613101,-6435.202183
139.494849,222.061783,9252.574275,-7737.564530
139.495159,-2812.782580,6661.853478,153.219100
139.495468,444.123565,6661.853478,1378.971896
139.495778,5921.647536,1332.370696,1838.629195
139.496087,-2072.576638,3552.988522,7967.393179
139.496397,-296.082377,2886.803174,9882.631924
139.496706,1184.329507,7846.182985,1762.019645
139.497016,1406.391290,7920.203579,-1685.410096
139.497325,-3108.864956,12879.583391,-3217.601092
139.497635,1776.494261,9474.636058,-8656.879127
139.497944,6661.853478,13175.665768,-8733.488677
139.498253,-1776.494261,12953.603985,-919.314598
139.498563,-4737.318029,8734.430116,4826.401637
139.498872,2738.761985,8882.471304,5056.230287
139.499182,2294.638420,12879.583391,459.657299
139.499491,1184.329507,10955.047942,0.000000
139.499801,-4441.235652,12213.398043,5362.668486
139.500110,3552.988522,12361.439231,-6665.030833
139.500420,1702.473667,11103.089130,-10725.336972
139.500729,-2590.720797,11991.336260,-1455.581446
139.501038,-3775.050304,6735.874072,1532.190996
139.501348,222.061783,11621.233289,-2987.772442
139.501657,-2294.638420,9992.780217,153.219100
139.501967,592.164754,5699.585753,-1072.533697
139.502276,-1998.556043,9844.739029,-5286.058936
139.502586,4589.276840,7402.059420,-2987.772442
139.502895,-2812.782580,7920.203579,1225.752797
139.503205,-4293.194464,7031.956449,1455.581446
139.503514,3627.009116,9548.656652,-4213.525239
139.503823,-4515.256246,6883.915261,-5286.058936
139.504133,-4885.359217,10807.006753,-7967.393179
139.504442,-666.185348,7254.018232,-3983.696590
139.504752,2664.741391,12509.480420,-9806.022374
139.505061,2146.597232,5551.544565,-6052.154434
139.505371,-6291.750507,7920.203579,4826.401637
139.505680,1258.350101,8142.265362,3983.696590
139.505990,2960.823768,10362.883188,-4443.353888
139.506299,5921.647536,10140.821405,-6281.983084
139.506609,-740.205942,4885.359217,-3140.991542
139.506918,-1850.514855,9770.718434,-1225.752797
139.507227,4885.359217,7920.203579,-4903.011187
139.507537,3701.029710,9400.615463,-2145.067394
139.507846,1184.329507,14137.933492,4979.620737
139.508156,-444.123565,12213.398043,3830.477490
139.508465,592.164754,10658.965565,-4366.744339
139.508775,444.123565,8660.409521,-6052.154434
139.509084,-1850.514855,12213.398043,-4749.792088
139.509394,2368.659014,14804.118840,-6741.640382
139.509703,-888.247130,12361.439231,-5132.839837
139.510012,-2368.659014,13989.892304,306.438199
139.510322,2960.823768,9844.739029,-153.219100
139.510631,1998.556043,9178.553681,-383.047749
139.510941,-3478.967927,8364.327145,2298.286494
139.511250,-2590.720797,5625.565159,1762.019645
139.511560,3478.967927,6587.832884,-5132.839837
139.511869,2442.679609,6217.729913,-1991.848295
139.512179,-1480.411884,6957.935855,4290.134789
139.512488,-1850.514855,5625.565159,3370.820191
139.512798,3552.988522,6365.771101,0.000000
139.513107,2294.638420,4589.276840,3753.867940
139.513416,-4145.153275,3552.988522,5822.325785
139.513726,222.061783,6143.709319,689.485948
139.514035,-2886.803174,7105.977043,-1608.800546
139.514345,-1036.288319,13323.706956,-1378.971896
139.514654,-518.144159,11251.130318,459.657299
139.514964,-740.205942,19319.375086,-3524.039291
139.515273,2220.617826,15840.407159,-2528.115143
139.515583,-3701.029710,15322.262999,-2145.067394
139.515892,-370.102971,10140.821405,0.000000
139.516201,2146.597232,10955.047942,-1149.143247
139.516511,-1628.453072,9474.636058,0.000000
139.516820,-370.102971,7179.997637,0.000000
139.517130,2738.761985,11473.192101,-1149.143247
139.517439,1850.514855,6809.894666,-2451.505594
139.517749,-370.102971,7031.956449,2298.286494
139.518058,1258.350101,8882.471304,1072.533697
139.518368,2812.782580,7624.121203,-2451.505594
139.518677,518.144159,2664.741391,1991.848295
139.518986,1110.308913,4589.276840,5439.278036
139.519296,-2294.638420,6365.771101,3447.429741
139.519605,4663.297435,10881.027347,-1532.190996
139.519915,-296.082377,12213.398043,-3600.648841
139.520224,-2812.782580,10881.027347,-536.266849
139.520534,-5403.503377,16580.613101,1991.848295
139.520843,518.144159,15026.180623,-6435.202183
139.521153,-1110.308913,16876.695478,-9193.145976
139.521462,1036.288319,9844.739029,-2911.162892
139.521772,-2294.638420,10807.006753,229.828649
139.522081,814.226536,6957.935855,766.095498
139.522390,-2220.617826,7476.080014,3524.039291
139.522700,1406.391290,7772.162391,1455.581446
139.523009,2886.803174,5847.626942,-536.266849
139.523319,-3034.844362,9030.512492,1072.533697
139.523628,666.185348,5995.668130,-1991.848295
139.523938,2886.803174,8808.450710,-6435.202183
139.524247,3627.009116,9474.636058,-5669.106685
139.524557,-3256.906145,4367.215058,1915.238745
139.524866,-1110.308913,10658.965565,4903.011187
139.525175,2220.617826,9770.718434,1455.581446
139.525485,-592.164754,9474.636058,-1915.238745
139.525794,-1702.473667,12435.459826,766.095498
139.526104,-5699.585753,10288.862594,-3753.867940
139.526413,444.123565,16654.633695,-11108.384721
139.526723,-74.020594,14211.954086,-10035.851024
139.527032,296.082377,15248.242405,-7354.516781
139.527342,-888.247130,10658.965565,-383.047749
139.527651,3256.906145,12361.439231,-229.828649
139.527961,-222.061783,6143.709319,612.876398
139.528270,-1998.556043,3034.844362,3370.820191
139.528579,2664.741391,7254.018232,1378.971896
139.528889,5625.565159,2146.597232,-6818.249932
139.529198,1332.370696,4959.379811,-3064.381992
139.529508,-2146.597232,5107.421000,4979.620737
139.529817,4737.318029,9400.615463,229.828649
139.530127,1036.288319,11251.130318,-995.924147
139.530436,-1480.411884,10584.944971,-1378.971896
139.530746,-1406.391290,9474.636058,-1225.752797
139.531055,444.123565,13101.645173,-4826.401637
139.531364,-3552.988522,13323.706956,-6971.469032
139.531674,-4293.194464,15174.221811,-1378.971896
139.531983,666.185348,15322.262999,-3064.381992
139.532293,-0.000000,14211.954086,-2374.896044
139.532602,-3775.050304,11251.130318,4213.525239
139.532912,-4145.153275,11843.295072,612.876398
139.533221,5847.626942,11325.150913,-4903.011187
139.533531,3478.967927,6217.729913,-6435.202183
139.533840,-1258.350101,9252.574275,2757.943793
139.534150,-74.020594,5551.544565,4596.572988
139.534459,5107.421000,5773.606348,-1302.362347
139.534768,-1184.329507,6439.791695,2757.943793
139.535078,2146.597232,3997.112087,4903.011187
139.535387,-962.267725,3997.112087,2528.115143
139.535697,1406.391290,6957.935855,-1455.581446
139.536006,-2516.700203,5477.523971,1608.800546
139.536316,-666.185348,12435.459826,-2145.067394
139.536625,1554.432478,9030.512492,-3753.867940
139.536935,-3849.070898,15396.283594,612.876398
139.537244,-3330.926739,14063.912898,1915.238745
139.537553,2072.576638,14211.954086,-3524.039291
139.537863,3034.844362,13767.830521,-5975.544884
139.538172,-3108.864956,8808.450710,1378.971896
139.538482,-2072.576638,12065.356855,4596.572988
139.538791,4589.276840,8438.347739,-995.924147
139.539101,3923.091493,11991.336260,-995.924147
139.539410,-4145.153275,8290.306550,5132.839837
139.539720,296.082377,4737.318029,2374.896044
139.540029,3182.885551,8586.388927,-5286.058936
139.540338,370.102971,7846.182985,-4366.744339
139.540648,1406.391290,7846.182985,-306.438199
139.540957,-296.082377,4515.256246,-919.314598
139.541267,4367.215058,9770.718434,1608.800546
139.541576,518.144159,3478.967927,6741.640382
139.541886,-0.000000,7105.977043,9039.926876
139.542195,-3923.091493,8882.471304,3294.210641
139.542505,1628.453072,11547.212695,-4903.011187
139.542814,-1702.473667,13027.624579,-5898.935335
139.543124,-3701.029710,13619.789333,-7124.688131
139.543433,-0.000000,14730.098246,-6128.763984
139.543742,1184.329507,15026.180623,-4903.011187
139.544052,1924.535449,10140.821405,-4290.134789
139.544361,-2442.679609,7772.162391,7814.174080
139.544671,1554.432478,6069.688724,4903.011187
139.544980,1628.453072,3552.988522,-2834.553343
139.545290,-74.020594,5181.441594,-2757.943793
139.545599,74.020594,5551.544565,-3677.258390
139.545909,2368.659014,6069.688724,-5362.668486
139.546218,2738.761985,11917.315666,-1302.362347
139.546527,3775.050304,11103.089130,6205.373534
139.546837,444.123565,7105.977043,-383.047749
139.547146,-1924.535449,4293.194464,-1991.848295
139.547456,-1628.453072,5625.565159,3677.258390
139.547765,-888.247130,4959.379811,-1991.848295
139.548075,-0.000000,5403.503377,-4366.744339
139.548384,-148.041188,13101.645173,-2068.457845
139.548694,1554.432478,11843.295072,-459.657299
139.549003,-1628.453072,17912.983796,-1302.362347
139.549313,1480.411884,13915.871710,-2834.553343
139.549622,-3330.926739,8290.306550,-5209.449386
139.549931,1998.556043,12509.480420,-5898.935335
139.550241,2590.720797,9918.759623,-1532.190996
139.550550,518.144159,8512.368333,1072.533697
139.550860,370.102971,6217.729913,4136.915689
139.551169,222.061783,11251.130318,5286.058936
139.551479,1776.494261,9622.677246,-536.266849
139.551788,1480.411884,1258.350101,-3140.991542
139.552098,-1480.411884,11251.130318,-4290.134789
139.552407,2368.659014,7105.977043,-5898.935335
139.552716,2442.679609,11177.109724,-4443.353888
139.553026,-3034.844362,6587.832884,2911.162892
139.553335,-74.020594,10140.821405,6128.763984
139.553645,-962.267725,7624.121203,4596.572988
139.553954,3330.926739,10214.842000,536.266849
139.554264,-3256.906145,8956.491898,0.000000
139.554573,-3923.091493,13767.830521,-3294.210641
139.554883,-1480.411884,14211.954086,-8503.660028
139.555192,1924.535449,13027.624579,-8427.050478
139.555501,962.267725,15692.365970,-3907.087040
139.555811,-3404.947333,10881.027347,2528.115143
139.556120,4515.256246,11621.233289,536.266849
139.556430,1776.494261,6069.688724,1532.190996
139.556739,-592.164754,7179.997637,4903.011187
139.557049,-4441.235652,8956.491898,2757.943793
139.557358,4441.235652,5699.585753,-6281.983084
139.557668,3256.906145,9178.553681,-7814.174080
139.557977,-1702.473667,3627.009116,1608.800546
139.558287,-2664.741391,10658.965565,2374.896044
139.558596,-148.041188,4811.338623,3600.648841
139.558905,4145.153275,8956.491898,-766.095498
139.559215,-2516.700203,6735.874072,-2451.505594
139.559524,2368.659014,9622.677246,-3753.867940
139.559834,-666.185348,9178.553681,-2757.943793
139.560143,296.082377,10436.903782,1838.629195
139.560453,-5477.523971,16210.510130,2451.505594
139.560762,2590.720797,13249.686362,-459.657299
139.561072,-1258.350101,15026.180623,-5056.230287
139.561381,-3404.947333,11621.233289,-7201.297681
139.561690,-740.205942,8956.491898,-7354.516781
139.562000,518.144159,7402.059420,-4136.915689
139.562309,-666.185348,9844.739029,1225.752797
139.562619,666.185348,8586.388927,0.000000
139.562928,5847.626942,10214.842000,2528.115143
139.563238,-148.041188,6809.894666,1685.410096
139.563547,2294.638420,5921.647536,-229.828649
139.563857,2146.597232,2590.720797,-3524.039291
139.564166,7476.080014,3256.906145,-4903.011187
139.564476,-5921.647536,3627.009116,3370.820191
139.564785,-1406.391290,10584.944971,4749.792088
139.565094,2368.659014,10807.006753,-2911.162892
139.565404,1258.350101,10584.944971,-2221.676944
139.565713,-7105.977043,14434.015869,1378.971896
139.566023,-5995.668130,13323.706956,-3907.087040
139.566332,5329.482782,19393.395680,-11951.089769
139.566642,962.267725,14878.139434,-12410.747068
139.566951,-3701.029710,15174.221811,-7814.174080
139.567261,-4515.256246,9844.739029,4749.792088
139.567570,3182.885551,4885.359217,7431.126331
139.567879,592.164754,5107.421000,3830.477490
139.568189,1184.329507,6957.935855,995.924147
139.568498,1184.329507,5921.647536,-2757.943793
139.568808,-0.000000,2072.576638,-3294.210641
139.569117,1850.514855,8068.244768,-4519.963438
139.569427,1480.411884,7179.997637,-5439.278036
139.569736,-1776.494261,8068.244768,-3370.820191
139.570046,-1924.535449,9474.636058,4903.011187
139.570355,1480.411884,7179.997637,2834.553343
139.570665,-1702.473667,6587.832884,-306.438199
139.570974,296.082377,10214.842000,0.000000
139.571283,5107.421000,8882.471304,-6741.640382
139.571593,-4293.194464,11843.295072,-2987.772442
139.571902,-5773.606348,17690.922014,842.705048
139.572212,296.082377,19393.395680,-6741.640382
139.572521,2220.617826,14508.036463,-10878.556072
139.572831,-962.267725,11547.212695,-1991.848295
139.573140,-4441.235652,9104.533087,995.924147
139.573450,-1406.391290,4145.153275,-1685.410096
139.573759,2368.659014,-0.000000,919.314598
139.574068,-222.061783,4811.338623,919.314598
139.574378,-148.041188,3627.009116,459.657299
139.574687,2294.638420,5625.565159,536.266849
139.574997,2886.803174,8290.306550,76.609550
139.575306,592.164754,8956.491898,-3370.820191
139.575616,1332.370696,11991.336260,-2451.505594
139.575925,-740.205942,9030.512492,153.219100
139.576235,-1998.556043,9548.656652,-2528.115143
139.576544,-814.226536,10807.006753,-2374.896044
139.576853,-1406.391290,14656.077652,-766.095498
139.577163,-2812.782580,12287.418637,-3370.820191
139.577472,-2960.823768,12879.583391,-2911.162892
139.577782,1258.350101,15618.345376,-3524.039291
139.578091,1702.473667,12879.583391,-7660.954980
139.578401,-1702.473667,12805.562797,-3064.381992
139.578710,-1184.329507,9104.533087,2757.943793
139.579020,1332.370696,7476.080014,153.219100
139.579329,1332.370696,7328.038826,459.657299
139.579639,222.061783,3330.926739,2374.896044
139.579948,-814.226536,5255.462188,-2451.505594
139.580257,2738.761985,6957.935855,-4596.572988
139.580567,-74.020594,8364.327145,-4136.915689
139.580876,962.267725,7920.203579,-1608.800546
139.581186,-0.000000,9474.636058,-3217.601092
139.581495,-1258.350101,6587.832884,1455.581446
139.581805,-518.144159,7624.121203,1149.143247
139.582114,-1110.308913,10658.965565,-3140.991542
139.582424,3108.864956,12361.439231,-3983.696590
139.582733,296.082377,11325.150913,-1685.410096
139.583042,-3701.029710,13101.645173,-1532.190996
139.583352,444.123565,12953.603985,-4060.306139
139.583661,-74.020594,14582.057057,-5209.449386
139.583971,-1998.556043,14211.954086,-4136.915689
139.584280,-2072.576638,9622.677246,1072.533697
139.584590,3552.988522,10658.965565,-5669.106685
139.584899,740.205942,7920.203579,-5056.230287
139.585209,-1850.514855,7105.977043,842.705048
139.585518,-1184.329507,7105.977043,1762.019645
139.585828,1998.556043,10584.944971,-4366.744339
139.586137,6735.874072,8586.388927,-2604.724693
139.586446,3182.885551,5995.668130,0.000000
139.586756,-2146.597232,7105.977043,2145.067394
139.587065,-148.041188,4219.173869,4519.963438
139.587375,962.267725,5107.421000,-2221.676944
139.587684,1258.350101,5995.668130,-7354.516781
139.587994,-4737.318029,12731.542202,-3447.429741
139.588303,-1924.535449,10362.883188,1072.533697
139.588613,-0.000000,15100.201217,-4213.525239
139.588922,-1110.308913,22502.260637,-4596.572988
139.589231,3627.009116,15248.242405,-3983.696590
139.589541,-2738.761985,12583.501014,-2221.676944
139.589850,-2368.659014,12953.603985,-3140.991542
139.590160,1850.514855,6365.771101,-3600.648841
139.590469,4663.297435,4737.318029,-4213.525239
139.590779,-2368.659014,7328.038826,4903.011187
139.591088,-6069.688724,6513.812290,6358.592633
139.591398,3330.926739,9104.533087,-4443.353888
139.591707,3923.091493,4737.318029,-7814.174080
139.592016,-1406.391290,7698.141797,-2987.772442
139.592326,-4737.318029,5033.400406,1762.019645
139.592635,1258.350101,8512.368333,0.000000
139.592945,5995.668130,6439.791695,-1149.143247
139.593254,-0.000000,7698.141797,2068.457845
139.593558,-3478.967927,12731.542202,2298.286494
139.593868,1258.350101,13545.768739,842.705048
139.594177,3701.029710,14434.015869,-2681.334243
139.594487,-5403.503377,15914.427753,-4136.915689
139.594796,-3256.906145,15248.242405,-3907.087040
139.595106,-1036.288319,13693.809927,-4596.572988
139.595415,1184.329507,15988.448347,-9806.022374
139.595724,296.082377,11843.295072,-8197.221829
139.596034,-0.000000,6069.688724,-1149.143247
139.596343,-1554.432478,8438.347739,5056.230287
139.596653,-0.000000,1702.473667,2987.772442
139.596962,1480.411884,7476.080014,-4136.915689
139.597272,6217.729913,2146.597232,0.000000
139.597581,-3034.844362,5995.668130,4136.915689
139.597891,518.144159,5995.668130,-766.095498
139.598200,5107.421000,8512.368333,-3907.087040
139.598510,2590.720797,9030.512492,0.000000
139.598819,-2886.803174,9252.574275,2757.943793
139.599129,-6661.853478,14137.933492,459.657299
139.599438,5181.441594,11695.253884,-3907.087040
139.599748,-1628.453072,14878.139434,-7890.783629
139.600057,-2664.741391,16950.716072,-5056.230287
139.600367,-3034.844362,13471.748144,-3677.258390
139.600676,4145.153275,14656.077652,-7354.516781
139.600986,2368.659014,9178.553681,-4903.011187
139.601295,-2220.617826,7550.100608,5745.716235
139.601604,-3478.967927,9030.512492,6281.983084
139.601914,3849.070898,2072.576638,-1991.848295
139.602223,1184.329507,4737.318029,-5669.106685
139.602533,-1258.350101,4441.235652,-2298.286494
139.602842,-1406.391290,4515.256246,0.000000
