#time,accel_x,accel_y,accel_z
109.984210,-370.102971,9622.677246,0.000000
109.984519,1480.411884,8290.306550,306.438199
109.984829,148.041188,8586.388927,-1915.238745
109.985139,-148.041188,8660.409521,-2451.505594
109.985449,-296.082377,9474.636058,-1915.238745
109.985758,-1998.556043,10584.944971,-383.047749
109.986068,-0.000000,10140.821405,-689.485948
109.986378,592.164754,10066.800811,-612.876398
109.986687,-0.000000,8364.327145,-995.924147
109.986997,-444.123565,8068.244768,-1685.410096
109.987307,74.020594,8438.347739,-7660.954980
109.987617,1258.350101,10362.883188,-2374.896044
109.987926,-370.102971,9474.636058,-1608.800546
109.988236,296.082377,10362.883188,459.657299
109.988546,-0.000000,9844.739029,-306.438199
109.988855,-888.247130,7328.038826,-1149.143247
109.989165,666.185348,8660.409521,-1915.238745
109.989475,-0.000000,9326.594869,-1302.362347
109.989785,888.247130,9474.636058,-536.266849
109.990094,-1110.308913,9252.574275,153.219100
109.990404,1184.329507,8290.306550,1072.533697
109.990714,1776.494261,6661.853478,536.266849
109.991024,5255.462188,6587.832884,689.485948
109.991333,1184.329507,6069.688724,8044.002729
109.991643,-0.000000,9770.718434,10342.289223
109.991953,-222.061783,6809.894666,9806.022374
109.992262,8734.430116,9178.553681,3677.258390
109.992572,4737.318029,5477.523971,2451.505594
109.992882,-2886.803174,8438.347739,12257.527968
109.993192,-1406.391290,11029.068536,16700.881856
109.993501,3627.009116,10584.944971,5209.449386
109.993811,2220.617826,11399.171507,3524.039291
109.994121,-2146.597232,11621.233289,12257.527968
109.994430,-7624.121203,13323.706956,10035.851024
109.994740,-7920.203579,23094.425390,-1532.190996
109.995050,14656.077652,9178.553681,-3370.820191
109.995360,-74.020594,10066.800811,14862.252661
109.995669,-16284.530724,8216.285956,33325.154163
109.995979,2886.803174,21317.931130,7660.954980
109.996289,-3034.844362,5181.441594,-5745.716235
109.996599,2812.782580,11843.295072,383.047749
109.996908,-13841.851115,2738.761985,12717.185267
109.997218,444.123565,16284.530724,2681.334243
109.997528,-444.123565,7698.141797,3370.820191
109.997837,-6587.832884,5995.668130,14938.862211
109.998147,7105.977043,5551.544565,14479.204912
109.998457,-6291.750507,-962.267725,11951.089769
109.998767,1850.514855,7179.997637,18233.072852
109.999076,-5107.421000,6069.688724,13100.233016
109.999386,1480.411884,8808.450710,-1149.143247
109.999696,-2812.782580,7550.100608,5669.106685
110.000005,-148.041188,14359.995275,-229.828649
110.000315,6291.750507,11103.089130,-5132.839837
110.000625,-222.061783,14211.954086,12104.308868
110.000935,740.205942,10584.944971,26430.294681
110.001244,2220.617826,2146.597232,19075.777900
110.001554,4145.153275,7105.977043,14709.033562
110.001864,-3034.844362,5625.565159,13023.623466
110.002173,2664.741391,13545.768739,1532.190996
110.002483,7402.059420,14434.015869,-8656.879127
110.002793,888.247130,17764.942608,1455.581446
110.003103,-5033.400406,14952.160028,17237.148705
110.003412,-7550.100608,11769.274478,16854.100956
110.003722,4515.256246,12139.377449,3907.087040
110.004032,4219.173869,8364.327145,-3064.381992
110.004342,2220.617826,7179.997637,-536.266849
110.004651,-148.041188,8290.306550,10725.336972
110.004961,-370.102971,11251.130318,14402.595362
110.005271,444.123565,9474.636058,10418.898773
110.005580,4589.276840,6069.688724,3524.039291
110.005890,-296.082377,4515.256246,2451.505594
110.006200,-7105.977043,3182.885551,7124.688131
110.006510,-3034.844362,7179.997637,4903.011187
110.006819,7254.018232,7402.059420,-6052.154434
110.007129,7105.977043,7772.162391,-2068.457845
110.007439,-3701.029710,6143.709319,17850.025103
110.007748,-7254.018232,8438.347739,23825.569988
110.008058,518.144159,11991.336260,8580.269578
110.008368,6291.750507,10658.965565,-5132.839837
110.008678,-0.000000,11991.336260,-3294.210641
110.008987,-9326.594869,12435.459826,1915.238745
110.009297,740.205942,14137.933492,-4519.963438
110.009607,9252.574275,14804.118840,-4903.011187
110.009917,1776.494261,10362.883188,11644.651570
110.010226,-5477.523971,5329.482782,26200.466032
110.010536,444.123565,5477.523971,21067.626195
110.010846,2886.803174,-5847.626942,3294.210641
110.011155,-6809.894666,5699.585753,-1608.800546
110.011465,12435.459826,10584.944971,8733.488677
110.011775,-9474.636058,2960.823768,1838.629195
110.012085,3330.926739,15988.448347,11031.775171
110.012394,-1998.556043,8956.491898,11568.042020
110.012704,370.102971,7179.997637,7431.126331
110.013014,-10288.862594,7624.121203,17160.539155
110.013323,-1110.308913,12509.480420,5132.839837
110.013633,6439.791695,10066.800811,-15475.129060
110.013943,1924.535449,14804.118840,-4290.134789
110.014253,-2220.617826,15248.242405,13406.671215
110.014562,-6217.729913,12361.439231,10035.851024
110.014872,3627.009116,14211.954086,5056.230287
110.015182,-4959.379811,10140.821405,5286.058936
110.015492,-5477.523971,10955.047942,2145.067394
110.015801,2368.659014,12287.418637,-2451.505594
110.016111,4219.173869,10955.047942,-8197.221829
110.016421,444.123565,11325.150913,229.828649
110.016730,-3034.844362,10140.821405,13406.671215
110.017040,-2738.761985,13397.727550,7354.516781
110.017350,2812.782580,8808.450710,-4060.306139
110.017660,3182.885551,9622.677246,-1991.848295
110.017969,-592.164754,8956.491898,5515.887586
110.018279,1036.288319,5107.421000,2604.724693
110.018589,4959.379811,2072.576638,2987.772442
110.018898,-814.226536,2368.659014,11108.384721
110.019208,370.102971,3256.906145,3677.258390
110.019518,6143.709319,7476.080014,-1991.848295
110.019828,1702.473667,12731.542202,3983.696590
110.020137,-4811.338623,8586.388927,4366.744339
110.020447,3330.926739,8364.327145,1455.581446
110.020757,-4367.215058,9326.594869,1915.238745
110.021067,-3923.091493,6365.771101,-1225.752797
110.021376,5625.565159,10140.821405,-7048.078582
110.021686,-1406.391290,12879.583391,919.314598
110.021996,-2516.700203,14508.036463,11951.089769
110.022305,2664.741391,13397.727550,7201.297681
110.022615,2738.761985,13767.830521,-2451.505594
110.022925,-740.205942,7328.038826,0.000000
110.023235,-666.185348,9474.636058,-2911.162892
110.023544,-3923.091493,14359.995275,536.266849
110.023854,-2146.597232,12953.603985,-2145.067394
110.024164,-444.123565,13841.851115,-3370.820191
110.024473,-6217.729913,14211.954086,-4136.915689
110.024783,-592.164754,6439.791695,-9346.365076
110.025093,-518.144159,6587.832884,-7507.735880
110.025403,-4293.194464,8364.327145,4290.134789
110.025712,-1998.556043,8364.327145,3907.087040
110.026022,6365.771101,12213.398043,-4979.620737
110.026332,1998.556043,4071.132681,-5439.278036
110.026642,-2072.576638,4441.235652,0.000000
110.026951,-148.041188,8660.409521,2451.505594
110.027261,-1258.350101,4293.194464,-2528.115143
110.027571,2072.576638,8660.409521,0.000000
110.027880,2960.823768,9400.615463,-4519.963438
110.028190,3775.050304,4959.379811,-12793.794817
110.028500,444.123565,7105.977043,-2987.772442
110.028810,-3108.864956,9030.512492,8810.098227
110.029119,4811.338623,7328.038826,4903.011187
110.029429,7994.224174,12065.356855,-536.266849
110.029739,2072.576638,9474.636058,1991.848295
110.030048,814.226536,7402.059420,-2451.505594
110.030358,5329.482782,11325.150913,-1685.410096
110.030668,444.123565,13175.665768,-689.485948
110.030978,-1776.494261,12435.459826,1532.190996
110.031287,222.061783,15026.180623,-1532.190996
110.031597,2368.659014,11399.171507,-10878.556072
110.031907,1406.391290,9622.677246,-11338.213370
110.032216,-3552.988522,13249.686362,3064.381992
110.032526,-4145.153275,10955.047942,4443.353888
110.032836,3256.906145,9844.739029,-689.485948
110.033146,1924.535449,6365.771101,-2757.943793
110.033455,-3330.926739,2516.700203,-3753.867940
110.033765,740.205942,7402.059420,-2145.067394
110.034075,-3552.988522,11473.192101,0.000000
110.034385,-3997.112087,10436.903782,76.609550
110.034694,-2072.576638,12213.398043,-4136.915689
110.035004,-518.144159,6587.832884,-12717.185267
110.035314,-1628.453072,5995.668130,-8963.317327
110.035623,-4737.318029,10732.986159,3064.381992
110.035933,-1776.494261,9622.677246,6358.592633
110.036243,518.144159,6883.915261,7354.516781
110.036553,3330.926739,7105.977043,3753.867940
110.036862,370.102971,2886.803174,-2911.162892
110.037172,888.247130,5107.421000,1838.629195
110.037482,-2664.741391,11029.068536,7814.174080
110.037791,2072.576638,12953.603985,3907.087040
110.038101,1850.514855,14285.974681,-229.828649
110.038411,-2442.679609,10955.047942,-4903.011187
110.038721,-148.041188,7402.059420,-4749.792088
110.039030,888.247130,12805.562797,-1072.533697
110.039340,-2294.638420,13027.624579,3524.039291
110.039650,1628.453072,11251.130318,4749.792088
110.039959,814.226536,12509.480420,5439.278036
110.040269,1628.453072,6883.915261,-4903.011187
110.040579,-0.000000,4145.153275,-5745.716235
110.040888,-1628.453072,12065.356855,3064.381992
110.041198,-2590.720797,11695.253884,1762.019645
110.041507,1776.494261,12731.542202,-2298.286494
110.041817,444.123565,12879.583391,-5362.668486
110.042127,-74.020594,6957.935855,-10725.336972
110.042436,1184.329507,6883.915261,-6741.640382
110.042746,-4367.215058,9474.636058,6205.373534
110.043056,-4959.379811,8438.347739,7814.174080
110.043365,6513.812290,9844.739029,229.828649
110.043675,2516.700203,4737.318029,-7354.516781
110.043985,-370.102971,3552.988522,-4136.915689
110.044294,-2590.720797,11177.109724,7814.174080
110.044604,-0.000000,10955.047942,2451.505594
110.044914,4811.338623,12953.603985,-1838.629195
110.045223,-148.041188,13767.830521,-2757.943793
110.045533,1258.350101,7254.018232,-5745.716235
110.045843,2590.720797,9474.636058,-3447.429741
110.046152,-2442.679609,11547.212695,6818.249932
110.046462,1554.432478,8364.327145,5975.544884
110.046772,7254.018232,6661.853478,1762.019645
110.047081,-74.020594,5551.544565,3140.991542
110.047391,-222.061783,5181.441594,2221.676944
110.047700,3701.029710,10066.800811,-306.438199
110.048010,-962.267725,13323.706956,919.314598
110.048320,296.082377,12065.356855,383.047749
110.048629,-0.000000,13693.809927,-5439.278036
110.048939,-2220.617826,10362.883188,-10495.508323
110.049249,-2368.659014,9992.780217,-6741.640382
110.049558,-2368.659014,15248.242405,3294.210641
110.049868,-3182.885551,9548.656652,1378.971896
110.050178,4441.235652,7994.224174,-842.705048
110.050487,666.185348,7698.141797,536.266849
110.050797,-2368.659014,2812.782580,-3677.258390
110.051107,-1036.288319,5181.441594,-3524.039291
110.051416,-4367.215058,9770.718434,-536.266849
110.051726,-2590.720797,9696.697840,-842.705048
110.052036,2146.597232,11917.315666,-7814.174080
110.052345,-2516.700203,11251.130318,-9269.755526
110.052655,-3627.009116,6069.688724,-5515.887586
110.052964,-0.000000,8364.327145,3677.258390
110.053274,-2812.782580,9400.615463,3600.648841
110.053584,2368.659014,7772.162391,4136.915689
110.053893,3775.050304,8512.368333,3447.429741
110.054203,-444.123565,5255.462188,-2068.457845
110.054513,3182.885551,7105.977043,-919.314598
110.054822,1702.473667,11029.068536,3140.991542
110.055132,-518.144159,14508.036463,536.266849
110.055442,1850.514855,13101.645173,153.219100
110.055751,740.205942,12583.501014,-4213.525239
110.056061,1776.494261,8512.368333,-9652.803275
110.056371,-1850.514855,11399.171507,-1608.800546
110.056680,-1554.432478,13841.851115,6358.592633
110.056990,3701.029710,9992.780217,-1225.752797
110.057300,3997.112087,9622.677246,-4443.353888
110.057609,-74.020594,9252.574275,2374.896044
110.057919,1110.308913,7476.080014,-229.828649
110.058229,1776.494261,12361.439231,-1915.238745
110.058538,-1554.432478,12583.501014,-459.657299
110.058848,-1480.411884,11399.171507,-2834.553343
110.059157,-1628.453072,10362.883188,-4903.011187
110.059467,-2442.679609,7698.141797,-9806.022374
110.059777,-666.185348,7920.203579,-7660.954980
110.060086,-5625.565159,14211.954086,919.314598
110.060396,-2886.803174,7179.997637,1685.410096
110.060706,370.102971,7105.977043,3064.381992
110.061015,3256.906145,4515.256246,-766.095498
110.061325,962.267725,2664.741391,-3524.039291
110.061635,222.061783,5773.606348,6511.811733
110.061944,592.164754,11695.253884,7431.126331
110.062254,962.267725,10362.883188,-1838.629195
110.062564,-888.247130,15470.304188,-3064.381992
110.062873,-1998.556043,11621.233289,-4136.915689
110.063183,-296.082377,9030.512492,-11338.213370
110.063493,-1998.556043,14211.954086,1149.143247
110.063802,-1850.514855,11029.068536,7814.174080
110.064112,6809.894666,9252.574275,842.705048
110.064422,740.205942,6143.709319,3217.601092
110.064731,-1406.391290,4219.173869,7431.126331
110.065041,6069.688724,7698.141797,2221.676944
110.065350,2960.823768,10436.903782,-1991.848295
110.065660,296.082377,13101.645173,2298.286494
110.065970,-962.267725,13175.665768,2528.115143
110.066279,-370.102971,11547.212695,-10878.556072
110.066589,-3478.967927,9770.718434,-11568.042020
110.066899,-4959.379811,12287.418637,0.000000
110.067208,592.164754,11473.192101,-4519.963438
110.067518,148.041188,9474.636058,-3983.696590
110.067828,1776.494261,9474.636058,3370.820191
110.068137,-1406.391290,2590.720797,-1991.848295
110.068447,592.164754,4589.276840,-5439.278036
110.068757,-0.000000,7105.977043,1915.238745
110.069066,-4145.153275,6735.874072,2834.553343
110.069376,666.185348,11325.150913,-4060.306139
110.069686,-1406.391290,9252.574275,-9882.631924
110.069995,-2294.638420,7402.059420,-12947.013916
110.070305,-1702.473667,12139.377449,-6358.592633
110.070614,-0.000000,12657.521608,-766.095498
110.070924,222.061783,7031.956449,1225.752797
110.071234,-962.267725,10807.006753,5745.716235
110.071543,3404.947333,4367.215058,-5822.325785
110.071853,3701.029710,5107.421000,-6435.202183
110.072163,1850.514855,10510.924376,-689.485948
110.072472,-370.102971,11991.336260,1915.238745
110.072782,3182.885551,13767.830521,689.485948
110.073092,666.185348,12509.480420,-5592.497135
110.073401,518.144159,7550.100608,-10189.070123
110.073711,-1036.288319,9622.677246,-2757.943793
110.074021,-3552.988522,12139.377449,4596.572988
110.074330,-518.144159,14878.139434,1685.410096
110.074640,3701.029710,10955.047942,-4060.306139
110.074950,1924.535449,5403.503377,-4290.134789
110.075259,1036.288319,3701.029710,-4903.011187
110.075569,-1480.411884,9252.574275,0.000000
110.075879,814.226536,11621.233289,3370.820191
110.076188,1332.370696,12435.459826,919.314598
110.076498,-888.247130,11251.130318,-2604.724693
110.076807,-2516.700203,5551.544565,-8197.221829
110.077117,-2220.617826,8438.347739,-8656.879127
110.077427,-1702.473667,10214.842000,-4290.134789
110.077736,-1036.288319,9252.574275,-1762.019645
110.078046,-1998.556043,8882.471304,766.095498
110.078356,814.226536,8438.347739,-306.438199
110.078665,3108.864956,4959.379811,-7967.393179
110.078975,592.164754,6069.688724,0.000000
110.079285,-2072.576638,9030.512492,7660.954980
110.079594,2516.700203,10288.862594,1302.362347
110.079904,1702.473667,12213.398043,-4290.134789
110.080214,814.226536,11991.336260,-4903.011187
110.080523,-592.164754,13471.748144,-7660.954980
110.080833,-0.000000,13545.768739,-2834.553343
110.081143,370.102971,12435.459826,3907.087040
110.081452,666.185348,10288.862594,8044.002729
110.081762,2516.700203,7254.018232,306.438199
110.082071,1924.535449,2220.617826,-3907.087040
110.082381,3330.926739,5773.606348,-1149.143247
110.082691,-0.000000,10658.965565,4903.011187
110.083000,-666.185348,10732.986159,4213.525239
110.083310,2960.823768,13841.851115,842.705048
110.083620,-222.061783,11547.212695,-6588.421283
110.083929,888.247130,6809.894666,-9652.803275
110.084239,-4885.359217,11843.295072,-1149.143247
110.084549,-3849.070898,14211.954086,1991.848295
110.084858,740.205942,9030.512492,-1915.238745
110.085168,222.061783,8586.388927,-1685.410096
110.085478,-0.000000,3775.050304,-4903.011187
110.085787,1406.391290,5181.441594,-5515.887586
110.086097,-1110.308913,9770.718434,3600.648841
110.086407,-518.144159,9030.512492,4290.134789
110.086716,1406.391290,10288.862594,1302.362347
110.087026,-0.000000,11399.171507,-5286.058936
110.087336,-1036.288319,5847.626942,-10495.508323
110.087645,-2368.659014,11843.295072,-5669.106685
110.087955,-4663.297435,11547.212695,1532.190996
110.088264,1184.329507,10955.047942,-1532.190996
110.088574,-296.082377,11251.130318,-1302.362347
110.088884,-0.000000,5255.462188,-1225.752797
110.089193,1924.535449,6069.688724,-4136.915689
110.089503,1258.350101,10288.862594,3294.210641
110.089813,592.164754,10955.047942,6818.249932
110.090122,3701.029710,8882.471304,2757.943793
110.090432,-666.185348,11473.192101,-383.047749
110.090742,-1036.288319,7624.121203,-2374.896044
110.091051,-740.205942,10436.903782,-6894.859482
110.091361,-1554.432478,15026.180623,-4060.306139
110.091671,-3330.926739,10955.047942,1225.752797
110.091980,3256.906145,13175.665768,0.000000
110.092290,296.082377,8734.430116,-5286.058936
110.092600,888.247130,4515.256246,-4366.744339
110.092909,-1332.370696,7698.141797,8656.879127
110.093219,-2368.659014,9326.594869,6435.202183
110.093529,2960.823768,9474.636058,-919.314598
110.093838,1776.494261,11325.150913,-4979.620737
110.094148,-2738.761985,8586.388927,-7354.516781
110.094457,-3108.864956,6957.935855,-9806.022374
110.094767,-2664.741391,8290.306550,-4366.744339
110.095077,-1554.432478,9474.636058,-766.095498
110.095386,-1850.514855,7402.059420,3064.381992
110.095696,2886.803174,9844.739029,-459.657299
110.096006,666.185348,5995.668130,-6511.811733
110.096315,-148.041188,9326.594869,-1378.971896
110.096625,370.102971,11621.233289,3064.381992
110.096935,2146.597232,11547.212695,-2911.162892
110.097244,4441.235652,12435.459826,-6588.421283
110.097554,-3701.029710,10881.027347,-4136.915689
110.097864,1110.308913,10214.842000,-7660.954980
110.098173,1406.391290,12953.603985,-766.095498
110.098483,-0.000000,12139.377449,4519.963438
110.098793,3701.029710,6883.915261,1225.752797
110.099102,1554.432478,6883.915261,459.657299
110.099412,-666.185348,2738.761985,842.705048
110.099721,1998.556043,7179.997637,-3140.991542
110.100031,370.102971,9252.574275,-2451.505594
110.100341,592.164754,12435.459826,-612.876398
110.100650,1628.453072,12361.439231,-383.047749
110.100960,-1776.494261,9696.697840,-4443.353888
110.101270,-2146.597232,6661.853478,-5745.716235
110.101579,-1924.535449,9548.656652,-2374.896044
110.101889,-296.082377,9326.594869,-459.657299
110.102199,-0.000000,9104.533087,766.095498
110.102508,1628.453072,9252.574275,2298.286494
110.102818,-296.082377,3849.070898,-2528.115143
110.103128,370.102971,1850.514855,-5286.058936
110.103437,-222.061783,7402.059420,-229.828649
110.103747,-4441.235652,9918.759623,1149.143247
110.104057,3849.070898,13767.830521,-3524.039291
110.104366,-3034.844362,11399.171507,-3447.429741
110.104676,-2738.761985,12287.418637,-5362.668486
110.104986,1110.308913,13989.892304,-1378.971896
110.105295,-1036.288319,11769.274478,-459.657299
110.105605,-0.000000,11103.089130,1532.190996
110.105914,-296.082377,11547.212695,2757.943793
110.106224,1702.473667,6069.688724,-2374.896044
110.106534,2146.597232,7550.100608,-7737.564530
110.106843,814.226536,11917.315666,153.219100
110.107153,518.144159,8364.327145,-536.266849
110.107463,2220.617826,9992.780217,-306.438199
110.107772,-2220.617826,8808.450710,-383.047749
110.108082,-3404.947333,7772.162391,-1149.143247
110.108392,3182.885551,9548.656652,-6281.983084
110.108701,1554.432478,11325.150913,-5439.278036
110.109011,-1480.411884,11547.212695,2528.115143
110.109321,-0.000000,11917.315666,4060.306139
110.109630,2442.679609,7846.182985,-2834.553343
110.109940,-666.185348,4589.276840,-5286.058936
110.110250,-2294.638420,7476.080014,1915.238745
110.110559,-2960.823768,9770.718434,1685.410096
110.110869,2072.576638,9474.636058,-4903.011187
110.111178,1332.370696,11399.171507,-4366.744339
110.111488,-5995.668130,6291.750507,-7660.954980
110.111798,1480.411884,7179.997637,-6511.811733
110.112107,-222.061783,8142.265362,-3600.648841
110.112417,-2368.659014,9474.636058,3217.601092
110.112727,-888.247130,8808.450710,4519.963438
110.113036,1702.473667,9030.512492,-3830.477490
110.113346,4219.173869,6291.750507,-9652.803275
110.113656,1480.411884,9400.615463,-5362.668486
110.113965,296.082377,12435.459826,1838.629195
110.114275,-2590.720797,11103.089130,3447.429741
110.114585,740.205942,13397.727550,-612.876398
110.114894,-0.000000,10436.903782,-4213.525239
110.115204,444.123565,8586.388927,-8886.707777
110.115514,444.123565,9696.697840,-3677.258390
110.115823,148.041188,11695.253884,1991.848295
110.116133,2664.741391,8882.471304,2911.162892
110.116443,3775.050304,6661.853478,1072.533697
110.116752,-962.267725,3701.029710,-842.705048
110.117062,1184.329507,6513.812290,-229.828649
110.117371,2294.638420,11695.253884,-383.047749
110.117681,-1406.391290,12805.562797,-1302.362347
110.117991,814.226536,13249.686362,919.314598
110.118300,-1258.350101,11103.089130,-3753.867940
110.118610,-1258.350101,8660.409521,-11338.213370
110.118920,-1258.350101,8142.265362,-4826.401637
110.119229,-4219.173869,12065.356855,3677.258390
110.119539,1110.308913,6735.874072,2528.115143
110.119849,3849.070898,7476.080014,3064.381992
110.120158,1628.453072,6069.688724,-1225.752797
110.120468,740.205942,-592.164754,-4826.401637
110.120778,-1628.453072,8068.244768,-612.876398
110.121087,-1924.535449,8660.409521,383.047749
110.121397,1702.473667,12287.418637,-1608.800546
110.121707,-1036.288319,15840.407159,-2451.505594
110.122016,-1406.391290,11177.109724,-8350.440928
110.122326,1776.494261,9548.656652,-9652.803275
110.122636,-2516.700203,10584.944971,919.314598
110.122945,-3478.967927,10436.903782,3600.648841
110.123255,4737.318029,9918.759623,1915.238745
110.123564,4219.173869,9918.759623,-1378.971896
110.123874,-814.226536,6883.915261,-1378.971896
110.124184,3552.988522,9326.594869,842.705048
110.124493,740.205942,8734.430116,3830.477490
110.124803,-1554.432478,9696.697840,3217.601092
110.125113,-296.082377,11843.295072,0.000000
110.125422,-1406.391290,9178.553681,-7124.688131
110.125732,-1036.288319,11473.192101,-4596.572988
110.126042,-296.082377,13545.768739,-2298.286494
110.126351,-2664.741391,11843.295072,3370.820191
110.126661,3034.844362,9696.697840,3753.867940
110.126971,2368.659014,7698.141797,2145.067394
110.127280,-3997.112087,1998.556043,229.828649
110.127590,962.267725,4441.235652,3983.696590
110.127900,518.144159,12139.377449,3217.601092
110.128209,-814.226536,9030.512492,-995.924147
110.128519,592.164754,11991.336260,-1302.362347
110.128828,-1184.329507,10140.821405,-8044.002729
110.129138,-2146.597232,5551.544565,-13100.233016
110.129448,666.185348,11843.295072,-3140.991542
110.129757,-4219.173869,11029.068536,6052.154434
110.130067,1406.391290,11103.089130,2451.505594
110.130377,4293.194464,9770.718434,2987.772442
110.130686,-1776.494261,3775.050304,766.095498
110.130996,814.226536,7402.059420,-536.266849
110.131306,3108.864956,13397.727550,-1149.143247
110.131615,-222.061783,13397.727550,-2528.115143
110.131925,-148.041188,15766.386565,-766.095498
110.132235,1184.329507,13619.789333,-4673.182538
110.132544,-962.267725,8290.306550,-10189.070123
110.132854,1110.308913,9400.615463,-6435.202183
110.133164,-4367.215058,9252.574275,7584.345430
110.133473,1184.329507,5773.606348,5209.449386
110.133783,7179.997637,9030.512492,842.705048
110.134093,222.061783,6957.935855,-612.876398
110.134402,222.061783,5477.523971,1532.190996
110.134712,-1184.329507,12361.439231,1762.019645
110.135021,-222.061783,11843.295072,-2068.457845
110.135331,740.205942,11695.253884,-2681.334243
110.135641,-5255.462188,13545.768739,-766.095498
110.135950,-2220.617826,9104.533087,-8197.221829
110.136260,3627.009116,8216.285956,-9422.974625
110.136570,-2072.576638,11029.068536,2145.067394
110.136879,-3775.050304,8586.388927,7584.345430
110.137189,3552.988522,4959.379811,8350.440928
110.137499,1924.535449,3108.864956,-3217.601092
110.137808,-2072.576638,1776.494261,-1378.971896
110.138118,-74.020594,7476.080014,3064.381992
110.138428,-0.000000,9622.677246,-2681.334243
110.138737,3034.844362,14804.118840,-7354.516781
110.139047,-1998.556043,16210.510130,-1149.143247
110.139357,-1480.411884,10288.862594,-5975.544884
110.139666,1850.514855,9548.656652,-7737.564530
110.139976,-888.247130,13175.665768,1149.143247
110.140285,1480.411884,12657.521608,2911.162892
110.140595,4515.256246,9770.718434,-153.219100
110.140905,1702.473667,7254.018232,995.924147
110.141214,-148.041188,4811.338623,229.828649
110.141524,3182.885551,4145.153275,3524.039291
110.141833,888.247130,9178.553681,1685.410096
110.142143,-1332.370696,11103.089130,2451.505594
110.142452,1184.329507,13545.768739,995.924147
110.142762,296.082377,11695.253884,-7201.297681
110.143071,-2072.576638,7846.182985,-8656.879127
110.143381,-3849.070898,12953.603985,3217.601092
110.143691,-2368.659014,10510.924376,2298.286494
110.144000,3701.029710,7179.997637,-4979.620737
110.144310,2294.638420,9030.512492,689.485948
110.144619,-3701.029710,6957.935855,3983.696590
110.144929,2738.761985,5107.421000,-1302.362347
110.145238,2146.597232,8364.327145,0.000000
110.145548,-2738.761985,6069.688724,3983.696590
110.145857,-148.041188,9696.697840,1762.019645
110.146167,-2516.700203,9474.636058,-4213.525239
110.146476,740.205942,8734.430116,-10878.556072
110.146786,-1850.514855,12583.501014,-7124.688131
110.147095,-3552.988522,12435.459826,1838.629195
110.147405,962.267725,11843.295072,-2604.724693
110.147714,2516.700203,9696.697840,-919.314598
110.148024,-0.000000,6069.688724,1072.533697
110.148333,-148.041188,4219.173869,2451.505594
110.148643,1480.411884,9326.594869,8273.831378
110.148953,2516.700203,11325.150913,2374.896044
110.149262,592.164754,12139.377449,1072.533697
110.149572,-1110.308913,13915.871710,-2068.457845
110.149881,-888.247130,10584.944971,-12027.699319
110.150191,-962.267725,6883.915261,-10878.556072
110.150500,-592.164754,12213.398043,689.485948
110.150810,-962.267725,11621.233289,1225.752797
110.151119,3182.885551,7846.182985,995.924147
110.151429,2886.803174,5847.626942,4903.011187
110.151738,-592.164754,2590.720797,3524.039291
110.152048,2590.720797,5773.606348,2528.115143
110.152357,-1406.391290,11029.068536,2987.772442
110.152667,-1406.391290,11991.336260,612.876398
110.152976,296.082377,15544.324782,-7967.393179
110.153286,-1406.391290,8512.368333,-13406.671215
110.153595,-2294.638420,8216.285956,-9193.145976
110.153905,-1998.556043,11325.150913,0.000000
110.154214,-1036.288319,6883.915261,1532.190996
110.154524,666.185348,6217.729913,6128.763984
110.154834,666.185348,7846.182985,4749.792088
110.155143,1332.370696,3330.926739,-4749.792088
110.155453,3552.988522,6217.729913,-2221.676944
110.155762,2220.617826,11177.109724,4903.011187
110.156072,-2072.576638,11843.295072,-306.438199
110.156381,1036.288319,13989.892304,-2757.943793
110.156691,-1998.556043,11621.233289,-6128.763984
110.157000,-1554.432478,10066.800811,-9806.022374
110.157310,-962.267725,14730.098246,-1072.533697
110.157619,666.185348,11473.192101,229.828649
110.157929,3849.070898,7624.121203,459.657299
110.158238,1036.288319,9030.512492,3064.381992
110.158548,-3182.885551,5921.647536,4060.306139
110.158857,3034.844362,6069.688724,-2145.067394
110.159167,962.267725,10732.986159,766.095498
110.159476,-2812.782580,13101.645173,3524.039291
110.159786,962.267725,12435.459826,2374.896044
110.160095,1110.308913,14804.118840,-9806.022374
110.160405,-1184.329507,6217.729913,-11721.261119
110.160715,-814.226536,12509.480420,-2834.553343
110.161024,-2146.597232,10881.027347,2528.115143
110.161334,370.102971,7402.059420,2145.067394
110.161643,518.144159,7772.162391,4826.401637
110.161953,-2368.659014,4071.132681,1455.581446
110.162262,222.061783,2812.782580,-2757.943793
110.162572,-0.000000,8364.327145,842.705048
110.162881,-296.082377,9252.574275,-842.705048
110.163191,2368.659014,10584.944971,-1762.019645
110.163500,-1924.535449,12065.356855,-2221.676944
110.163810,-1554.432478,9178.553681,-7201.297681
110.164119,962.267725,8290.306550,-7431.126331
110.164429,-1480.411884,11843.295072,995.924147
110.164738,-2368.659014,10066.800811,4443.353888
110.165048,3108.864956,12731.542202,1838.629195
110.165357,1332.370696,7105.977043,-4673.182538
110.165667,-0.000000,5477.523971,-4366.744339
110.165977,1258.350101,9178.553681,1915.238745
110.166286,740.205942,9326.594869,1838.629195
110.166596,518.144159,9844.739029,2298.286494
110.166905,-592.164754,15470.304188,2451.505594
110.167215,-1184.329507,11547.212695,-4443.353888
110.167524,1850.514855,10584.944971,-11414.822920
110.167834,-1480.411884,12879.583391,-383.047749
110.168143,-3775.050304,10214.842000,2451.505594
110.168453,2664.741391,9918.759623,383.047749
110.168762,1036.288319,7920.203579,-1532.190996
110.169072,-2886.803174,5033.400406,-2681.334243
110.169381,1850.514855,7105.977043,2451.505594
110.169691,-518.144159,9696.697840,2298.286494
110.170000,444.123565,9474.636058,2145.067394
110.170310,296.082377,11695.253884,2145.067394
110.170619,-1628.453072,5181.441594,-6358.592633
110.170929,-592.164754,6291.750507,-8886.707777
110.171238,-0.000000,14211.954086,-1838.629195
110.171548,-3552.988522,10510.924376,-1685.410096
110.171858,1258.350101,11251.130318,-383.047749
110.172167,370.102971,7920.203579,229.828649
110.172477,-1258.350101,2812.782580,-4443.353888
110.172786,1924.535449,7920.203579,-306.438199
110.173096,-0.000000,8734.430116,3907.087040
110.173405,-74.020594,12139.377449,3370.820191
110.173715,3182.885551,13471.748144,842.705048
110.174024,1406.391290,10658.965565,-5975.544884
110.174334,-2664.741391,8142.265362,-10955.165621
110.174643,-666.185348,11251.130318,-4060.306139
110.174953,-814.226536,12213.398043,-1991.848295
110.175262,-370.102971,11325.150913,-1608.800546
110.175572,2294.638420,13545.768739,1378.971896
110.175881,1702.473667,6587.832884,-2298.286494
110.176191,1332.370696,5403.503377,-2221.676944
110.176500,-444.123565,9548.656652,4443.353888
110.176810,-592.164754,10584.944971,3753.867940
110.177120,1628.453072,12731.542202,306.438199
110.177429,1480.411884,11621.233289,-4443.353888
110.177739,-2590.720797,7402.059420,-7048.078582
110.178048,-518.144159,11473.192101,-4903.011187
110.178358,-2590.720797,12657.521608,-2834.553343
110.178667,-592.164754,5625.565159,-1762.019645
110.178977,-370.102971,9770.718434,3064.381992
110.179286,-518.144159,5033.400406,-995.924147
110.179596,518.144159,5477.523971,-4443.353888
110.179905,-444.123565,10955.047942,3524.039291
110.180215,-1110.308913,7031.956449,3983.696590
110.180524,1110.308913,9622.677246,0.000000
110.180834,-666.185348,11769.274478,-612.876398
110.181143,-1110.308913,7550.100608,-7967.393179
110.181453,-592.164754,9474.636058,-7354.516781
110.181762,-2368.659014,13915.871710,-1532.190996
110.182072,-888.247130,9992.780217,1378.971896
110.182381,4515.256246,10732.986159,0.000000
110.182691,-1036.288319,8068.244768,-306.438199
110.183001,-222.061783,5033.400406,0.000000
110.183310,962.267725,8438.347739,1149.143247
110.183620,444.123565,13101.645173,0.000000
110.183929,518.144159,13323.706956,0.000000
110.184239,-74.020594,11473.192101,-1149.143247
110.184548,888.247130,10214.842000,-8886.707777
110.184858,-148.041188,9326.594869,-8810.098227
110.185167,-1850.514855,11695.253884,1072.533697
110.185477,-1036.288319,9770.718434,2528.115143
110.185786,1184.329507,11473.192101,1149.143247
110.186096,1480.411884,7402.059420,1685.410096
110.186405,-1628.453072,1480.411884,-2068.457845
110.186715,-0.000000,7254.018232,-2068.457845
110.187024,-3108.864956,12435.459826,2145.067394
110.187334,-1554.432478,11103.089130,-1915.238745
110.187643,-518.144159,12583.501014,-4366.744339
110.187953,-0.000000,10807.006753,-6741.640382
110.188263,-1406.391290,3849.070898,-7354.516781
110.188572,-1406.391290,8512.368333,-1685.410096
110.188882,-370.102971,10066.800811,1302.362347
110.189191,-592.164754,6365.771101,2068.457845
110.189501,1924.535449,8660.409521,3983.696590
110.189810,-1406.391290,5477.523971,-2681.334243
110.190120,1776.494261,5477.523971,-6741.640382
110.190429,2368.659014,11399.171507,-1991.848295
110.190739,-3108.864956,11177.109724,-842.705048
110.191048,1850.514855,13767.830521,-1455.581446
110.191358,1554.432478,12139.377449,-1991.848295
110.191667,-1998.556043,10066.800811,-7584.345430
110.191977,888.247130,11917.315666,-3064.381992
110.192286,1480.411884,11251.130318,229.828649
110.192596,1480.411884,9252.574275,-383.047749
110.192905,4293.194464,12953.603985,2604.724693
110.193215,-444.123565,5403.503377,-689.485948
110.193524,-444.123565,6513.812290,-4979.620737
110.193834,1110.308913,10214.842000,459.657299
110.194144,-444.123565,9400.615463,842.705048
110.194453,-814.226536,9844.739029,-2068.457845
110.194763,-222.061783,12435.459826,-1225.752797
110.195072,888.247130,6587.832884,-7967.393179
110.195382,888.247130,9400.615463,-6971.469032
110.195691,-592.164754,15026.180623,1302.362347
110.196001,-3034.844362,7105.977043,3370.820191
110.196310,814.226536,10732.986159,2145.067394
110.196620,-0.000000,7550.100608,-2374.896044
110.196929,-1036.288319,4367.215058,-4673.182538
110.197239,1480.411884,7402.059420,-919.314598
110.197548,-0.000000,9992.780217,-2834.553343
110.197858,-1110.308913,9474.636058,-1302.362347
110.198167,370.102971,10732.986159,3294.210641
110.198477,-2072.576638,7624.121203,-6511.811733
110.198786,444.123565,7994.224174,-8733.488677
110.199096,-0.000000,12361.439231,-766.095498
110.199405,-1332.370696,7254.018232,-536.266849
110.199715,-0.000000,7846.182985,1149.143247
110.200025,1998.556043,11843.295072,4519.963438
110.200334,-592.164754,7179.997637,-2911.162892
110.200644,1998.556043,8808.450710,-4673.182538
110.200953,-2442.679609,11695.253884,1225.752797
110.201263,740.205942,12435.459826,-1378.971896
110.201572,2442.679609,15840.407159,-2528.115143
110.201882,-74.020594,11843.295072,-3983.696590
110.202191,-370.102971,7920.203579,-8350.440928
110.202501,-296.082377,10362.883188,-2068.457845
110.202810,592.164754,9992.780217,2987.772442
110.203120,-740.205942,8586.388927,4519.963438
110.203429,1480.411884,11103.089130,6128.763984
110.203739,518.144159,4811.338623,-1762.019645
110.204048,-592.164754,4811.338623,-3294.210641
110.204358,-3627.009116,12583.501014,4213.525239
110.204667,-2664.741391,9770.718434,0.000000
110.204977,1184.329507,13249.686362,-2681.334243
110.205287,-296.082377,12583.501014,-4749.792088
110.205596,-1110.308913,6809.894666,-11184.994271
110.205906,-1036.288319,8734.430116,-6435.202183
110.206215,-2516.700203,9918.759623,3524.039291
110.206525,-740.205942,7846.182985,3294.210641
110.206834,1702.473667,6587.832884,5209.449386
110.207144,-74.020594,5847.626942,1532.190996
110.207453,-222.061783,4145.153275,-4290.134789
110.207763,1258.350101,9178.553681,-766.095498
110.208072,370.102971,10066.800811,-2451.505594
110.208382,-1110.308913,12509.480420,-2834.553343
110.208691,-1332.370696,17764.942608,-153.219100
110.209001,-592.164754,9474.636058,-11568.042020
110.209310,1850.514855,9178.553681,-10342.289223
110.209620,444.123565,12139.377449,2451.505594
110.209929,-444.123565,10288.862594,8580.269578
110.210239,5255.462188,9918.759623,3983.696590
110.210548,1628.453072,7031.956449,3677.258390
110.210858,444.123565,3923.091493,-1072.533697
110.211168,1776.494261,9844.739029,1532.190996
110.211477,1480.411884,12953.603985,4290.134789
110.211787,-1924.535449,13101.645173,-2374.896044
110.212096,1110.308913,14359.995275,-2374.896044
110.212406,-1258.350101,10658.965565,-9959.241474
110.212715,-1480.411884,5107.421000,-9269.755526
110.213025,-1332.370696,15544.324782,766.095498
110.213334,-1036.288319,7772.162391,4060.306139
110.213644,2960.823768,7846.182985,3294.210641
110.213953,1332.370696,9474.636058,4826.401637
110.214263,-2442.679609,2812.782580,383.047749
110.214572,2442.679609,6883.915261,-612.876398
110.214882,-518.144159,8882.471304,612.876398
110.215191,-1406.391290,9770.718434,-2221.676944
110.215501,-222.061783,12805.562797,-2528.115143
110.215810,-370.102971,8142.265362,-8580.269578
110.216120,296.082377,7105.977043,-12104.308868
110.216430,-814.226536,11621.233289,-2221.676944
110.216739,-1850.514855,10066.800811,2451.505594
110.217049,1850.514855,6439.791695,-1225.752797
110.217358,3478.967927,8290.306550,3217.601092
110.217668,1702.473667,4219.173869,-1532.190996
110.217977,-296.082377,7179.997637,-1225.752797
110.218287,1702.473667,11473.192101,2528.115143
110.218596,-814.226536,12435.459826,536.266849
110.218906,1258.350101,16876.695478,-1838.629195
110.219215,-740.205942,14878.139434,-4673.182538
110.219525,-740.205942,7624.121203,-12487.356617
110.219834,666.185348,12139.377449,-5822.325785
110.220144,-1850.514855,12583.501014,2451.505594
110.220453,1480.411884,8586.388927,3217.601092
110.220763,2812.782580,8438.347739,4519.963438
110.221072,666.185348,5847.626942,3524.039291
110.221382,-666.185348,5033.400406,-536.266849
110.221691,1554.432478,9696.697840,3907.087040
110.222001,518.144159,11473.192101,689.485948
110.222311,-1998.556043,13619.789333,-2298.286494
110.222620,1554.432478,13471.748144,-4673.182538
110.222930,-1850.514855,7105.977043,-9806.022374
110.223239,-4515.256246,9400.615463,-4979.620737
110.223549,-2146.597232,10732.986159,4826.401637
110.223858,-1480.411884,8142.265362,306.438199
110.224168,2072.576638,6143.709319,1991.848295
110.224477,-0.000000,4885.359217,2987.772442
110.224787,-1036.288319,3330.926739,-4290.134789
110.225096,2368.659014,6587.832884,0.000000
110.225406,1184.329507,10436.903782,2987.772442
110.225715,-444.123565,11917.315666,-4290.134789
110.226025,1184.329507,12731.542202,-4136.915689
110.226334,592.164754,8882.471304,-10189.070123
110.226644,-2368.659014,9918.759623,-9652.803275
110.226953,1406.391290,14359.995275,-229.828649
110.227263,2516.700203,9252.574275,-2757.943793
110.227573,666.185348,10584.944971,459.657299
110.227882,2590.720797,9474.636058,3907.087040
110.228192,1850.514855,3330.926739,-1608.800546
110.228501,2072.576638,8364.327145,-306.438199
110.228811,1998.556043,12361.439231,5592.497135
110.229120,-0.000000,10436.903782,-459.657299
110.229430,1628.453072,11473.192101,-1762.019645
110.229739,-1258.350101,11695.253884,-5132.839837
110.230049,-4145.153275,7994.224174,-8427.050478
110.230358,-1258.350101,15174.221811,-3600.648841
110.230668,888.247130,12583.501014,-2145.067394
110.230977,-148.041188,7698.141797,-306.438199
110.231287,-1406.391290,8438.347739,5209.449386
110.231596,-1332.370696,1110.308913,1915.238745
110.231906,370.102971,3404.947333,1225.752797
110.232215,1850.514855,7550.100608,5515.887586
110.232525,-1258.350101,8734.430116,1838.629195
110.232834,-2294.638420,10807.006753,-2068.457845
110.233144,1184.329507,9252.574275,-8273.831378
110.233454,-3330.926739,8290.306550,-13483.280765
110.233763,-3108.864956,11547.212695,-4443.353888
110.234073,2072.576638,13397.727550,-536.266849
110.234382,-740.205942,7402.059420,-3907.087040
110.234692,1776.494261,10362.883188,3983.696590
110.235001,2220.617826,3256.906145,3600.648841
110.235311,1184.329507,2812.782580,-995.924147
110.235620,4441.235652,11769.274478,6281.983084
110.235930,2146.597232,12065.356855,766.095498
110.236239,592.164754,11621.233289,-3294.210641
110.236549,222.061783,15470.304188,-1532.190996
110.236858,-1036.288319,14211.954086,-11491.432470
110.237168,-222.061783,11547.212695,-10955.165621
110.237477,296.082377,14952.160028,995.924147
110.237787,-1702.473667,10658.965565,459.657299
110.238096,3627.009116,7994.224174,1149.143247
110.238406,740.205942,6143.709319,5132.839837
110.238715,-1998.556043,2516.700203,4060.306139
110.239025,2590.720797,7402.059420,3753.867940
110.239335,1110.308913,7994.224174,1455.581446
110.239644,-3404.947333,8660.409521,-612.876398
110.239954,-1628.453072,12287.418637,2374.896044
110.240263,-1036.288319,10436.903782,-11261.603821
110.240573,-3997.112087,9252.574275,-10955.165621
110.240882,-1776.494261,13545.768739,229.828649
110.241192,-962.267725,6957.935855,-1532.190996
110.241501,-444.123565,7105.977043,-1991.848295
110.241811,2146.597232,7698.141797,6741.640382
110.242120,-0.000000,-74.020594,-1455.581446
110.242430,1776.494261,5847.626942,766.095498
110.242739,1850.514855,9252.574275,7201.297681
110.243049,-1258.350101,9400.615463,-1762.019645
110.243358,1628.453072,11399.171507,-4290.134789
110.243668,2368.659014,13101.645173,-7201.297681
110.243977,-2368.659014,11917.315666,-10572.117872
110.244287,2812.782580,13027.624579,-536.266849
110.244597,1332.370696,11769.274478,612.876398
110.244906,-1998.556043,9992.780217,4749.792088
110.245216,814.226536,12657.521608,6205.373534
110.245525,2886.803174,7105.977043,-2681.334243
110.245835,3849.070898,9326.594869,-4596.572988
110.246144,3627.009116,10658.965565,4290.134789
110.246454,-2886.803174,9178.553681,2298.286494
110.246763,222.061783,12287.418637,1149.143247
110.247073,1776.494261,13471.748144,-6741.640382
110.247382,-1110.308913,9030.512492,-10495.508323
110.247691,-2442.679609,11843.295072,-689.485948
110.248001,-0.000000,11621.233289,995.924147
110.248310,-1332.370696,4959.379811,-1915.238745
110.248620,-962.267725,12657.521608,919.314598
110.248929,-888.247130,3182.885551,-383.047749
110.249239,-518.144159,3330.926739,-4596.572988
110.249548,3923.091493,8438.347739,3064.381992
110.249858,-1924.535449,5329.482782,4596.572988
110.250167,-592.164754,9326.594869,2528.115143
110.250477,-296.082377,11251.130318,-1378.971896
110.250786,-2368.659014,6957.935855,-11414.822920
110.251096,-0.000000,10584.944971,-8733.488677
110.251405,2590.720797,11991.336260,-766.095498
110.251715,296.082377,11251.130318,-4290.134789
110.252024,-888.247130,12583.501014,3217.601092
110.252334,2368.659014,9918.759623,3524.039291
110.252643,1110.308913,4811.338623,-3677.258390
110.252952,666.185348,11843.295072,2604.724693
110.253262,2368.659014,9104.533087,3830.477490
110.253571,-74.020594,11991.336260,612.876398
110.253881,3997.112087,17987.004391,-2451.505594
110.254190,2072.576638,8956.491898,-7507.735880
110.254500,-444.123565,9178.553681,-7660.954980
110.254809,-444.123565,14434.015869,1685.410096
110.255119,-1998.556043,9992.780217,689.485948
110.255428,-148.041188,9696.697840,2451.505594
110.255738,-0.000000,11843.295072,2451.505594
110.256047,296.082377,1554.432478,-5898.935335
110.256357,3182.885551,4811.338623,-766.095498
110.256666,296.082377,11621.233289,3907.087040
110.256976,-3256.906145,8882.471304,3294.210641
110.257285,444.123565,10214.842000,5286.058936
110.257594,-740.205942,7994.224174,-5286.058936
110.257904,-2368.659014,5033.400406,-8503.660028
110.258213,-1480.411884,12139.377449,0.000000
110.258523,-4219.173869,9030.512492,-4673.182538
110.258832,-740.205942,7920.203579,-1378.971896
110.259142,-370.102971,11769.274478,2221.676944
110.259451,-1110.308913,4959.379811,-6588.421283
110.259761,3330.926739,5921.647536,-2604.724693
110.260070,1776.494261,8956.491898,10955.165621
110.260380,-888.247130,8290.306550,5132.839837
110.260689,2516.700203,11473.192101,2221.676944
110.260999,1406.391290,9400.615463,-4596.572988
110.261308,-2664.741391,8290.306550,-9882.631924
110.261618,1184.329507,12509.480420,-4903.011187
110.261927,962.267725,15396.283594,-4443.353888
110.262237,-1776.494261,12583.501014,-1991.848295
110.262546,1924.535449,13249.686362,4826.401637
110.262855,-370.102971,10362.883188,-995.924147
110.263165,222.061783,5329.482782,-2451.505594
110.263474,4367.215058,10732.986159,4979.620737
110.263784,222.061783,7846.182985,2987.772442
110.264093,1184.329507,10140.821405,2221.676944
110.264403,296.082377,11103.089130,689.485948
110.264712,-5107.421000,5995.668130,-9039.926876
110.265022,-666.185348,9030.512492,-4979.620737
110.265331,518.144159,14878.139434,-1149.143247
110.265641,-3997.112087,10955.047942,-8886.707777
110.265950,-1998.556043,10362.883188,3830.477490
110.266260,-1258.350101,8142.265362,536.266849
110.266569,-518.144159,-518.144159,-5515.887586
110.266879,4071.132681,8660.409521,3064.381992
110.267188,-0.000000,9030.512492,3524.039291
110.267497,-1258.350101,7105.977043,459.657299
110.267807,888.247130,10732.986159,76.609550
110.268116,-4737.318029,7105.977043,-7201.297681
110.268426,1110.308913,9770.718434,-8427.050478
110.268735,5107.421000,12361.439231,-3370.820191
110.269045,-296.082377,12583.501014,-3677.258390
110.269354,-1480.411884,9178.553681,4903.011187
110.269664,1406.391290,8882.471304,2681.334243
110.269973,-1406.391290,4885.359217,-6818.249932
110.270283,4293.194464,9474.636058,153.219100
110.270592,2664.741391,13767.830521,1149.143247
110.270902,-1628.453072,9474.636058,-2145.067394
110.271211,3701.029710,15396.283594,766.095498
110.271521,-2590.720797,9178.553681,-6588.421283
110.271830,-0.000000,8660.409521,-10572.117872
110.272139,2368.659014,13915.871710,-1072.533697
110.272449,-1850.514855,9696.697840,-153.219100
110.272758,1184.329507,7402.059420,2374.896044
110.273068,-0.000000,9030.512492,4903.011187
110.273377,-3108.864956,1258.350101,-1685.410096
110.273687,-740.205942,3923.091493,689.485948
110.273996,1628.453072,13249.686362,-612.876398
110.274306,-2664.741391,7846.182985,-9652.803275
110.274615,740.205942,12065.356855,-1838.629195
110.274925,-2886.803174,8882.471304,-2604.724693
110.275234,-3478.967927,7328.038826,-9422.974625
110.275544,2516.700203,11769.274478,-1455.581446
110.275853,-148.041188,9548.656652,2528.115143
110.276163,-1628.453072,6809.894666,4673.182538
110.276472,666.185348,10288.862594,5515.887586
110.276782,-1332.370696,4589.276840,-4749.792088
110.277091,-2590.720797,6217.729913,-3753.867940
110.277400,1924.535449,13175.665768,-1762.019645
110.277710,-518.144159,10584.944971,-4903.011187
110.278019,1924.535449,11547.212695,-1302.362347
110.278329,-0.000000,11843.295072,536.266849
110.278638,-2368.659014,8364.327145,-5286.058936
110.278948,4737.318029,11325.150913,-2451.505594
110.279257,2368.659014,11399.171507,1378.971896
110.279567,-1998.556043,9326.594869,76.609550
110.279876,666.185348,10140.821405,6128.763984
110.280186,370.102971,8808.450710,-1991.848295
110.280495,518.144159,7254.018232,-6894.859482
110.280805,2368.659014,13767.830521,-842.705048
110.281114,-0.000000,10288.862594,-1608.800546
110.281424,-740.205942,8734.430116,-2451.505594
110.281733,-444.123565,12879.583391,2834.553343
110.282042,-3034.844362,6661.853478,-7124.688131
110.282352,296.082377,5847.626942,-4519.963438
110.282661,518.144159,10066.800811,3064.381992
110.282971,-2146.597232,8290.306550,0.000000
110.283280,-962.267725,9696.697840,1838.629195
110.283590,-2590.720797,8142.265362,2298.286494
110.283899,-2516.700203,4367.215058,-5056.230287
110.284209,2368.659014,9326.594869,-2145.067394
110.284518,1036.288319,11029.068536,-2145.067394
110.284828,-1850.514855,9696.697840,-919.314598
110.285137,-0.000000,12139.377449,4903.011187
110.285447,-1332.370696,7476.080014,-4749.792088
110.285756,-1036.288319,6957.935855,-7431.126331
110.286066,3552.988522,10955.047942,459.657299
110.286375,-1776.494261,8290.306550,-1378.971896
110.286684,-296.082377,9696.697840,-383.047749
110.286994,2664.741391,11029.068536,5209.449386
110.287303,-1110.308913,7179.997637,-3677.258390
110.287613,3552.988522,9622.677246,-2987.772442
110.287922,1924.535449,12657.521608,612.876398
110.288232,-148.041188,10807.006753,-612.876398
110.288541,1258.350101,13471.748144,3064.381992
110.288851,-74.020594,12065.356855,-2681.334243
110.289160,-740.205942,7328.038826,-10265.679673
110.289470,2664.741391,10658.965565,-3217.601092
110.289779,-1258.350101,10288.862594,-1685.410096
110.290089,-3256.906145,8364.327145,1915.238745
110.290398,1184.329507,11029.068536,4903.011187
110.290708,-888.247130,5181.441594,-4596.572988
110.291017,222.061783,4071.132681,-2374.896044
110.291327,-0.000000,10732.986159,10648.727422
110.291636,-2368.659014,7920.203579,306.438199
110.291945,-222.061783,13323.706956,-306.438199
110.292255,-1850.514855,13989.892304,-2681.334243
110.292564,-1480.411884,5181.441594,-11568.042020
110.292874,2072.576638,9918.759623,-4903.011187
110.293183,962.267725,10214.842000,-459.657299
110.293493,-3108.864956,6735.874072,1685.410096
110.293802,1332.370696,9770.718434,7124.688131
110.294112,-1036.288319,5403.503377,1608.800546
110.294421,-962.267725,3701.029710,-4749.792088
110.294731,5847.626942,11621.233289,-612.876398
110.295040,740.205942,10955.047942,-4903.011187
110.295350,-518.144159,11399.171507,-1838.629195
110.295659,-1184.329507,13693.809927,3677.258390
110.295969,-1554.432478,9178.553681,-11721.261119
110.296278,2442.679609,8808.450710,-9346.365076
110.296587,3701.029710,12435.459826,1838.629195
110.296897,-2072.576638,9030.512492,2145.067394
110.297206,4071.132681,10066.800811,8197.221829
110.297516,1258.350101,10658.965565,3370.820191
110.297825,-2590.720797,4071.132681,-4826.401637
110.298135,5477.523971,9474.636058,-612.876398
110.298444,-0.000000,11325.150913,-1915.238745
110.298754,-4663.297435,11325.150913,-1378.971896
110.299063,-592.164754,15840.407159,2528.115143
110.299373,-2886.803174,9326.594869,-9959.241474
110.299682,-3034.844362,6069.688724,-10189.070123
110.299992,2146.597232,13027.624579,3064.381992
110.300301,-1036.288319,8734.430116,-536.266849
110.300611,-0.000000,6957.935855,2987.772442
110.300920,-2072.576638,10066.800811,8733.488677
110.301230,-4367.215058,1554.432478,-689.485948
110.301539,5107.421000,4737.318029,-5975.544884
110.301848,1776.494261,8512.368333,-1072.533697
110.302158,-4959.379811,8956.491898,-612.876398
110.302467,-1184.329507,12065.356855,842.705048
110.302777,-370.102971,10362.883188,-9193.145976
110.303086,-296.082377,8512.368333,-12640.575717
110.303396,2146.597232,12213.398043,-2451.505594
110.303705,814.226536,11695.253884,-229.828649
110.304015,-740.205942,9474.636058,3370.820191
110.304324,2220.617826,13323.706956,8350.440928
110.304634,-1184.329507,5551.544565,-1302.362347
110.304943,3552.988522,6587.832884,-3907.087040
110.305253,4515.256246,11843.295072,-1072.533697
110.305562,-4071.132681,10658.965565,-7354.516781
110.305872,-740.205942,13545.768739,383.047749
110.306181,962.267725,14359.995275,-3830.477490
110.306490,-2220.617826,8142.265362,-12717.185267
110.306800,2960.823768,8068.244768,-2987.772442
110.307109,2072.576638,11991.336260,5975.544884
110.307419,-1628.453072,8438.347739,1455.581446
110.307728,666.185348,8438.347739,6511.811733
110.308038,-3701.029710,5033.400406,2911.162892
110.308347,444.123565,4293.194464,-4979.620737
110.308657,6365.771101,10658.965565,-4366.744339
110.308966,-3256.906145,10732.986159,-2374.896044
110.309276,-5181.441594,13175.665768,1838.629195
110.309585,-0.000000,14211.954086,-2604.724693
110.309895,-3034.844362,7846.182985,-16241.224558
110.310204,-222.061783,7920.203579,-4979.620737
110.310514,1184.329507,10436.903782,2604.724693
110.310823,-814.226536,6439.791695,459.657299
110.311132,-0.000000,5995.668130,5975.544884
110.311442,296.082377,4589.276840,2911.162892
110.311751,-222.061783,2146.597232,-5362.668486
110.312061,4367.215058,9178.553681,-3294.210641
110.312370,1776.494261,12731.542202,-1685.410096
110.312680,-2738.761985,13471.748144,-4213.525239
110.312989,444.123565,15396.283594,-612.876398
110.313299,-1406.391290,9548.656652,-7354.516781
110.313608,1628.453072,8882.471304,-9193.145976
110.313918,3256.906145,11843.295072,-1455.581446
110.314227,-0.000000,10436.903782,1532.190996
110.314537,-148.041188,10362.883188,5132.839837
110.314846,-0.000000,8364.327145,5362.668486
110.315156,444.123565,3108.864956,-3064.381992
110.315465,3775.050304,8734.430116,-2604.724693
110.315775,2442.679609,9474.636058,536.266849
110.316084,-5773.606348,9548.656652,1455.581446
110.316393,296.082377,14878.139434,2911.162892
110.316703,-0.000000,10955.047942,-7124.688131
110.317012,-2960.823768,6291.750507,-9116.536426
110.317322,-888.247130,11621.233289,2068.457845
110.317631,-296.082377,11769.274478,-4826.401637
110.317941,-0.000000,9252.574275,-3677.258390
110.318250,-2368.659014,11325.150913,10112.460574
110.318560,-2442.679609,3775.050304,2528.115143
110.318869,4219.173869,3849.070898,-5056.230287
110.319179,5477.523971,9844.739029,1072.533697
110.319488,-3034.844362,7624.121203,3217.601092
110.319798,-2442.679609,11621.233289,3217.601092
110.320107,-1110.308913,11103.089130,-5286.058936
110.320417,-1184.329507,7328.038826,-12793.794817
110.320726,1998.556043,11325.150913,-6588.421283
110.321035,444.123565,13027.624579,-4903.011187
110.321345,-3330.926739,7624.121203,459.657299
110.321654,962.267725,8882.471304,8503.660028
110.321964,1480.411884,7105.977043,2298.286494
110.322273,1110.308913,3330.926739,-2221.676944
110.322583,6439.791695,12213.398043,3370.820191
110.322892,1258.350101,8290.306550,-995.924147
110.323202,-888.247130,13249.686362,-1991.848295
110.323511,-1332.370696,14137.933492,0.000000
110.323821,-2294.638420,8586.388927,-11108.384721
110.324130,2442.679609,11473.192101,-13330.061665
110.324440,-666.185348,11103.089130,-4060.306139
110.324749,-3478.967927,8068.244768,0.000000
110.325059,-2294.638420,6735.874072,8350.440928
110.325368,1554.432478,7772.162391,5975.544884
110.325677,3552.988522,2368.659014,-3983.696590
110.325987,3701.029710,8882.471304,1302.362347
110.326296,-666.185348,9252.574275,1762.019645
110.326606,-5181.441594,9326.594869,1072.533697
110.326915,-518.144159,12361.439231,-766.095498
110.327225,-1258.350101,10584.944971,-12717.185267
110.327534,-1480.411884,9622.677246,-11797.870669
110.327844,888.247130,12657.521608,-2374.896044
110.328153,-1332.370696,9104.533087,-1685.410096
110.328463,-4367.215058,8438.347739,8503.660028
110.328772,-74.020594,7772.162391,9806.022374
110.329082,1924.535449,3552.988522,-3370.820191
110.329391,4737.318029,5477.523971,-4213.525239
110.329701,3108.864956,10214.842000,2298.286494
110.330010,-3701.029710,11103.089130,229.828649
110.330320,-296.082377,13175.665768,-689.485948
110.330629,-518.144159,13175.665768,-6818.249932
110.330938,592.164754,8068.244768,-14172.766713
110.331248,2960.823768,12287.418637,-3524.039291
110.331557,-444.123565,11695.253884,1762.019645
110.331867,-1480.411884,8290.306550,4749.792088
110.332176,1036.288319,11843.295072,8656.879127
110.332486,518.144159,5181.441594,-459.657299
110.332795,4515.256246,4441.235652,-1072.533697
110.333105,4663.297435,11621.233289,-306.438199
110.333414,-4737.318029,8586.388927,1225.752797
110.333724,-2368.659014,13915.871710,5209.449386
110.334033,1776.494261,14063.912898,-3064.381992
110.334343,-1258.350101,7920.203579,-13559.890315
110.334652,-222.061783,11399.171507,-2451.505594
110.334962,1924.535449,11399.171507,1532.190996
110.335271,-5329.482782,7846.182985,-536.266849
110.335580,-1184.329507,9696.697840,11951.089769
110.335890,-74.020594,8142.265362,1149.143247
110.336199,3256.906145,3404.947333,-8656.879127
110.336509,5699.585753,7994.224174,1532.190996
110.336818,-4737.318029,6809.894666,4060.306139
110.337128,-3997.112087,9400.615463,7354.516781
110.337437,2960.823768,13175.665768,153.219100
110.337747,-666.185348,7476.080014,-11644.651570
110.338056,1332.370696,10214.842000,-8886.707777
110.338366,2590.720797,12509.480420,-1915.238745
110.338675,-3775.050304,8660.409521,-2298.286494
110.338985,-2516.700203,10732.986159,6511.811733
110.339294,1998.556043,11325.150913,3217.601092
110.339604,1998.556043,4737.318029,-8810.098227
110.339913,5403.503377,7772.162391,-459.657299
110.340223,1850.514855,8660.409521,3753.867940
110.340532,-4293.194464,10362.883188,2757.943793
110.340841,888.247130,15174.221811,3447.429741
110.341151,370.102971,10066.800811,-7967.393179
110.341460,1406.391290,7031.956449,-8886.707777
110.341770,3256.906145,12731.542202,-2145.067394
110.342079,-4441.235652,9474.636058,-153.219100
110.342389,-3997.112087,8956.491898,7354.516781
110.342698,1554.432478,8586.388927,4826.401637
110.343008,-1480.411884,4071.132681,-8503.660028
110.343317,4515.256246,5255.462188,-4290.134789
110.343627,3034.844362,10288.862594,1455.581446
110.343936,-5847.626942,8808.450710,1608.800546
110.344246,-2590.720797,17098.757260,10035.851024
110.344555,-666.185348,10881.027347,-1991.848295
110.344865,2220.617826,6661.853478,-13253.452115
110.345174,2812.782580,10066.800811,-4596.572988
110.345483,-2886.803174,8660.409521,842.705048
110.345793,-3552.988522,5995.668130,995.924147
110.346102,592.164754,9844.739029,4826.401637
110.346412,-444.123565,7105.977043,-4060.306139
110.346721,5033.400406,4663.297435,-5975.544884
110.347030,7105.977043,10288.862594,-919.314598
110.347340,-5255.462188,8586.388927,842.705048
110.347649,-2442.679609,13027.624579,7967.393179
110.347959,1850.514855,13841.851115,-1225.752797
110.348268,2146.597232,9474.636058,-14785.643111
110.348577,4589.276840,11621.233289,-7890.783629
110.348887,-370.102971,12879.583391,-919.314598
110.349196,-4737.318029,10807.006753,-229.828649
110.349506,-296.082377,11325.150913,6971.469032
110.349815,2146.597232,7179.997637,766.095498
110.350124,6661.853478,4071.132681,-8044.002729
110.350434,6587.832884,9030.512492,0.000000
110.350743,-5181.441594,6217.729913,4903.011187
110.351053,-5255.462188,9104.533087,7584.345430
110.351362,2590.720797,12435.459826,0.000000
110.351671,-3034.844362,7846.182985,-11797.870669
110.351981,2368.659014,9030.512492,-6894.859482
110.352290,1036.288319,12065.356855,-3677.258390
110.352600,-6809.894666,11103.089130,-2451.505594
110.352909,-3923.091493,12065.356855,8120.612279
110.353218,-740.205942,10066.800811,1838.629195
110.353528,4885.359217,3701.029710,-9346.365076
110.353837,6513.812290,8142.265362,-689.485948
110.354147,-5033.400406,6217.729913,10112.460574
110.354456,-4737.318029,8882.471304,5822.325785
110.354765,370.102971,11843.295072,3677.258390
110.355075,-0.000000,10066.800811,-9269.755526
110.355384,5329.482782,7698.141797,-12870.404366
110.355693,2220.617826,8882.471304,-4596.572988
110.356003,-6809.894666,8216.285956,-536.266849
110.356312,-1924.535449,8882.471304,5669.106685
110.356622,2886.803174,13841.851115,2987.772442
110.356931,1406.391290,5699.585753,-2145.067394
110.357240,5995.668130,7179.997637,-1225.752797
110.357550,1850.514855,9474.636058,1608.800546
110.357859,-3923.091493,9548.656652,2145.067394
110.358169,-1554.432478,15766.386565,4979.620737
110.358478,1924.535449,9844.739029,-8580.269578
110.358787,4737.318029,8216.285956,-14555.814462
110.359097,1924.535449,9548.656652,-1378.971896
110.359406,-5033.400406,9696.697840,2068.457845
110.359716,-4441.235652,9104.533087,5439.278036
110.360025,370.102971,9548.656652,7354.516781
110.360334,-370.102971,5773.606348,-3907.087040
110.360644,4441.235652,6069.688724,-4673.182538
110.360953,1924.535449,11177.109724,1455.581446
110.361263,-6587.832884,9400.615463,2528.115143
110.361572,-1480.411884,12583.501014,2834.553343
110.361881,-1332.370696,13101.645173,-4979.620737
110.362191,1480.411884,9548.656652,-12870.404366
110.362500,3701.029710,7698.141797,-5515.887586
110.362810,-74.020594,9918.759623,-459.657299
110.363119,-7402.059420,10214.842000,6971.469032
110.363428,-0.000000,9474.636058,8503.660028
110.363738,3701.029710,5847.626942,-6511.811733
110.364047,2590.720797,1924.535449,-7814.174080
110.364357,3923.091493,9474.636058,459.657299
110.364666,-3997.112087,8586.388927,0.000000
110.364975,-1776.494261,12213.398043,1762.019645
110.365285,4515.256246,13767.830521,-306.438199
110.365594,666.185348,9400.615463,-14402.595362
110.365904,5403.503377,8882.471304,-7814.174080
110.366213,296.082377,9104.533087,1838.629195
110.366522,-6291.750507,11769.274478,3677.258390
110.366832,962.267725,14137.933492,7431.126331
110.367141,1998.556043,10732.986159,-1302.362347
110.367451,3997.112087,5329.482782,-10955.165621
110.367760,3627.009116,9918.759623,-4213.525239
110.368069,-5773.606348,7550.100608,2374.896044
110.368379,-8142.265362,12139.377449,4213.525239
110.368688,3478.967927,14804.118840,842.705048
110.368998,1554.432478,8882.471304,-11261.603821
110.369307,3256.906145,6439.791695,-6818.249932
110.369616,-1258.350101,8734.430116,3140.991542
110.369926,-6513.812290,11103.089130,5515.887586
110.370235,-3404.947333,11177.109724,6741.640382
110.370545,2516.700203,10510.924376,-1225.752797
110.370854,2146.597232,3849.070898,-11031.775171
110.371163,2146.597232,6957.935855,-2374.896044
110.371473,-1110.308913,8882.471304,3983.696590
110.371782,-5033.400406,8586.388927,3753.867940
110.372092,-888.247130,15174.221811,4519.963438
110.372401,1850.514855,9622.677246,-7584.345430
110.372710,5625.565159,4737.318029,-12027.699319
110.373020,2368.659014,12065.356855,-4903.011187
110.373329,-4145.153275,11769.274478,2528.115143
110.373638,-2960.823768,9696.697840,6358.592633
110.373948,2368.659014,12065.356855,4903.011187
110.374257,2146.597232,7328.038826,-4826.401637
110.374567,5921.647536,5033.400406,-5745.716235
110.374876,4145.153275,8438.347739,306.438199
110.375185,-7994.224174,10214.842000,3983.696590
110.375495,-814.226536,15766.386565,6435.202183
110.375804,2664.741391,11325.150913,-8427.050478
110.376114,3256.906145,9474.636058,-14632.424012
110.376423,2442.679609,11251.130318,-3294.210641
110.376732,-2886.803174,7328.038826,1915.238745
110.377042,-9918.759623,5773.606348,7584.345430
110.377351,-0.000000,10436.903782,9806.022374
110.377661,1036.288319,4589.276840,-5056.230287
110.377970,3404.947333,3701.029710,-6971.469032
110.378279,2960.823768,9030.512492,1149.143247
110.378589,-7105.977043,7772.162391,1455.581446
110.378898,-4959.379811,15100.201217,4979.620737
110.379208,1554.432478,16580.613101,-1915.238745
110.379517,2294.638420,10510.924376,-16930.710506
110.379826,3330.926739,9696.697840,-6741.640382
110.380136,-3034.844362,5773.606348,3294.210641
110.380445,-5181.441594,7328.038826,3983.696590
110.380755,444.123565,6439.791695,8503.660028
110.381064,2146.597232,9104.533087,1915.238745
110.381373,2960.823768,4293.194464,-10035.851024
110.381683,4663.297435,7476.080014,-2604.724693
110.381992,-4959.379811,11103.089130,1225.752797
110.382302,-5329.482782,13471.748144,3064.381992
110.382611,3182.885551,18431.127956,-4519.963438
110.382920,592.164754,11029.068536,-17926.634653
110.383230,4367.215058,10510.924376,-11874.480219
110.383539,592.164754,7402.059420,1149.143247
110.383849,-4959.379811,8364.327145,4826.401637
110.384158,-2368.659014,12953.603985,13176.842566
110.384467,2812.782580,7476.080014,7048.078582
110.384777,3404.947333,4663.297435,-5898.935335
110.385086,5329.482782,3256.906145,-2221.676944
110.385396,-3627.009116,9474.636058,766.095498
110.385705,-9030.512492,13027.624579,2528.115143
110.386014,1110.308913,15988.448347,-919.314598
110.386324,370.102971,13619.789333,-15168.690860
110.386633,2146.597232,9474.636058,-14096.157163
110.386943,814.226536,8142.265362,1838.629195
110.387252,-4959.379811,10881.027347,5515.887586
110.387561,-3849.070898,7550.100608,9652.803275
110.387871,1924.535449,9992.780217,7507.735880
110.388180,4515.256246,2886.803174,-4903.011187
110.388490,4441.235652,5329.482782,-919.314598
110.388799,148.041188,8734.430116,1072.533697
110.389108,-9104.533087,10658.965565,612.876398
110.389418,-1850.514855,15766.386565,0.000000
110.389727,3997.112087,13471.748144,-9882.631924
110.390037,2368.659014,9622.677246,-18845.949251
110.390346,2960.823768,7402.059420,-4903.011187
110.390655,-2516.700203,7031.956449,5515.887586
110.390965,-4959.379811,8734.430116,9039.926876
110.391274,3997.112087,10214.842000,7967.393179
110.391584,4515.256246,7105.977043,-4979.620737
110.391893,3552.988522,4589.276840,-6665.030833
110.392202,2590.720797,9474.636058,2451.505594
110.392512,-8216.285956,12287.418637,1532.190996
110.392821,1036.288319,18357.107362,-842.705048
110.393130,4293.194464,17172.777854,-10112.460574
110.393440,1850.514855,10214.842000,-18079.853753
110.393749,1332.370696,7105.977043,-5745.716235
110.394059,-5477.523971,6291.750507,5822.325785
110.394368,-5255.462188,7254.018232,8733.488677
110.394677,1480.411884,9178.553681,10572.117872
110.394987,2516.700203,5329.482782,842.705048
110.395296,3182.885551,1924.535449,-5898.935335
110.395606,2664.741391,5181.441594,1838.629195
110.395915,-8438.347739,11177.109724,2681.334243
110.396224,-7105.977043,17098.757260,612.876398
110.396534,4367.215058,17616.901420,-8427.050478
110.396843,2812.782580,12657.521608,-17696.806004
110.397153,444.123565,6735.874072,-6358.592633
110.397462,-3552.988522,9696.697840,5975.544884
110.397771,-5551.544565,7476.080014,5286.058936
110.398081,1480.411884,8216.285956,7354.516781
110.398390,2368.659014,4293.194464,1532.190996
110.398700,4145.153275,1406.391290,-7967.393179
110.399009,4145.153275,7254.018232,-4060.306139
110.399318,-2516.700203,9844.739029,2221.676944
110.399628,-5403.503377,14730.098246,2451.505594
110.399937,3849.070898,14656.077652,-1072.533697
110.400247,4737.318029,11177.109724,-13330.061665
110.400556,1628.453072,8142.265362,-12257.527968
110.400865,-1184.329507,9548.656652,76.609550
110.401175,-2960.823768,9030.512492,2374.896044
110.401484,-518.144159,13101.645173,4366.744339
110.401794,3997.112087,10807.006753,1455.581446
110.402103,2960.823768,2960.823768,-4826.401637
110.402412,3923.091493,6217.729913,-229.828649
110.402722,-1628.453072,7402.059420,3830.477490
110.403031,-6735.874072,9696.697840,5669.106685
110.403341,-370.102971,12953.603985,2451.505594
110.403650,2886.803174,11621.233289,-11338.213370
110.403959,-1184.329507,6661.853478,-13942.938064
110.404269,-4959.379811,9548.656652,-842.705048
110.404578,-4293.194464,14804.118840,459.657299
110.404888,-2442.679609,11399.171507,383.047749
110.405197,3256.906145,11991.336260,2987.772442
110.405506,3923.091493,6587.832884,-2834.553343
110.405816,3552.988522,2960.823768,0.000000
110.406125,-0.000000,6735.874072,7201.297681
110.406435,-5773.606348,7328.038826,5898.935335
110.406744,1554.432478,11917.315666,1532.190996
110.407053,2738.761985,9178.553681,-7890.783629
110.407363,222.061783,11177.109724,-16471.053207
110.407672,-1036.288319,10732.986159,-8273.831378
110.407982,-3923.091493,11695.253884,-1915.238745
110.408291,-5255.462188,12953.603985,0.000000
110.408600,3627.009116,11103.089130,3217.601092
110.408910,6069.688724,5921.647536,-2604.724693
110.409219,4885.359217,962.267725,-1225.752797
110.409529,3552.988522,5403.503377,7584.345430
110.409838,-4145.153275,6365.771101,10648.727422
110.410147,-592.164754,13767.830521,3753.867940
110.410457,1850.514855,14952.160028,-7890.783629
110.410766,2664.741391,11177.109724,-16700.881856
110.411076,-1628.453072,10362.883188,-10265.679673
110.411385,-6661.853478,12583.501014,-2451.505594
110.411694,-1850.514855,10510.924376,0.000000
110.412004,-1628.453072,8734.430116,4213.525239
110.412313,4515.256246,4071.132681,5822.325785
110.412622,-0.000000,1258.350101,4366.744339
110.412932,1258.350101,6365.771101,5822.325785
110.413241,-1998.556043,8290.306550,6281.983084
110.413551,-4811.338623,14211.954086,1378.971896
110.413860,2738.761985,15100.201217,-6818.249932
110.414169,740.205942,14656.077652,-14938.862211
110.414479,-1036.288319,13175.665768,-13176.842566
110.414788,-2294.638420,10214.842000,-4673.182538
110.415098,-1628.453072,9622.677246,2834.553343
110.415407,-2516.700203,7994.224174,9729.412825
110.415716,1998.556043,7402.059420,4826.401637
110.416026,4885.359217,1258.350101,-2834.553343
110.416335,1924.535449,3108.864956,76.609550
110.416645,-2072.576638,7772.162391,2757.943793
110.416954,-3034.844362,11103.089130,995.924147
110.417263,4441.235652,16802.674883,-5286.058936
110.417573,1554.432478,14582.057057,-12257.527968
110.417882,296.082377,12805.562797,-9882.631924
110.418192,-296.082377,10436.903782,-2451.505594
110.418501,-2442.679609,13101.645173,383.047749
110.418810,-888.247130,10510.924376,3753.867940
110.419120,1480.411884,8290.306550,5209.449386
110.419429,4219.173869,6439.791695,-3370.820191
110.419739,4293.194464,3256.906145,-5669.106685
110.420048,-1258.350101,7254.018232,5439.278036
110.420357,-6069.688724,9030.512492,5209.449386
110.420667,1480.411884,13249.686362,-153.219100
110.420976,1850.514855,12361.439231,-9882.631924
110.421286,1332.370696,9844.739029,-9959.241474
110.421595,-1036.288319,10807.006753,-3830.477490
110.421904,-2368.659014,11399.171507,-459.657299
110.422214,-4219.173869,10362.883188,4749.792088
110.422523,-814.226536,11695.253884,8044.002729
110.422833,2738.761985,8290.306550,-3294.210641
110.423142,3923.091493,2812.782580,-6358.592633
110.423451,1554.432478,5255.462188,2374.896044
110.423761,-5699.585753,7994.224174,4596.572988
110.424070,-296.082377,13619.789333,4290.134789
110.424380,2368.659014,11843.295072,-4903.011187
110.424689,814.226536,11547.212695,-9576.193725
110.424998,814.226536,10584.944971,-7584.345430
110.425308,-1110.308913,8438.347739,-3677.258390
110.425617,-6069.688724,9474.636058,3064.381992
110.425927,-592.164754,12731.542202,3677.258390
110.426236,4071.132681,8364.327145,-4443.353888
110.426545,3701.029710,5181.441594,-6894.859482
110.426855,6587.832884,7179.997637,-1149.143247
110.427164,-2738.761985,8290.306550,4903.011187
110.427474,-2738.761985,11103.089130,6741.640382
110.427783,1702.473667,14137.933492,1838.629195
110.428092,3256.906145,8364.327145,-10189.070123
110.428402,3849.070898,7698.141797,-8886.707777
110.428711,-3923.091493,9474.636058,-3140.991542
110.429021,-5921.647536,11547.212695,306.438199
110.429330,-4219.173869,11843.295072,4826.401637
110.429639,1776.494261,11177.109724,-3064.381992
110.429949,1850.514855,6143.709319,-8810.098227
110.430258,2664.741391,5033.400406,1838.629195
110.430567,-1850.514855,7179.997637,7890.783629
110.430877,-2590.720797,9178.553681,7431.126331
110.431186,1184.329507,14508.036463,4749.792088
110.431496,518.144159,10066.800811,-5822.325785
110.431805,2664.741391,9326.594869,-12640.575717
110.432114,-0.000000,10288.862594,-7737.564530
110.432424,-6365.771101,9474.636058,-1302.362347
110.432733,-7179.997637,12139.377449,5975.544884
110.433043,518.144159,10807.006753,612.876398
110.433352,7105.977043,4885.359217,-9116.536426
110.433661,2812.782580,4663.297435,-1915.238745
110.433971,-740.205942,5329.482782,9422.974625
110.434280,-4145.153275,7476.080014,7354.516781
110.434590,3256.906145,15544.324782,2374.896044
110.434899,3849.070898,12805.562797,-5898.935335
110.435208,2368.659014,13693.809927,-11874.480219
110.435518,1110.308913,11473.192101,-10955.165621
110.435827,-4145.153275,10214.842000,-3983.696590
110.436137,-5995.668130,11991.336260,4749.792088
110.436446,1332.370696,12287.418637,1991.848295
110.436755,5181.441594,4737.318029,-6435.202183
110.437065,5107.421000,2886.803174,-2911.162892
110.437374,-1702.473667,3701.029710,8197.221829
110.437684,-3701.029710,6809.894666,6511.811733
110.437993,-518.144159,14285.974681,4060.306139
110.438302,3552.988522,10732.986159,-3217.601092
110.438612,1110.308913,9770.718434,-13330.061665
110.438921,-592.164754,10214.842000,-8350.440928
110.439231,-2886.803174,8956.491898,1072.533697
110.439540,-5625.565159,12509.480420,2987.772442
110.439849,-2738.761985,15544.324782,919.314598
110.440159,4811.338623,9252.574275,-3677.258390
110.440468,3108.864956,3256.906145,-4903.011187
110.440778,296.082377,7772.162391,3830.477490
110.441087,-4071.132681,7105.977043,5209.449386
110.441396,-814.226536,12731.542202,3140.991542
110.441706,2960.823768,11325.150913,-3064.381992
110.442015,-222.061783,4885.359217,-10035.851024
110.442325,2516.700203,7179.997637,-7660.954980
110.442634,-3849.070898,7994.224174,-4903.011187
110.442943,-3997.112087,12065.356855,2298.286494
110.443253,-888.247130,11843.295072,3524.039291
110.443562,6143.709319,10807.006753,-3753.867940
110.443872,2220.617826,5995.668130,-6665.030833
110.444181,1702.473667,5181.441594,-1455.581446
110.444490,-592.164754,5995.668130,1378.971896
110.444800,-4515.256246,11325.150913,1915.238745
110.445109,2516.700203,12509.480420,842.705048
110.445419,1924.535449,8956.491898,-7890.783629
110.445728,3627.009116,12287.418637,-8886.707777
110.446037,-296.082377,9178.553681,-536.266849
110.446347,-4959.379811,9548.656652,2451.505594
110.446656,-1184.329507,10658.965565,2834.553343
110.446966,370.102971,8734.430116,2145.067394
110.447275,1036.288319,5847.626942,-2911.162892
110.447584,814.226536,5181.441594,-536.266849
110.447894,-2738.761985,7105.977043,2298.286494
110.448203,-4441.235652,10362.883188,995.924147
110.448512,1036.288319,13545.768739,-459.657299
110.448822,3330.926739,12731.542202,-6971.469032
110.449131,2516.700203,11843.295072,-8733.488677
110.449440,-740.205942,10510.924376,-2451.505594
110.449750,370.102971,5181.441594,2604.724693
110.450059,-2590.720797,9030.512492,6281.983084
110.450368,814.226536,8808.450710,4136.915689
110.450678,1850.514855,4663.297435,-1762.019645
110.450987,370.102971,7105.977043,-2987.772442
110.451296,1184.329507,7920.203579,-2604.724693
110.451606,-4663.297435,9696.697840,-2834.553343
110.451915,-148.041188,13989.892304,-766.095498
110.452224,888.247130,11769.274478,-4366.744339
110.452534,4071.132681,9844.739029,-6665.030833
110.452843,888.247130,7031.956449,-2604.724693
110.453152,-2294.638420,8734.430116,4673.182538
110.453462,-1850.514855,8216.285956,4519.963438
110.453771,-296.082377,9474.636058,3907.087040
110.454080,814.226536,9548.656652,-2068.457845
110.454390,1406.391290,6143.709319,-5592.497135
110.454699,888.247130,7550.100608,-4673.182538
110.455008,-4367.215058,9770.718434,-842.705048
110.455318,-1924.535449,11473.192101,306.438199
110.455627,740.205942,11103.089130,-2145.067394
110.455936,-1628.453072,8586.388927,-4060.306139
110.456246,3997.112087,8142.265362,-2604.724693
110.456555,-888.247130,8068.244768,536.266849
110.456864,-3256.906145,10658.965565,6052.154434
110.457174,-592.164754,9326.594869,5822.325785
110.457483,2590.720797,11843.295072,-1915.238745
110.457792,1480.411884,11473.192101,-6358.592633
110.458102,2368.659014,7402.059420,-2987.772442
110.458411,-3701.029710,8808.450710,-459.657299
110.458720,-1480.411884,9326.594869,2757.943793
110.459030,-1406.391290,12361.439231,4060.306139
110.459339,518.144159,10214.842000,-5209.449386
110.459648,3330.926739,7254.018232,-8120.612279
110.459958,-0.000000,6661.853478,-4136.915689
110.460267,-2886.803174,6587.832884,153.219100
110.460576,-3108.864956,10288.862594,2757.943793
110.460886,-1110.308913,9696.697840,1302.362347
110.461195,4293.194464,9178.553681,-5439.278036
110.461504,4589.276840,9770.718434,-5439.278036
110.461814,-592.164754,9548.656652,-2834.553343
110.462123,-1036.288319,8956.491898,3140.991542
110.462432,-2072.576638,12139.377449,3753.867940
110.462742,2368.659014,12805.562797,-5745.716235
110.463051,3182.885551,10362.883188,-7737.564530
110.463360,1924.535449,8438.347739,-5286.058936
110.463670,-4071.132681,7550.100608,-1455.581446
110.463979,-2886.803174,8734.430116,7201.297681
110.464288,444.123565,9474.636058,2604.724693
110.464598,814.226536,8068.244768,-2298.286494
110.464907,3701.029710,8808.450710,-1915.238745
110.465216,-0.000000,5255.462188,-383.047749
110.465526,-4071.132681,10214.842000,459.657299
110.465835,-1924.535449,13249.686362,3447.429741
110.466144,-222.061783,13471.748144,-3677.258390
110.466454,4145.153275,12583.501014,-11261.603821
110.466763,518.144159,8068.244768,-5898.935335
110.467072,-3627.009116,9548.656652,459.657299
110.467382,-1480.411884,9918.759623,3600.648841
110.467691,-740.205942,10584.944971,2911.162892
110.468000,1332.370696,8734.430116,76.609550
110.468310,3404.947333,3701.029710,-1915.238745
110.468619,1998.556043,5699.585753,-3217.601092
110.468928,-2220.617826,7105.977043,2834.553343
110.469238,-3478.967927,13619.789333,4979.620737
110.469547,-74.020594,14952.160028,-5669.106685
110.469856,3552.988522,11029.068536,-10801.946522
110.470166,1258.350101,10807.006753,-7737.564530
110.470475,-0.000000,7254.018232,-1838.629195
110.470784,-1184.329507,8734.430116,2451.505594
110.471094,-3701.029710,9030.512492,5822.325785
110.471403,1554.432478,9252.574275,5132.839837
110.471712,3701.029710,6365.771101,-2834.553343
110.472022,3330.926739,6365.771101,-1685.410096
110.472331,-3108.864956,9474.636058,689.485948
110.472640,-3627.009116,10066.800811,-1685.410096
110.472950,-2146.597232,15544.324782,-3064.381992
110.473259,592.164754,13249.686362,-9652.803275
110.473568,740.205942,8364.327145,-9269.755526
110.473878,1258.350101,6365.771101,-1225.752797
110.474187,-2664.741391,7846.182985,5056.230287
110.474496,-1776.494261,10066.800811,8197.221829
110.474806,1332.370696,7031.956449,6818.249932
110.475115,4441.235652,7254.018232,-1149.143247
110.475424,3256.906145,7328.038826,-3600.648841
110.475734,-3478.967927,7698.141797,-1762.019645
110.476043,-4885.359217,8438.347739,919.314598
110.476352,-1628.453072,13767.830521,-2911.162892
110.476662,666.185348,13545.768739,-9652.803275
110.476971,2368.659014,9548.656652,-8273.831378
110.477280,1184.329507,9178.553681,-2987.772442
110.477590,-2368.659014,8734.430116,2834.553343
110.477899,296.082377,7920.203579,6741.640382
110.478208,444.123565,8068.244768,7890.783629
110.478518,3182.885551,7920.203579,-383.047749
110.478827,4515.256246,6661.853478,-2834.553343
110.479136,814.226536,7328.038826,-1302.362347
110.479446,-4441.235652,11991.336260,-612.876398
110.479755,-3775.050304,12583.501014,-2451.505594
110.480064,1628.453072,12287.418637,-7737.564530
110.480374,518.144159,12435.459826,-10878.556072
110.480683,1702.473667,9844.739029,-4366.744339
110.480992,-1480.411884,6809.894666,2145.067394
110.481302,-4071.132681,7254.018232,3907.087040
110.481611,1776.494261,9030.512492,6435.202183
110.481920,1554.432478,6883.915261,1532.190996
110.482230,3034.844362,7624.121203,-2987.772442
110.482539,74.020594,9178.553681,-5132.839837
110.482848,-3404.947333,11029.068536,0.000000
110.483158,-2886.803174,14730.098246,-689.485948
110.483467,-0.000000,13989.892304,-5592.497135
110.483776,444.123565,9696.697840,-10648.727422
110.484086,1110.308913,7846.182985,-5056.230287
110.484395,-0.000000,9178.553681,-383.047749
110.484704,-5921.647536,9326.594869,1915.238745
110.485014,592.164754,7328.038826,6358.592633
110.485323,2220.617826,7402.059420,2374.896044
110.485632,3404.947333,9178.553681,-4903.011187
110.485942,4441.235652,5847.626942,-1762.019645
110.486251,-3108.864956,7772.162391,-306.438199
110.486560,-1776.494261,11843.295072,-306.438199
110.486870,-1110.308913,13545.768739,-2451.505594
110.487179,2146.597232,13101.645173,-9116.536426
110.487488,2368.659014,11473.192101,-8120.612279
110.487798,-222.061783,10288.862594,-3294.210641
110.488107,-3701.029710,8290.306550,-153.219100
110.488416,-1850.514855,9326.594869,153.219100
110.488726,1332.370696,7698.141797,2068.457845
110.489035,1628.453072,6735.874072,0.000000
110.489344,4589.276840,5255.462188,1149.143247
110.489654,-4367.215058,6439.791695,4673.182538
110.489963,-2590.720797,12139.377449,1685.410096
110.490272,888.247130,12213.398043,-842.705048
110.490582,-1554.432478,13175.665768,-6665.030833
110.490891,888.247130,14730.098246,-7660.954980
110.491200,2220.617826,8364.327145,-5056.230287
110.491510,-4219.173869,10436.903782,-5362.668486
110.491819,-3627.009116,10658.965565,3600.648841
110.492128,2738.761985,9030.512492,3217.601092
110.492438,2960.823768,6365.771101,-919.314598
110.492747,3775.050304,7698.141797,2451.505594
110.493056,444.123565,5625.565159,6818.249932
110.493366,-666.185348,6735.874072,1532.190996
110.493675,-888.247130,10955.047942,-1149.143247
110.493984,-1628.453072,11251.130318,-7354.516781
110.494294,-592.164754,10807.006753,-11261.603821
110.494603,296.082377,12953.603985,-9346.365076
110.494912,-1406.391290,12065.356855,-5592.497135
110.495222,-2220.617826,10881.027347,0.000000
110.495531,-888.247130,10362.883188,4903.011187
110.495840,1480.411884,6883.915261,1608.800546
110.496150,4441.235652,5847.626942,2298.286494
110.496459,3108.864956,5477.523971,3140.991542
110.496768,-4071.132681,6217.729913,2604.724693
110.497078,-518.144159,11769.274478,1378.971896
110.497387,-740.205942,12287.418637,-6665.030833
110.497696,1406.391290,14359.995275,-12334.137518
110.498006,-296.082377,13619.789333,-7890.783629
110.498315,-2368.659014,8290.306550,-8580.269578
110.498624,-740.205942,8660.409521,-1685.410096
110.498934,-296.082377,8290.306550,4979.620737
110.499243,-1702.473667,3627.009116,5822.325785
110.499552,5181.441594,5033.400406,3677.258390
110.499862,3627.009116,5773.606348,2528.115143
110.500171,-962.267725,7920.203579,2145.067394
110.500480,-2220.617826,13027.624579,2451.505594
110.500790,-2072.576638,12435.459826,-4136.915689
110.501099,-1554.432478,16506.592507,-9959.241474
110.501408,222.061783,14285.974681,-11031.775171
110.501718,-814.226536,9474.636058,-6894.859482
110.502027,-1850.514855,10066.800811,-2681.334243
110.502336,-1924.535449,8438.347739,4596.572988
110.502646,1184.329507,4959.379811,7890.783629
110.502955,2220.617826,3923.091493,919.314598
110.503264,4663.297435,5033.400406,1532.190996
110.503574,-0.000000,4811.338623,2681.334243
110.503883,-1924.535449,10436.903782,3907.087040
110.504192,-1924.535449,12435.459826,-2757.943793
110.504502,-666.185348,10658.965565,-10189.070123
110.504811,1258.350101,14359.995275,-10342.289223
110.505120,1036.288319,13619.789333,-6665.030833
110.505430,-1998.556043,10807.006753,-689.485948
110.505739,-1480.411884,10732.986159,4673.182538
110.506048,-0.000000,9252.574275,4903.011187
110.506358,1036.288319,5033.400406,-689.485948
110.506667,3034.844362,7105.977043,1149.143247
110.506976,740.205942,4737.318029,2451.505594
110.507286,-2294.638420,9548.656652,-306.438199
110.507595,-1554.432478,12509.480420,-919.314598
110.507904,-3034.844362,11991.336260,-6358.592633
110.508214,3182.885551,13249.686362,-8427.050478
110.508523,1184.329507,11399.171507,-5439.278036
110.508832,-1332.370696,11103.089130,-2911.162892
110.509142,-2368.659014,9696.697840,3524.039291
110.509451,-1406.391290,9326.594869,5898.935335
110.509760,1036.288319,8808.450710,-612.876398
110.510070,4441.235652,5773.606348,-1762.019645
110.510379,1998.556043,5403.503377,2068.457845
110.510688,-3775.050304,6291.750507,2911.162892
110.510998,-2294.638420,11843.295072,1608.800546
110.511307,-0.000000,13397.727550,-5975.544884
110.511616,592.164754,12287.418637,-8503.660028
110.511926,2220.617826,13545.768739,-6435.202183
110.512235,-1036.288319,8586.388927,-4136.915689
110.512544,-2368.659014,6809.894666,3983.696590
110.512854,-2960.823768,9104.533087,5439.278036
110.513163,-0.000000,6513.812290,-612.876398
110.513472,5107.421000,6365.771101,-4213.525239
110.513782,1554.432478,7846.182985,306.438199
110.514091,-74.020594,7328.038826,4596.572988
110.514400,-296.082377,12583.501014,2145.067394
110.514710,-0.000000,14359.995275,-1991.848295
110.515019,370.102971,12139.377449,-7814.174080
110.515328,1850.514855,12731.542202,-7737.564530
110.515638,-0.000000,7476.080014,-3064.381992
110.515947,-2664.741391,10066.800811,2374.896044
110.516256,-1702.473667,7698.141797,4749.792088
110.516566,-1850.514855,6365.771101,1302.362347
110.516875,2442.679609,4219.173869,4979.620737
110.517184,4071.132681,7105.977043,689.485948
110.517494,-296.082377,7105.977043,-306.438199
110.517803,-2368.659014,10436.903782,2068.457845
110.518112,-1776.494261,14063.912898,383.047749
110.518421,-370.102971,11251.130318,-4903.011187
110.518731,2442.679609,11177.109724,-7277.907231
110.519040,-518.144159,10955.047942,-4519.963438
110.519349,-1924.535449,8956.491898,-1072.533697
110.519659,-888.247130,8586.388927,3370.820191
110.519968,-2146.597232,6217.729913,3524.039291
110.520277,2368.659014,6735.874072,-2221.676944
110.520587,2812.782580,7550.100608,-842.705048
110.520896,1184.329507,6291.750507,842.705048
110.521205,888.247130,8586.388927,-2374.896044
110.521515,-1702.473667,14063.912898,-1915.238745
110.521824,-740.205942,10955.047942,-5056.230287
110.522133,1554.432478,9844.739029,-7584.345430
110.522443,1702.473667,13101.645173,-6435.202183
110.522752,-3182.885551,11843.295072,0.000000
110.523061,-1110.308913,11029.068536,536.266849
110.523371,888.247130,9622.677246,-536.266849
110.523680,1332.370696,5181.441594,-1915.238745
110.523989,4737.318029,7328.038826,383.047749
110.524299,1924.535449,6143.709319,2451.505594
110.524608,-222.061783,8290.306550,3600.648841
110.524917,-2664.741391,12805.562797,3370.820191
110.525227,-444.123565,8734.430116,-4979.620737
110.525536,1480.411884,8734.430116,-10725.336972
110.525845,-962.267725,11325.150913,-4673.182538
110.526155,-1406.391290,9400.615463,-2298.286494
110.526464,-3034.844362,11991.336260,-1608.800546
110.526773,-1998.556043,13249.686362,-995.924147
110.527083,1480.411884,7105.977043,-612.876398
110.527392,1776.494261,7105.977043,-612.876398
110.527701,1628.453072,9104.533087,2604.724693
110.528011,592.164754,6735.874072,2451.505594
110.528320,-3256.906145,9918.759623,1455.581446
110.528629,-1184.329507,8290.306550,-1838.629195
110.528939,-0.000000,8956.491898,-6281.983084
110.529248,888.247130,10732.986159,-7277.907231
110.529557,-1258.350101,11029.068536,-8656.879127
110.529867,-2664.741391,9844.739029,-2145.067394
110.530176,-3182.885551,12287.418637,842.705048
110.530485,1036.288319,9474.636058,-2298.286494
110.530795,2516.700203,8068.244768,-1762.019645
110.531104,4515.256246,7402.059420,4903.011187
110.531413,1776.494261,4885.359217,3370.820191
110.531723,-814.226536,9474.636058,2298.286494
110.532032,-74.020594,10510.924376,76.609550
110.532341,-1628.453072,9474.636058,-4749.792088
110.532651,740.205942,15026.180623,-6665.030833
110.532960,740.205942,10584.944971,-4596.572988
110.533269,-1332.370696,8512.368333,-3140.991542
110.533579,-2886.803174,10436.903782,1915.238745
110.533888,-1776.494261,6513.812290,2528.115143
110.534197,1998.556043,7550.100608,-919.314598
110.534507,1332.370696,8734.430116,612.876398
110.534816,-740.205942,7031.956449,3447.429741
110.535125,-814.226536,9474.636058,3600.648841
110.535435,-222.061783,11695.253884,-1225.752797
110.535744,-518.144159,9622.677246,-5515.887586
110.536053,1554.432478,11399.171507,-4060.306139
110.536363,-0.000000,11621.233289,-3064.381992
110.536672,-0.000000,9400.615463,-153.219100
110.536981,-740.205942,10955.047942,2068.457845
110.537291,-296.082377,8586.388927,766.095498
110.537600,-222.061783,5773.606348,-1991.848295
110.537909,666.185348,6957.935855,-1225.752797
110.538219,3404.947333,8882.471304,-7890.783629
110.538528,-1998.556043,7328.038826,-2451.505594
110.538837,-962.267725,11769.274478,995.924147
110.539147,-1258.350101,11621.233289,-3753.867940
110.539456,3182.885551,10214.842000,-7048.078582
110.539765,1110.308913,13175.665768,2145.067394
110.540075,370.102971,9770.718434,612.876398
110.540384,222.061783,7105.977043,919.314598
110.540693,-1258.350101,10066.800811,2451.505594
110.541003,-3627.009116,9178.553681,-689.485948
110.541312,2442.679609,7698.141797,-1455.581446
110.541621,-222.061783,9178.553681,-1149.143247
110.541931,-74.020594,9474.636058,-1762.019645
110.542240,-148.041188,10807.006753,-766.095498
110.542549,-4071.132681,10510.924376,-2451.505594
110.542859,-1776.494261,9844.739029,-4749.792088
110.543168,3552.988522,12657.521608,-3064.381992
110.543477,-0.000000,7846.182985,-1378.971896
110.543787,-814.226536,9474.636058,4596.572988
110.544096,-1036.288319,10881.027347,6511.811733
110.544405,-74.020594,6291.750507,-995.924147
110.544715,2368.659014,9104.533087,-2451.505594
110.545024,740.205942,9696.697840,-2068.457845
110.545333,592.164754,7105.977043,-995.924147
110.545643,-2294.638420,12435.459826,-1455.581446
110.545952,-3182.885551,11991.336260,-2068.457845
110.546261,-0.000000,9474.636058,-6052.154434
110.546561,2220.617826,11473.192101,-6818.249932
110.546870,-296.082377,6957.935855,-612.876398
110.547179,-0.000000,6587.832884,766.095498
110.547489,-1110.308913,9326.594869,2374.896044
110.547798,-518.144159,7328.038826,383.047749
110.548108,3849.070898,7550.100608,1532.190996
110.548417,2368.659014,8586.388927,-1302.362347
110.548726,-740.205942,8660.409521,1225.752797
110.549036,-0.000000,10807.006753,2451.505594
110.549345,-1554.432478,11325.150913,-3217.601092
110.549655,-592.164754,11547.212695,-5975.544884
110.549964,666.185348,12065.356855,-4903.011187
110.550274,1036.288319,11029.068536,-5132.839837
110.550583,-370.102971,9992.780217,-4136.915689
110.550892,-592.164754,8882.471304,4903.011187
110.551202,-3256.906145,9770.718434,8656.879127
110.551511,740.205942,6513.812290,383.047749
110.551821,3108.864956,7698.141797,76.609550
110.552130,-0.000000,6809.894666,2757.943793
110.552439,-814.226536,10436.903782,1072.533697
110.552749,-148.041188,12583.501014,-1225.752797
110.553058,-2368.659014,11325.150913,-4826.401637
110.553368,1924.535449,11917.315666,-8733.488677
110.553677,2812.782580,10436.903782,-6818.249932
110.553987,-3997.112087,10436.903782,-995.924147
110.554296,-962.267725,9992.780217,4519.963438
110.554605,518.144159,8512.368333,1915.238745
110.554915,2146.597232,5699.585753,153.219100
110.555224,3256.906145,7994.224174,2221.676944
110.555534,888.247130,8438.347739,-229.828649
110.555843,-444.123565,11325.150913,-1532.190996
110.556152,-2072.576638,12213.398043,919.314598
110.556462,-3182.885551,12213.398043,-5822.325785
110.556771,4367.215058,13175.665768,-12257.527968
110.557081,2368.659014,9104.533087,-8044.002729
110.557390,-2294.638420,6883.915261,-1225.752797
110.557699,-1480.411884,8068.244768,4443.353888
110.558009,-444.123565,7550.100608,6435.202183
110.558318,2442.679609,6587.832884,2221.676944
110.558628,1184.329507,4515.256246,1302.362347
110.558937,1480.411884,6439.791695,1302.362347
110.559247,-1628.453072,9696.697840,0.000000
110.559556,-3552.988522,13693.809927,-3753.867940
110.559865,-222.061783,15248.242405,-6511.811733
110.560175,-1036.288319,12879.583391,-8733.488677
110.560484,1924.535449,12953.603985,-6128.763984
110.560794,-814.226536,8808.450710,-919.314598
110.561103,-814.226536,9844.739029,6281.983084
110.561412,-1776.494261,8364.327145,6741.640382
110.561722,1258.350101,7179.997637,2145.067394
110.562031,6291.750507,4515.256246,-1532.190996
110.562341,-222.061783,7179.997637,1838.629195
110.562650,-888.247130,9918.759623,2757.943793
110.562960,-1332.370696,10436.903782,76.609550
110.563269,592.164754,13323.706956,-6894.859482
110.563578,-3034.844362,13545.768739,-10112.460574
110.563888,-0.000000,12287.418637,-17083.929605
110.564197,-74.020594,8290.306550,-6511.811733
110.564507,-592.164754,10732.986159,-229.828649
110.564816,-296.082377,10362.883188,6894.859482
110.565125,296.082377,5847.626942,5439.278036
110.565435,4219.173869,3849.070898,4136.915689
110.565744,3849.070898,5107.421000,153.219100
110.566054,-888.247130,7179.997637,-2834.553343
110.566363,-1776.494261,9030.512492,-1378.971896
110.566673,-3330.926739,13249.686362,-4519.963438
110.566982,-518.144159,12731.542202,-11031.775171
110.567291,1554.432478,11621.233289,-6818.249932
110.567601,-444.123565,11399.171507,459.657299
110.567910,-1702.473667,7624.121203,1608.800546
110.568220,-518.144159,9178.553681,459.657299
110.568529,-1924.535449,6735.874072,4903.011187
110.568838,2664.741391,6957.935855,1532.190996
110.569148,2516.700203,6587.832884,-689.485948
110.569457,-962.267725,9030.512492,-1302.362347
110.569767,-2146.597232,11177.109724,383.047749
110.570076,-2516.700203,15618.345376,-2834.553343
110.570385,-444.123565,14656.077652,-8886.707777
110.570695,2368.659014,11769.274478,-8350.440928
110.571004,2294.638420,11251.130318,-842.705048
110.571314,-2590.720797,8068.244768,2221.676944
110.571623,666.185348,7772.162391,5669.106685
110.571933,3034.844362,5625.565159,4136.915689
110.572242,-962.267725,4737.318029,2221.676944
110.572551,1480.411884,9326.594869,1762.019645
110.572861,666.185348,6809.894666,-2145.067394
110.573170,-962.267725,10881.027347,-3830.477490
110.573480,-0.000000,14211.954086,-2068.457845
110.573789,-1480.411884,11843.295072,-8656.879127
110.574098,-74.020594,11029.068536,-8886.707777
110.574408,-0.000000,12435.459826,-3600.648841
110.574717,-592.164754,6957.935855,0.000000
110.575027,-1776.494261,9326.594869,1991.848295
110.575336,3552.988522,9178.553681,6511.811733
110.575646,4293.194464,2590.720797,1762.019645
110.575955,2664.741391,7105.977043,-383.047749
110.576264,-222.061783,7179.997637,2834.553343
110.576574,-1110.308913,7846.182985,2145.067394
110.576883,444.123565,11103.089130,-1991.848295
110.577193,-1628.453072,12139.377449,-3217.601092
110.577502,-3775.050304,14582.057057,-4443.353888
110.577811,-518.144159,13841.851115,-8580.269578
110.578121,1332.370696,10066.800811,-9499.584175
110.578430,-1332.370696,11325.150913,-3294.210641
110.578740,-1036.288319,10807.006753,2451.505594
110.579049,1776.494261,7624.121203,1762.019645
110.579358,5551.544565,7402.059420,2681.334243
110.579668,5477.523971,3330.926739,5362.668486
110.579977,-148.041188,4367.215058,7124.688131
110.580287,-2294.638420,8068.244768,3830.477490
110.580596,-222.061783,9474.636058,-2757.943793
110.580906,-296.082377,11843.295072,-9882.631924
110.581215,-2368.659014,14804.118840,-12257.527968
110.581524,-888.247130,12805.562797,-10265.679673
110.581834,-3256.906145,13915.871710,-6588.421283
110.582143,-74.020594,11695.253884,-689.485948
110.582453,-888.247130,5107.421000,5669.106685
110.582762,1702.473667,7698.141797,4903.011187
110.583071,4959.379811,4145.153275,5515.887586
110.583381,2146.597232,1554.432478,6205.373534
110.583690,-1776.494261,6439.791695,5975.544884
110.584000,-1480.411884,10288.862594,1838.629195
110.584309,-1258.350101,11769.274478,-8503.660028
110.584619,222.061783,14285.974681,-12717.185267
110.584928,-1628.453072,14359.995275,-11568.042020
110.585237,-3256.906145,10955.047942,-6511.811733
110.585547,-1036.288319,9104.533087,0.000000
110.585856,-1628.453072,9326.594869,3753.867940
110.586166,1998.556043,7402.059420,4443.353888
110.586475,3849.070898,5625.565159,6052.154434
110.586784,5033.400406,6513.812290,7890.783629
110.587094,-0.000000,8290.306550,2757.943793
110.587403,-2146.597232,11843.295072,919.314598
110.587713,-740.205942,12953.603985,-6358.592633
110.588022,148.041188,14063.912898,-11797.870669
110.588332,1110.308913,14137.933492,-9729.412825
110.588641,-3034.844362,9400.615463,-6128.763984
110.588950,-3552.988522,9030.512492,0.000000
110.589260,962.267725,6809.894666,5132.839837
110.589569,-3701.029710,4367.215058,3447.429741
110.589879,4071.132681,8142.265362,1455.581446
110.590188,3552.988522,6143.709319,3524.039291
110.590497,-370.102971,8438.347739,689.485948
110.590807,-370.102971,10362.883188,689.485948
110.591116,-1184.329507,10362.883188,-4596.572988
110.591426,-1258.350101,11843.295072,-10418.898773
110.591735,3404.947333,12583.501014,-9499.584175
110.592044,-2294.638420,9474.636058,-5362.668486
110.592354,-4663.297435,12805.562797,0.000000
110.592663,814.226536,9474.636058,4060.306139
110.592973,-518.144159,4811.338623,612.876398
110.593282,4589.276840,6587.832884,0.000000
110.593592,2442.679609,6143.709319,3753.867940
110.593901,-444.123565,2516.700203,1532.190996
110.594210,-814.226536,7698.141797,2681.334243
110.594520,-444.123565,12065.356855,-1225.752797
110.594829,-296.082377,14508.036463,-6818.249932
110.595139,2664.741391,13397.727550,-7814.174080
110.595448,-1036.288319,15100.201217,-8810.098227
110.595757,-3182.885551,13767.830521,-3830.477490
110.596067,-2146.597232,11621.233289,2451.505594
110.596376,-1110.308913,8068.244768,842.705048
110.596686,2368.659014,11251.130318,2451.505594
110.596995,4145.153275,4219.173869,766.095498
110.597305,74.020594,1776.494261,4749.792088
110.597614,-2516.700203,7179.997637,6052.154434
110.597923,-1110.308913,9252.574275,1685.410096
110.598233,518.144159,8734.430116,-5286.058936
110.598542,2664.741391,11917.315666,-10112.460574
110.598852,-222.061783,11621.233289,-7737.564530
110.599161,-4145.153275,10436.903782,-4060.306139
110.599470,-1850.514855,9992.780217,-1149.143247
110.599780,-2220.617826,10214.842000,1455.581446
110.600089,814.226536,9326.594869,-919.314598
110.600399,5699.585753,6143.709319,-1838.629195
110.600708,2516.700203,6365.771101,1685.410096
110.601017,-444.123565,8512.368333,4136.915689
110.601327,-740.205942,10288.862594,2528.115143
110.601636,-74.020594,11029.068536,-4903.011187
110.601946,1924.535449,13915.871710,-7890.783629
110.602255,1776.494261,13027.624579,-7507.735880
110.602565,-2294.638420,10436.903782,-5745.716235
110.602874,-3330.926739,11029.068536,1302.362347
110.603183,-3552.988522,8734.430116,3600.648841
110.603493,888.247130,7179.997637,-1838.629195
110.603802,5033.400406,7994.224174,-76.609550
110.604112,2886.803174,8660.409521,3064.381992
110.604421,-1406.391290,6587.832884,3140.991542
110.604730,-74.020594,10955.047942,2604.724693
110.605040,-1258.350101,12139.377449,-2528.115143
110.605349,962.267725,9548.656652,-10265.679673
110.605659,2886.803174,14656.077652,-7431.126331
110.605968,-3775.050304,9696.697840,-4290.134789
110.606278,-2146.597232,9992.780217,-689.485948
110.606587,-4145.153275,9104.533087,-612.876398
110.606896,-1258.350101,6957.935855,-2528.115143
110.607206,5329.482782,6439.791695,-766.095498
110.607515,2590.720797,6587.832884,1225.752797
110.607825,-370.102971,4885.359217,3447.429741
110.608134,-5329.482782,8660.409521,6665.030833
110.608443,148.041188,7772.162391,842.705048
110.608753,1406.391290,9400.615463,-6435.202183
110.609062,3330.926739,14211.954086,-7890.783629
110.609372,-2664.741391,10955.047942,-4903.011187
110.609681,-3478.967927,10362.883188,-5056.230287
110.609991,-2664.741391,13767.830521,-1225.752797
110.610300,-1332.370696,9992.780217,-2987.772442
110.610609,3330.926739,9178.553681,-2604.724693
110.610919,2590.720797,7920.203579,3753.867940
110.611228,-962.267725,7772.162391,3294.210641
110.611538,-370.102971,7550.100608,5822.325785
110.611847,444.123565,9326.594869,2987.772442
110.612156,740.205942,8734.430116,-2528.115143
110.612466,3701.029710,10510.924376,-4136.915689
110.612775,-2220.617826,12139.377449,-5056.230287
110.613085,-3404.947333,10510.924376,-3677.258390
110.613394,-1110.308913,9992.780217,-919.314598
110.613703,-3330.926739,12287.418637,-3064.381992
110.614013,148.041188,9770.718434,-2451.505594
110.614322,5181.441594,5995.668130,919.314598
110.614632,370.102971,8364.327145,2987.772442
110.614941,-1110.308913,8438.347739,4826.401637
110.615251,-4145.153275,9548.656652,-919.314598
110.615560,1406.391290,6217.729913,-3677.258390
110.615869,3404.947333,10732.986159,-9422.974625
110.616179,1924.535449,12509.480420,-7967.393179
110.616488,-4589.276840,9030.512492,-2681.334243
110.616798,-1554.432478,12065.356855,842.705048
110.617107,444.123565,9770.718434,-995.924147
110.617416,3256.906145,8364.327145,-3983.696590
110.617726,2368.659014,7550.100608,2374.896044
110.618035,-148.041188,8216.285956,4443.353888
110.618345,-1036.288319,7105.977043,1302.362347
110.618654,2072.576638,12435.459826,153.219100
110.618964,-1776.494261,10658.965565,-3600.648841
110.619273,1776.494261,11621.233289,-7277.907231
110.619582,4219.173869,12509.480420,-7201.297681
110.619892,-2368.659014,10066.800811,-4826.401637
110.620201,-1036.288319,10881.027347,1685.410096
110.620511,-666.185348,8808.450710,2681.334243
110.620820,-1258.350101,7328.038826,0.000000
110.621129,1850.514855,7254.018232,1532.190996
110.621439,592.164754,6809.894666,1302.362347
110.621748,-1628.453072,8290.306550,-1915.238745
110.622058,518.144159,10732.986159,-2298.286494
110.622367,-2294.638420,9326.594869,-2757.943793
110.622676,296.082377,10881.027347,-6205.373534
110.622986,4145.153275,14063.912898,-5822.325785
110.623295,-1554.432478,10214.842000,-1838.629195
110.623605,-1110.308913,9844.739029,4673.182538
110.623914,518.144159,5995.668130,8197.221829
110.624224,-444.123565,4885.359217,-153.219100
110.624533,2590.720797,7772.162391,-1378.971896
110.624842,888.247130,10066.800811,-2757.943793
110.625152,-4885.359217,9474.636058,-5515.887586
110.625461,2072.576638,9844.739029,-536.266849
110.625771,-1036.288319,11547.212695,-3294.210641
110.626080,-666.185348,11177.109724,-5745.716235
110.626389,2960.823768,11399.171507,-4979.620737
110.626699,3256.906145,9400.615463,-5898.935335
110.627008,-1924.535449,8290.306550,1225.752797
110.627318,-444.123565,8290.306550,4903.011187
110.627627,-2294.638420,7550.100608,2451.505594
110.627937,3256.906145,9622.677246,229.828649
110.628246,2812.782580,10362.883188,995.924147
110.628555,-1850.514855,8660.409521,-3907.087040
110.628865,-1184.329507,8438.347739,-1532.190996
110.629174,-1628.453072,12879.583391,-919.314598
110.629484,592.164754,9548.656652,-9193.145976
110.629793,1332.370696,11695.253884,-4060.306139
110.630102,370.102971,11473.192101,0.000000
110.630412,-2590.720797,8734.430116,1378.971896
110.630721,-814.226536,8068.244768,2451.505594
110.631031,-1110.308913,7105.977043,1838.629195
110.631340,-0.000000,8882.471304,-2374.896044
110.631650,3108.864956,9030.512492,-766.095498
110.631959,740.205942,7328.038826,-2451.505594
110.632268,-888.247130,8364.327145,-536.266849
110.632578,370.102971,10658.965565,5209.449386
110.632887,-1998.556043,9104.533087,76.609550
110.633197,2072.576638,10584.944971,-5592.497135
110.633506,3182.885551,10214.842000,-6971.469032
110.633815,-2442.679609,6883.915261,-5132.839837
110.634125,-3701.029710,10807.006753,1072.533697
110.634434,-1850.514855,9992.780217,536.266849
110.634744,740.205942,9252.574275,-3983.696590
110.635053,3997.112087,9104.533087,-1302.362347
110.635362,2072.576638,8216.285956,0.000000
110.635672,-222.061783,4885.359217,1762.019645
110.635981,-0.000000,9474.636058,5439.278036
110.636291,-1036.288319,10066.800811,536.266849
110.636600,888.247130,9992.780217,-3907.087040
110.636910,4071.132681,11029.068536,-4443.353888
110.637219,-2072.576638,12879.583391,-4213.525239
110.637528,-1998.556043,8956.491898,-2834.553343
110.637838,-1110.308913,9770.718434,459.657299
110.638147,-3034.844362,7476.080014,1608.800546
110.638457,3404.947333,10436.903782,0.000000
110.638766,3552.988522,7994.224174,-1225.752797
110.639075,-1850.514855,8364.327145,0.000000
110.639385,-666.185348,10955.047942,5286.058936
110.639694,-1702.473667,11547.212695,1072.533697
110.640004,-1776.494261,10436.903782,-7507.735880
110.640313,2664.741391,13175.665768,-7201.297681
110.640623,888.247130,8290.306550,-6358.592633
110.640932,-3404.947333,7328.038826,-3370.820191
110.641241,-3182.885551,9548.656652,4213.525239
110.641551,-1480.411884,7402.059420,2987.772442
110.641860,2886.803174,7846.182985,-1378.971896
110.642170,4589.276840,7402.059420,76.609550
110.642479,740.205942,5625.565159,2298.286494
110.642788,-3701.029710,7994.224174,3370.820191
110.643098,-4071.132681,13027.624579,-383.047749
110.643407,-518.144159,11399.171507,-9269.755526
110.643717,3775.050304,10362.883188,-12257.527968
110.644026,1480.411884,11325.150913,-6511.811733
110.644335,-2738.761985,9104.533087,-2451.505594
110.644645,-222.061783,9918.759623,3600.648841
110.644954,-1184.329507,9030.512492,4519.963438
110.645264,2812.782580,5477.523971,5286.058936
110.645573,4589.276840,8438.347739,995.924147
110.645883,518.144159,4885.359217,459.657299
110.646192,-3256.906145,7624.121203,3524.039291
110.646501,-2442.679609,11917.315666,153.219100
110.646811,-2590.720797,13101.645173,-10265.679673
110.647120,3997.112087,13545.768739,-9959.241474
110.647430,1406.391290,11917.315666,-5132.839837
110.647739,-2738.761985,10436.903782,-2451.505594
110.648048,74.020594,11251.130318,2528.115143
110.648358,-0.000000,10214.842000,6281.983084
110.648667,-1110.308913,6365.771101,3753.867940
110.648977,5329.482782,7994.224174,842.705048
110.649286,3330.926739,6809.894666,-1225.752797
110.649595,-2516.700203,7031.956449,76.609550
110.649905,-1258.350101,10881.027347,1378.971896
110.650214,-5033.400406,11399.171507,-7354.516781
110.650524,-0.000000,11473.192101,-9959.241474
110.650833,3923.091493,11843.295072,-7737.564530
110.651142,-888.247130,8216.285956,-5669.106685
110.651452,-1036.288319,8438.347739,4979.620737
110.651761,-1924.535449,9696.697840,10035.851024
110.652071,296.082377,3627.009116,3447.429741
110.652380,5921.647536,8290.306550,2528.115143
110.652689,2886.803174,7254.018232,1378.971896
110.652999,-2886.803174,8512.368333,-1991.848295
110.653308,-1850.514855,12287.418637,-689.485948
110.653618,-444.123565,12583.501014,-5822.325785
110.653927,370.102971,12583.501014,-11874.480219
110.654236,3997.112087,12583.501014,-6435.202183
110.654546,-3034.844362,9252.574275,-383.047749
110.654855,-2220.617826,9104.533087,2528.115143
110.655165,1998.556043,8660.409521,4903.011187
110.655474,1924.535449,3997.112087,2987.772442
110.655783,-444.123565,7476.080014,2681.334243
110.656093,4293.194464,8808.450710,76.609550
110.656402,-296.082377,4589.276840,-3217.601092
110.656712,1702.473667,12435.459826,-919.314598
110.657021,-2368.659014,15396.283594,-1455.581446
110.657330,-0.000000,11547.212695,-10035.851024
110.657640,5181.441594,13101.645173,-9039.926876
110.657949,-1554.432478,10140.821405,-3677.258390
110.658258,-3701.029710,5551.544565,612.876398
110.658568,-2220.617826,8216.285956,5515.887586
110.658877,1850.514855,8142.265362,2374.896044
110.659187,1480.411884,5033.400406,-689.485948
110.659496,6439.791695,6735.874072,-3677.258390
110.659805,-2812.782580,4737.318029,-536.266849
110.660115,-888.247130,9992.780217,-1072.533697
110.660424,-222.061783,11029.068536,-1991.848295
110.660734,-3108.864956,9548.656652,-5592.497135
110.661043,2294.638420,13249.686362,-5515.887586
110.661352,2516.700203,12953.603985,-5362.668486
110.661662,-2886.803174,8882.471304,-3830.477490
110.661971,-2146.597232,9030.512492,3370.820191
110.662281,-1036.288319,8956.491898,3600.648841
110.662590,444.123565,5403.503377,-1608.800546
110.662899,6143.709319,9844.739029,-766.095498
110.663209,2812.782580,5699.585753,0.000000
110.663518,-3478.967927,9030.512492,3907.087040
110.663828,-1998.556043,13471.748144,5745.716235
110.664137,-1776.494261,9992.780217,-5209.449386
110.664446,3404.947333,13471.748144,-9116.536426
110.664756,518.144159,12879.583391,-4749.792088
110.665065,-2590.720797,10140.821405,-5132.839837
110.665375,-3330.926739,11991.336260,-1225.752797
110.665684,-592.164754,10955.047942,919.314598
110.665993,-814.226536,5181.441594,-536.266849
110.666303,4293.194464,6587.832884,1149.143247
110.666612,5773.606348,5477.523971,2374.896044
110.666921,-2812.782580,5181.441594,4596.572988
110.667231,444.123565,10658.965565,4903.011187
110.667540,-1628.453072,10732.986159,-2911.162892
110.667850,-148.041188,10807.006753,-7354.516781
110.668159,4589.276840,10362.883188,-6588.421283
110.668468,-3034.844362,12731.542202,-9269.755526
110.668778,-1332.370696,10584.944971,-5209.449386
110.669087,-2960.823768,10658.965565,-612.876398
110.669397,1110.308913,6587.832884,1532.190996
110.669706,2960.823768,6069.688724,2911.162892
110.670015,2368.659014,6217.729913,6205.373534
110.670325,1110.308913,3775.050304,5132.839837
110.670634,1036.288319,8216.285956,4979.620737
110.670944,-3256.906145,11917.315666,306.438199
110.671253,-888.247130,10584.944971,-7048.078582
110.671562,2590.720797,14804.118840,-11184.994271
110.671872,-1110.308913,12731.542202,-10801.946522
110.672181,-5625.565159,11399.171507,-5056.230287
110.672491,-0.000000,11843.295072,-766.095498
110.672800,444.123565,8808.450710,-689.485948
110.673109,2368.659014,7105.977043,3753.867940
110.673419,3552.988522,7994.224174,7048.078582
110.673728,2072.576638,2146.597232,6128.763984
110.674038,1332.370696,7698.141797,4290.134789
110.674347,-1036.288319,10955.047942,2451.505594
110.674656,-2220.617826,13027.624579,-7737.564530
110.674966,1850.514855,12435.459826,-10572.117872
110.675275,-0.000000,13619.789333,-7890.783629
110.675585,-3849.070898,9474.636058,-8810.098227
110.675894,-0.000000,8734.430116,-1149.143247
110.676203,-1406.391290,9104.533087,4903.011187
110.676513,-2220.617826,6291.750507,5592.497135
110.676822,6069.688724,8586.388927,4060.306139
110.677131,3923.091493,4589.276840,2221.676944
110.677441,-1702.473667,5625.565159,3600.648841
110.677750,-1998.556043,10436.903782,3677.258390
110.678060,-4441.235652,8216.285956,-6511.811733
110.678369,1850.514855,13989.892304,-11491.432470
110.678678,2072.576638,14137.933492,-8273.831378
110.678988,-4811.338623,11473.192101,-7431.126331
110.679297,-1184.329507,10732.986159,-689.485948
110.679607,666.185348,10140.821405,3907.087040
110.679916,-2220.617826,6217.729913,2145.067394
110.680225,4811.338623,8364.327145,3753.867940
110.680535,5033.400406,5033.400406,3140.991542
110.680844,-444.123565,4441.235652,4903.011187
110.681154,-0.000000,11029.068536,5362.668486
110.681463,-814.226536,9030.512492,-1685.410096
110.681772,-592.164754,12213.398043,-8427.050478
110.682082,2516.700203,15100.201217,-6511.811733
110.682391,-0.000000,12213.398043,-4060.306139
110.682701,-1480.411884,10807.006753,-3907.087040
110.683010,-1702.473667,13175.665768,3830.477490
110.683319,-3182.885551,9030.512492,1378.971896
110.683629,3182.885551,7402.059420,-995.924147
110.683938,7920.203579,7476.080014,2604.724693
110.684248,-1406.391290,5107.421000,2145.067394
110.684557,-1702.473667,7550.100608,3370.820191
110.684866,-1554.432478,8586.388927,459.657299
110.685176,-1258.350101,9548.656652,-4213.525239
110.685485,4367.215058,13249.686362,-7890.783629
110.685794,1776.494261,10732.986159,-8886.707777
110.686104,-2886.803174,9400.615463,-4136.915689
110.686413,-2072.576638,11103.089130,3217.601092
110.686723,1628.453072,4959.379811,153.219100
110.687032,-0.000000,7179.997637,-383.047749
110.687341,4441.235652,10732.986159,459.657299
110.687651,1850.514855,2368.659014,-689.485948
110.687960,-814.226536,4219.173869,153.219100
110.688270,-2664.741391,11399.171507,3524.039291
110.688579,-1554.432478,13175.665768,-5209.449386
110.688888,5625.565159,13027.624579,-7584.345430
110.689198,518.144159,15174.221811,-7354.516781
110.689507,-4959.379811,10288.862594,-6281.983084
110.689817,-1702.473667,9252.574275,2221.676944
110.690126,-2368.659014,10362.883188,-306.438199
110.690435,-370.102971,5995.668130,-2834.553343
110.690745,5329.482782,8364.327145,153.219100
110.691054,666.185348,5255.462188,0.000000
110.691364,-888.247130,6217.729913,3217.601092
110.691673,-814.226536,12065.356855,5745.716235
110.691982,-2146.597232,11177.109724,-3753.867940
110.692292,2294.638420,12583.501014,-10878.556072
110.692601,2516.700203,12287.418637,-6511.811733
110.692911,-2146.597232,9474.636058,-5515.887586
110.693220,-2368.659014,7994.224174,306.438199
110.693529,-1998.556043,10732.986159,2911.162892
110.693839,-1628.453072,5551.544565,-536.266849
110.694148,3775.050304,9622.677246,-919.314598
110.694458,3627.009116,8882.471304,-995.924147
110.694767,-1628.453072,3478.967927,612.876398
110.695076,-1258.350101,8216.285956,5515.887586
110.695386,-2960.823768,12509.480420,-2681.334243
110.695695,666.185348,11325.150913,-8656.879127
110.696004,6217.729913,13767.830521,-6435.202183
110.696314,-1480.411884,9178.553681,-4903.011187
110.696623,-3701.029710,9474.636058,3907.087040
110.696933,-1406.391290,13249.686362,3370.820191
110.697242,-2072.576638,6217.729913,-2681.334243
110.697551,3849.070898,8142.265362,-1378.971896
110.697861,2664.741391,7105.977043,1149.143247
110.698170,-148.041188,5921.647536,1149.143247
110.698480,1924.535449,8586.388927,5669.106685
110.698789,-1406.391290,12065.356855,1991.848295
110.699098,-296.082377,11917.315666,-7507.735880
110.699408,2886.803174,13841.851115,-10112.460574
110.699717,-2516.700203,9622.677246,-4749.792088
110.700027,-5625.565159,6587.832884,-2451.505594
110.700336,444.123565,13767.830521,842.705048
110.700645,-3182.885551,9030.512492,-2068.457845
110.700955,2072.576638,10510.924376,-1455.581446
110.701264,4885.359217,9992.780217,1532.190996
110.701574,1036.288319,3923.091493,1225.752797
110.701883,-1258.350101,7179.997637,4519.963438
110.702192,-2146.597232,10362.883188,4519.963438
110.702502,-370.102971,8068.244768,-4826.401637
110.702811,3923.091493,13027.624579,-7277.907231
110.703121,-740.205942,11177.109724,-6435.202183
110.703430,-3923.091493,6587.832884,-3370.820191
110.703739,-3775.050304,11843.295072,-1225.752797
110.704049,-1554.432478,12065.356855,-1685.410096
110.704358,-74.020594,9844.739029,-3830.477490
110.704667,4367.215058,8512.368333,1762.019645
110.704977,1850.514855,6365.771101,1302.362347
110.705286,518.144159,9918.759623,-1072.533697
110.705596,814.226536,11325.150913,2681.334243
110.705905,-1554.432478,9104.533087,-2221.676944
110.706214,3923.091493,11769.274478,-4903.011187
110.706524,2368.659014,12805.562797,-2834.553343
110.706833,-2590.720797,9474.636058,-5132.839837
110.707143,-296.082377,8734.430116,-612.876398
110.707452,-2590.720797,9622.677246,459.657299
110.707761,-2368.659014,7105.977043,-2757.943793
110.708071,4071.132681,9844.739029,842.705048
110.708380,2886.803174,9844.739029,-612.876398
110.708690,-1924.535449,6217.729913,1838.629195
110.708999,-740.205942,10584.944971,4596.572988
110.709308,-1628.453072,10362.883188,-2221.676944
110.709618,370.102971,10732.986159,-6818.249932
110.709927,4663.297435,13101.645173,-5822.325785
110.710237,-2516.700203,8290.306550,-5439.278036
110.710546,-1924.535449,8586.388927,76.609550
110.710855,-3108.864956,10214.842000,2834.553343
110.711165,518.144159,8512.368333,-4213.525239
110.711474,1776.494261,10214.842000,-612.876398
110.711784,740.205942,6661.853478,3370.820191
110.712093,-962.267725,6365.771101,-1149.143247
110.712402,1110.308913,10955.047942,-1762.019645
110.712712,-3701.029710,9992.780217,-1302.362347
110.713021,-74.020594,9104.533087,-5056.230287
110.713331,5625.565159,14137.933492,-5286.058936
110.713640,518.144159,10658.965565,-3294.210641
110.713949,-1406.391290,6439.791695,0.000000
110.714259,-962.267725,11029.068536,2834.553343
110.714568,-3330.926739,8068.244768,-153.219100
110.714877,1702.473667,7698.141797,-612.876398
110.715187,4589.276840,9696.697840,2451.505594
110.715496,-666.185348,7402.059420,-4443.353888
110.715806,-2146.597232,8734.430116,2451.505594
110.716115,-592.164754,11029.068536,2451.505594
110.716424,-2146.597232,9326.594869,-5592.497135
110.716734,4737.318029,13027.624579,-4826.401637
110.717043,666.185348,9844.739029,-2987.772442
110.717353,-3034.844362,7179.997637,-2757.943793
110.717662,-1036.288319,11843.295072,4136.915689
110.717971,-3256.906145,9326.594869,-1455.581446
110.718281,1702.473667,8660.409521,-3524.039291
110.718590,3330.926739,11991.336260,76.609550
110.718900,-1628.453072,6883.915261,842.705048
110.719209,-1628.453072,8142.265362,612.876398
110.719518,-1480.411884,11695.253884,-1915.238745
110.719828,-5551.544565,8364.327145,-4903.011187
110.720137,2664.741391,11473.192101,-5822.325785
110.720447,2812.782580,10066.800811,-6741.640382
110.720756,-2220.617826,8808.450710,-2298.286494
110.721065,-1924.535449,9252.574275,4826.401637
110.721375,-740.205942,9992.780217,3064.381992
110.721684,-0.000000,10066.800811,-2298.286494
110.721994,5255.462188,7476.080014,1302.362347
110.722303,-1554.432478,6809.894666,-995.924147
110.722612,-2516.700203,4737.318029,-1455.581446
110.722922,-444.123565,8808.450710,2145.067394
110.723231,-4293.194464,8586.388927,-1608.800546
110.723540,2294.638420,13693.809927,-4979.620737
110.723850,3034.844362,13249.686362,-5056.230287
110.724159,-1258.350101,9622.677246,-4903.011187
110.724469,-740.205942,7772.162391,1225.752797
110.724778,-2812.782580,9918.759623,1378.971896
110.725087,-2220.617826,8142.265362,-4596.572988
110.725397,3997.112087,9696.697840,612.876398
110.725706,3775.050304,10140.821405,-153.219100
110.726016,-1776.494261,6069.688724,-229.828649
110.726325,-1332.370696,12509.480420,5439.278036
110.726634,-4811.338623,11991.336260,-1838.629195
110.726944,1406.391290,8882.471304,-9806.022374
110.727253,4737.318029,13323.706956,-9499.584175
110.727563,-0.000000,9622.677246,-6128.763984
110.727872,-3997.112087,6883.915261,-689.485948
110.728181,1332.370696,8808.450710,4903.011187
110.728491,-3182.885551,6809.894666,2528.115143
110.728800,2442.679609,7994.224174,1915.238745
110.729110,3997.112087,8882.471304,689.485948
110.729419,3404.947333,5921.647536,-1915.238745
110.729728,-2442.679609,7105.977043,1455.581446
110.730038,-5477.523971,11177.109724,306.438199
110.730347,-2738.761985,12361.439231,-8656.879127
110.730657,5699.585753,14211.954086,-9116.536426
110.730966,222.061783,13841.851115,-8120.612279
110.731275,-666.185348,9252.574275,-2834.553343
110.731585,-0.000000,8142.265362,4060.306139
110.731894,-2442.679609,7328.038826,3753.867940
110.732204,814.226536,4811.338623,2528.115143
110.732513,5921.647536,7624.121203,2221.676944
110.732822,-0.000000,4219.173869,612.876398
110.733132,-444.123565,8068.244768,3907.087040
110.733441,-3330.926739,9622.677246,2221.676944
110.733750,-6069.688724,15248.242405,-11108.384721
110.734060,2072.576638,18209.066173,-10189.070123
110.734369,3182.885551,12435.459826,-8656.879127
110.734679,-4885.359217,9622.677246,-5822.325785
110.734988,-0.000000,10214.842000,4060.306139
110.735297,-2146.597232,8512.368333,3753.867940
110.735607,370.102971,7179.997637,1685.410096
110.735916,5699.585753,8660.409521,4749.792088
110.736226,3701.029710,8142.265362,1455.581446
110.736535,-2960.823768,4811.338623,2374.896044
110.736844,-2146.597232,8438.347739,2604.724693
110.737154,-4367.215058,11547.212695,-7584.345430
110.737463,296.082377,13693.809927,-14402.595362
110.737773,4737.318029,15396.283594,-8350.440928
110.738082,-1258.350101,9030.512492,-5056.230287
110.738391,-592.164754,9400.615463,1608.800546
110.738701,-0.000000,6809.894666,7967.393179
110.739010,-296.082377,4737.318029,5745.716235
110.739320,3478.967927,5699.585753,4903.011187
110.739629,4441.235652,5699.585753,2145.067394
110.739938,-666.185348,7476.080014,-995.924147
110.740248,-3775.050304,10955.047942,-1302.362347
110.740557,-3330.926739,14730.098246,-5056.230287
110.740867,-1480.411884,15174.221811,-11184.994271
110.741176,1628.453072,15692.365970,-10495.508323
110.741485,-296.082377,13619.789333,-4366.744339
110.741795,-4145.153275,7550.100608,2451.505594
110.742104,2294.638420,7031.956449,4749.792088
110.742413,-888.247130,4071.132681,3370.820191
110.742723,1036.288319,7105.977043,4290.134789
110.743032,5699.585753,6513.812290,4290.134789
110.743342,1332.370696,3923.091493,-766.095498
110.743651,-2886.803174,10584.944971,-995.924147
110.743960,-3627.009116,13175.665768,-995.924147
110.744270,-1258.350101,11473.192101,-12027.699319
110.744579,2738.761985,14582.057057,-10801.946522
110.744889,2664.741391,11399.171507,-5132.839837
110.745198,-3330.926739,4737.318029,842.705048
110.745507,-2146.597232,7624.121203,6741.640382
110.745817,592.164754,7772.162391,6511.811733
110.746126,2294.638420,5699.585753,229.828649
110.746436,4589.276840,9844.739029,2374.896044
110.746745,592.164754,4885.359217,2757.943793
110.747054,-2072.576638,7624.121203,-1149.143247
110.747364,-2886.803174,13101.645173,-2528.115143
110.747673,-2220.617826,13619.789333,-8427.050478
110.747983,740.205942,15174.221811,-9422.974625
110.748292,1998.556043,14508.036463,-6128.763984
110.748602,-2368.659014,6661.853478,-2145.067394
110.748911,222.061783,6661.853478,3064.381992
110.749221,-592.164754,9770.718434,4596.572988
110.749530,-148.041188,5625.565159,2987.772442
110.749840,4885.359217,8142.265362,1608.800546
110.750149,4737.318029,6661.853478,-306.438199
110.750459,-444.123565,6439.791695,1225.752797
110.750768,-3404.947333,11621.233289,2681.334243
110.751078,-2368.659014,12139.377449,-3907.087040
110.751387,2960.823768,13175.665768,-9116.536426
110.751697,1184.329507,14211.954086,-5439.278036
110.752006,-4293.194464,11399.171507,-5362.668486
110.752316,-4663.297435,6809.894666,-1225.752797
110.752625,-888.247130,9178.553681,2528.115143
110.752935,-2294.638420,9030.512492,-229.828649
110.753244,4145.153275,8808.450710,-612.876398
110.753554,4145.153275,10510.924376,1991.848295
110.753863,-0.000000,6069.688724,3830.477490
110.754173,1184.329507,7031.956449,3983.696590
110.754482,-3923.091493,7476.080014,1302.362347
110.754792,-1628.453072,10881.027347,-5822.325785
110.755101,1776.494261,11473.192101,-10265.679673
110.755411,-1406.391290,9474.636058,-6435.202183
110.755720,-4959.379811,8142.265362,-3983.696590
110.756030,1258.350101,9326.594869,-3064.381992
110.756339,-0.000000,8068.244768,-3677.258390
110.756649,-592.164754,9400.615463,2834.553343
110.756958,4441.235652,10510.924376,7124.688131
110.757268,5995.668130,4811.338623,2911.162892
110.757577,-1332.370696,8808.450710,5439.278036
110.757887,-4367.215058,9548.656652,7967.393179
110.758196,-1258.350101,8216.285956,-8120.612279
