#time,accel_x,accel_y,accel_z
140.970164,-0.000000,9844.739029,-459.657299
140.970474,-666.185348,10658.965565,-2757.943793
140.970784,148.041188,8660.409521,-1991.848295
140.971094,-0.000000,8956.491898,-1991.848295
140.971403,-666.185348,8808.450710,-1532.190996
140.971713,74.020594,10436.903782,-842.705048
140.972023,444.123565,10066.800811,-612.876398
140.972333,370.102971,9622.677246,-536.266849
140.972643,-370.102971,8956.491898,-1225.752797
140.972952,-222.061783,8142.265362,-2221.676944
140.973262,370.102971,9104.533087,-1455.581446
140.973572,-518.144159,9844.739029,-1072.533697
140.973882,740.205942,9844.739029,153.219100
140.974192,-148.041188,9178.553681,0.000000
140.974501,1258.350101,9474.636058,-1455.581446
140.974811,888.247130,7402.059420,153.219100
140.975121,-0.000000,8290.306550,-1149.143247
140.975431,666.185348,9474.636058,-383.047749
140.975741,592.164754,8364.327145,459.657299
140.976050,1702.473667,7328.038826,612.876398
140.976360,2146.597232,6439.791695,1302.362347
140.976670,3256.906145,7846.182985,4443.353888
140.976980,2960.823768,8216.285956,8427.050478
140.977290,-1554.432478,5921.647536,8886.707777
140.977599,4885.359217,10807.006753,10035.851024
140.977909,4219.173869,6217.729913,4673.182538
140.978219,1924.535449,7179.997637,7660.954980
140.978529,-2738.761985,9474.636058,15858.176809
140.978839,370.102971,12361.439231,13866.328514
140.979148,2220.617826,10214.842000,2681.334243
140.979458,370.102971,12435.459826,5286.058936
140.979768,-1036.288319,13323.706956,9806.022374
140.980078,-16358.551318,8438.347739,13176.842566
140.980388,26943.496289,19541.436869,-5975.544884
140.980697,-13323.706956,7179.997637,4673.182538
140.981007,-9104.533087,14434.015869,24515.055936
140.981317,-11029.068536,7402.059420,23519.131789
140.981627,4071.132681,9622.677246,-766.095498
140.981937,10881.027347,16580.613101,-3907.087040
140.982246,-15692.365970,5181.441594,12563.966167
140.982556,-0.000000,14063.912898,5132.839837
140.982866,-1332.370696,2960.823768,1072.533697
140.983176,-4663.297435,8290.306550,2604.724693
140.983486,148.041188,5477.523971,17773.415554
140.983795,592.164754,2146.597232,11108.384721
140.984105,-814.226536,5181.441594,12257.527968
140.984415,-2220.617826,3701.029710,18462.901502
140.984725,-814.226536,9030.512492,2911.162892
140.985035,-3923.091493,4145.153275,2451.505594
140.985344,2886.803174,16062.468941,2757.943793
140.985654,1036.288319,10584.944971,-3217.601092
140.985964,4219.173869,15618.345376,536.266849
140.986274,-518.144159,12361.439231,21757.112143
140.986584,-296.082377,5329.482782,24515.055936
140.986893,3330.926739,5255.462188,16011.395908
140.987203,444.123565,4515.256246,10572.117872
140.987513,-74.020594,9918.759623,6281.983084
140.987823,5181.441594,13323.706956,-3753.867940
140.988133,5699.585753,17838.963202,-5132.839837
140.988442,-592.164754,16802.674883,9882.631924
140.988752,-8142.265362,14211.954086,20148.311597
140.989062,-4071.132681,11621.233289,14862.252661
140.989372,3701.029710,10436.903782,-1225.752797
140.989682,5403.503377,7624.121203,-7201.297681
140.989991,-0.000000,8216.285956,2987.772442
140.990301,-2368.659014,11177.109724,17773.415554
140.990611,-444.123565,9622.677246,14785.643111
140.990921,2738.761985,7105.977043,8963.317327
140.991230,3404.947333,4441.235652,3294.210641
140.991540,-4515.256246,-222.061783,4826.401637
140.991850,-9178.553681,5255.462188,5975.544884
140.992160,2146.597232,9178.553681,-2528.115143
140.992470,10066.800811,8734.430116,-10572.117872
140.992779,3256.906145,8364.327145,4903.011187
140.993089,-8660.409521,6365.771101,25357.760984
140.993399,-4959.379811,9030.512492,23059.474490
140.993709,4367.215058,8808.450710,2451.505594
140.994019,4071.132681,10066.800811,-5209.449386
140.994328,-4071.132681,12139.377449,919.314598
140.994638,-7698.141797,13619.789333,-536.266849
140.994948,4885.359217,16062.468941,-8503.660028
140.995258,9030.512492,14285.974681,-1608.800546
140.995568,-2368.659014,8734.430116,21220.845295
140.995877,-3923.091493,6217.729913,31256.696318
140.996187,5847.626942,2886.803174,14402.595362
140.996497,3182.885551,2368.659014,2451.505594
140.996807,-2146.597232,6069.688724,7660.954980
140.997117,2516.700203,7105.977043,689.485948
140.997426,3997.112087,5773.606348,-4596.572988
140.997736,-3997.112087,8586.388927,13406.671215
140.998046,814.226536,19615.457463,18233.072852
140.998356,12657.521608,11473.192101,17083.929605
140.998666,-12953.603985,10436.903782,13636.499864
140.998975,4663.297435,18061.024985,12563.966167
140.999285,5181.441594,5403.503377,-14019.547613
140.999595,3701.029710,14582.057057,-8197.221829
140.999905,-11695.253884,11991.336260,29801.114872
141.000215,5477.523971,19541.436869,16930.710506
141.000524,1924.535449,9326.594869,153.219100
141.000834,-9178.553681,11251.130318,16164.615008
141.001144,-1406.391290,9844.739029,17620.196454
141.001454,2146.597232,7476.080014,-9346.365076
141.001764,5995.668130,10955.047942,-4443.353888
141.002073,-6143.709319,12065.356855,16547.662757
141.002383,2072.576638,17838.963202,10035.851024
141.002693,4811.338623,8438.347739,919.314598
141.003003,-370.102971,11473.192101,12487.356617
141.003313,-5477.523971,10658.965565,25051.322785
141.003622,1998.556043,1850.514855,13406.671215
141.003932,3997.112087,4885.359217,4596.572988
141.004242,2368.659014,3552.988522,9806.022374
141.004552,3627.009116,-370.102971,5515.887586
141.004862,2146.597232,7772.162391,7737.564530
141.005171,-3330.926739,12287.418637,19305.606550
141.005481,-3478.967927,9400.615463,17313.758255
141.005791,4959.379811,10214.842000,3524.039291
141.006101,296.082377,5699.585753,-1072.533697
141.006411,-10732.986159,6069.688724,11644.651570
141.006720,-3627.009116,10510.924376,12640.575717
141.007030,814.226536,11621.233289,306.438199
141.007340,2146.597232,14804.118840,1685.410096
141.007650,-0.000000,17320.819043,13176.842566
141.007960,-4737.318029,13101.645173,14402.595362
141.008269,-2368.659014,14211.954086,7967.393179
141.008579,-2294.638420,12509.480420,3140.991542
141.008889,1184.329507,10510.924376,-5286.058936
141.009199,1924.535449,7254.018232,-842.705048
141.009509,-5107.421000,6291.750507,8503.660028
141.009818,-740.205942,7179.997637,13023.623466
141.010128,-592.164754,4219.173869,9959.241474
141.010438,10584.944971,3256.906145,8580.269578
141.010748,-6809.894666,1998.556043,15628.348159
141.011058,-3182.885551,6439.791695,10878.556072
141.011367,7402.059420,8956.491898,-5286.058936
141.011677,7624.121203,7105.977043,-4290.134789
141.011987,-3552.988522,10288.862594,15934.786358
141.012297,-4367.215058,12213.398043,20378.140247
141.012607,1332.370696,9770.718434,5592.497135
141.012916,3701.029710,9474.636058,1838.629195
141.013226,-5699.585753,9178.553681,9806.022374
141.013536,-3256.906145,10066.800811,0.000000
141.013846,5255.462188,14211.954086,-13483.280765
141.014156,1850.514855,19911.539840,-7201.297681
141.014465,-5773.606348,15174.221811,7507.735880
141.014775,1850.514855,11103.089130,6894.859482
141.015085,6587.832884,11029.068536,1302.362347
141.015395,1258.350101,6143.709319,5056.230287
141.015705,-2590.720797,7994.224174,10648.727422
141.016014,3330.926739,1702.473667,-459.657299
141.016324,9104.533087,2960.823768,-10725.336972
141.016634,5255.462188,3404.947333,-7814.174080
141.016944,-5847.626942,5847.626942,9499.584175
141.017254,-444.123565,3552.988522,14555.814462
141.017563,9326.594869,8364.327145,1378.971896
141.017873,-370.102971,2812.782580,-459.657299
141.018183,-8660.409521,12583.501014,7967.393179
141.018493,-148.041188,2294.638420,-919.314598
141.018803,2960.823768,9918.759623,-13559.890315
141.019112,2146.597232,15840.407159,-5439.278036
141.019422,-4885.359217,18653.189738,4673.182538
141.019732,-1554.432478,16358.551318,0.000000
141.020042,-3404.947333,14359.995275,2221.676944
141.020352,-6069.688724,17616.901420,3983.696590
141.020661,1702.473667,8808.450710,-2911.162892
141.020971,2960.823768,11695.253884,-8120.612279
141.021281,370.102971,7920.203579,1762.019645
141.021591,222.061783,9992.780217,6665.030833
141.021901,2590.720797,6735.874072,2374.896044
141.022210,1554.432478,2072.576638,4060.306139
141.022520,-4737.318029,2368.659014,11031.775171
141.022830,-4293.194464,3108.864956,7201.297681
141.023140,9252.574275,8068.244768,-10112.460574
141.023450,-2664.741391,3256.906145,-3447.429741
141.023759,3330.926739,15248.242405,6894.859482
141.024069,1036.288319,5329.482782,4596.572988
141.024379,2146.597232,12435.459826,2145.067394
141.024689,-16136.489536,10066.800811,18156.463303
141.024999,-5107.421000,14359.995275,1991.848295
141.025308,6365.771101,16950.716072,-21603.893044
141.025618,-3701.029710,15470.304188,-16547.662757
141.025928,-6661.853478,20281.642811,1532.190996
141.026237,-814.226536,15100.201217,229.828649
141.026547,8882.471304,12731.542202,-5975.544884
141.026857,-5625.565159,4885.359217,11261.603821
141.027167,-7105.977043,9252.574275,17313.758255
141.027476,6291.750507,4293.194464,-2451.505594
141.027786,6883.915261,3552.988522,-12487.356617
141.028096,-2368.659014,10658.965565,-766.095498
141.028406,1628.453072,4663.297435,-229.828649
141.028715,3478.967927,5921.647536,-3294.210641
141.029025,-8290.306550,8734.430116,14709.033562
141.029335,-296.082377,10066.800811,12180.918418
141.029644,5625.565159,5181.441594,-4596.572988
141.029954,1332.370696,15544.324782,-7890.783629
141.030264,-6069.688724,9844.739029,2604.724693
141.030574,5033.400406,14804.118840,-6665.030833
141.030883,4293.194464,11843.295072,-10265.679673
141.031193,-7920.203579,11325.150913,8044.002729
141.031503,-6587.832884,15396.283594,15628.348159
141.031813,814.226536,11103.089130,-8810.098227
141.032122,8216.285956,12361.439231,-17237.148705
141.032432,-7476.080014,6439.791695,4213.525239
141.032742,1332.370696,8586.388927,3600.648841
141.033051,7772.162391,1258.350101,-9193.145976
141.033361,6439.791695,6217.729913,-306.438199
141.033671,-6957.935855,5329.482782,19841.873398
141.033981,-2960.823768,6661.853478,7584.345430
141.034290,6661.853478,10584.944971,-8733.488677
141.034600,2220.617826,6217.729913,-4596.572988
141.034910,4811.338623,12213.398043,-6741.640382
141.035220,-2886.803174,6957.935855,-5362.668486
141.035529,1702.473667,15396.283594,2451.505594
141.035839,740.205942,11325.150913,4136.915689
141.036149,-6809.894666,13989.892304,-3064.381992
141.036458,-518.144159,13323.706956,-689.485948
141.036768,-7031.956449,11621.233289,-306.438199
141.037078,7624.121203,14434.015869,-13789.718964
141.037388,-4959.379811,7254.018232,-6281.983084
141.037697,2886.803174,4589.276840,1225.752797
141.038007,-8512.368333,222.061783,5439.278036
141.038317,888.247130,8956.491898,1378.971896
141.038627,2294.638420,3627.009116,1455.581446
141.038936,-4515.256246,6513.812290,0.000000
141.039246,2812.782580,9104.533087,-3370.820191
141.039556,3849.070898,3108.864956,-7354.516781
141.039865,3330.926739,6883.915261,-3907.087040
141.040175,-9770.718434,6069.688724,10801.946522
141.040485,1036.288319,11991.336260,9499.584175
141.040795,7772.162391,8956.491898,-5056.230287
141.041104,-3997.112087,12139.377449,-9729.412825
141.041414,-3478.967927,15840.407159,1225.752797
141.041724,74.020594,13175.665768,-2145.067394
141.042034,8364.327145,11621.233289,-16777.491406
141.042343,-1628.453072,14434.015869,153.219100
141.042653,-8882.471304,18875.251521,13100.233016
141.042963,2442.679609,11547.212695,-4673.182538
141.043272,6809.894666,8660.409521,-17620.196454
141.043582,592.164754,5551.544565,1991.848295
141.043892,-888.247130,5403.503377,5975.544884
141.044202,2590.720797,2368.659014,306.438199
141.044511,3923.091493,5255.462188,1608.800546
141.044821,-1332.370696,8808.450710,383.047749
141.045131,-4293.194464,4663.297435,-1685.410096
141.045441,1184.329507,12583.501014,-3217.601092
141.045750,1480.411884,9992.780217,-5592.497135
141.046060,4441.235652,14359.995275,-6358.592633
141.046370,814.226536,7105.977043,1685.410096
141.046679,-6809.894666,6291.750507,6435.202183
141.046989,1258.350101,7846.182985,2681.334243
141.047299,-4145.153275,13545.768739,-1149.143247
141.047609,518.144159,13841.851115,306.438199
141.047918,-444.123565,13101.645173,-3753.867940
141.048228,3404.947333,15840.407159,-11261.603821
141.048538,1924.535449,8364.327145,-7201.297681
141.048848,1036.288319,7328.038826,-2221.676944
141.049157,-7179.997637,1776.494261,11261.603821
141.049467,1776.494261,6069.688724,7048.078582
141.049777,5033.400406,4293.194464,-3600.648841
141.050086,-4737.318029,6513.812290,-766.095498
141.050396,-0.000000,15396.283594,1915.238745
141.050706,1332.370696,7846.182985,-5592.497135
141.051016,11695.253884,11769.274478,-10189.070123
141.051325,-4811.338623,4367.215058,6052.154434
141.051635,-9474.636058,10881.027347,13176.842566
141.051945,222.061783,11177.109724,5132.839837
141.052255,296.082377,11843.295072,-8120.612279
141.052564,-1850.514855,17690.922014,-9193.145976
141.052874,-3404.947333,12953.603985,-4213.525239
141.053184,5847.626942,15692.365970,-11797.870669
141.053493,-2146.597232,11621.233289,-7967.393179
141.053803,-1406.391290,14211.954086,4903.011187
141.054113,-1406.391290,7772.162391,7277.907231
141.054423,-1110.308913,6069.688724,1608.800546
141.054732,4219.173869,6661.853478,-1838.629195
141.055042,-2220.617826,3701.029710,-3370.820191
141.055352,3478.967927,6883.915261,-5515.887586
141.055662,1998.556043,4367.215058,-2911.162892
141.055971,1258.350101,6735.874072,2757.943793
141.056281,-2294.638420,8512.368333,1991.848295
141.056591,-3775.050304,8142.265362,5515.887586
141.056900,-1480.411884,9326.594869,-766.095498
141.057210,-814.226536,6735.874072,-11108.384721
141.057520,7179.997637,9918.759623,-13100.233016
141.057830,-6587.832884,8142.265362,536.266849
141.058139,-3108.864956,13175.665768,5056.230287
141.058449,2590.720797,12953.603985,-1838.629195
141.058759,2294.638420,16580.613101,-8963.317327
141.059069,-1480.411884,11769.274478,-919.314598
141.059378,-5921.647536,11547.212695,1072.533697
141.059688,5403.503377,9622.677246,-8197.221829
141.059998,8364.327145,8290.306550,-9806.022374
141.060308,-3775.050304,6957.935855,3753.867940
141.060617,-4737.318029,5403.503377,11644.651570
141.060927,4589.276840,9992.780217,0.000000
141.061237,-518.144159,9252.574275,-5592.497135
141.061546,-148.041188,8956.491898,-2987.772442
141.061856,2738.761985,6069.688724,-5515.887586
141.062166,-1184.329507,10362.883188,-9039.926876
141.062476,-222.061783,7105.977043,-689.485948
141.062785,-1628.453072,13101.645173,3524.039291
141.063095,-1332.370696,9474.636058,1838.629195
141.063405,-1554.432478,11843.295072,0.000000
141.063715,-2368.659014,13767.830521,-2604.724693
141.064024,-1406.391290,8438.347739,-7890.783629
141.064334,1184.329507,10584.944971,-8120.612279
141.064644,-3997.112087,7846.182985,-2068.457845
141.064953,2442.679609,9992.780217,-4749.792088
141.065263,2590.720797,6217.729913,-5745.716235
141.065573,-4515.256246,8438.347739,5209.449386
141.065883,-3256.906145,10214.842000,10725.336972
141.066192,7031.956449,7994.224174,-7737.564530
141.066502,3552.988522,5551.544565,-9499.584175
141.066812,-7994.224174,6735.874072,9652.803275
141.067122,3849.070898,8586.388927,229.828649
141.067431,2516.700203,6735.874072,-11184.994271
141.067741,296.082377,16728.654289,153.219100
141.068051,-3478.967927,10436.903782,8044.002729
141.068360,3108.864956,11917.315666,-3140.991542
141.068670,5255.462188,12139.377449,-4060.306139
141.068980,-8660.409521,7254.018232,5362.668486
141.069290,-296.082377,13323.706956,1225.752797
141.069599,3923.091493,11991.336260,-10265.679673
141.069909,3034.844362,15544.324782,-11797.870669
141.070219,-4293.194464,10658.965565,689.485948
141.070529,-3034.844362,9770.718434,2145.067394
141.070838,7031.956449,4811.338623,-1608.800546
141.071148,-592.164754,5995.668130,2911.162892
141.071458,-7624.121203,3775.050304,9193.145976
141.071767,-592.164754,6439.791695,-842.705048
141.072077,10066.800811,11547.212695,-14938.862211
141.072387,-444.123565,3627.009116,-6511.811733
141.072697,1184.329507,11547.212695,4290.134789
141.073006,-3256.906145,3108.864956,1685.410096
141.073316,1554.432478,8882.471304,6052.154434
141.073626,-5329.482782,7254.018232,11491.432470
141.073936,-3256.906145,11103.089130,-4596.572988
141.074245,2220.617826,14063.912898,-15551.738609
141.074555,-6291.750507,11695.253884,-5362.668486
141.074865,222.061783,19615.457463,-6358.592633
141.075174,444.123565,11991.336260,-9729.412825
141.075484,3404.947333,11473.192101,-536.266849
141.075794,-10066.800811,8808.450710,13330.061665
141.076104,-2220.617826,10955.047942,7354.516781
141.076413,9400.615463,2442.679609,-8273.831378
141.076723,-4811.338623,4145.153275,-4136.915689
141.077033,1480.411884,10584.944971,2987.772442
141.077343,1702.473667,3552.988522,-4826.401637
141.077652,7846.182985,9770.718434,-10342.289223
141.077962,-7846.182985,7624.121203,3294.210641
141.078272,-4811.338623,9548.656652,8580.269578
141.078581,3478.967927,5329.482782,-2068.457845
141.078891,-740.205942,8364.327145,-3447.429741
141.079201,962.267725,14359.995275,-1455.581446
141.079511,-3627.009116,8512.368333,-2528.115143
141.079820,6143.709319,11399.171507,-5592.497135
141.080130,-3034.844362,14211.954086,1302.362347
141.080440,-2886.803174,13323.706956,6205.373534
141.080750,-1258.350101,11177.109724,-3447.429741
141.081059,814.226536,10140.821405,-12487.356617
141.081369,-2590.720797,8808.450710,-5286.058936
141.081679,-3849.070898,5699.585753,459.657299
141.081988,8142.265362,6587.832884,-7277.907231
141.082298,1406.391290,5625.565159,1225.752797
141.082608,-5033.400406,6883.915261,12334.137518
141.082918,888.247130,7846.182985,4519.963438
141.083227,7550.100608,5699.585753,-6052.154434
141.083537,-2072.576638,5921.647536,-4443.353888
141.083847,-3108.864956,7846.182985,2604.724693
141.084157,5699.585753,6735.874072,-3907.087040
141.084466,-2368.659014,13767.830521,-5515.887586
141.084776,-4515.256246,15026.180623,1225.752797
141.085086,-0.000000,12065.356855,-1225.752797
141.085395,962.267725,14508.036463,-12793.794817
141.085705,-0.000000,12657.521608,-8120.612279
141.086015,-1998.556043,11325.150913,-2451.505594
141.086325,3108.864956,6513.812290,-3600.648841
141.086634,1628.453072,6143.709319,-2298.286494
141.086944,-4367.215058,8068.244768,8656.879127
141.087254,148.041188,6957.935855,2298.286494
141.087564,296.082377,7698.141797,-10265.679673
141.087873,-2220.617826,9696.697840,-1455.581446
141.088183,592.164754,13693.809927,-766.095498
141.088493,8808.450710,6513.812290,-12180.918418
141.088802,296.082377,6735.874072,-4366.744339
141.089112,-9326.594869,6587.832884,12257.527968
141.089422,1776.494261,10807.006753,4136.915689
141.089732,6809.894666,9030.512492,-9652.803275
141.090041,-3478.967927,11769.274478,612.876398
141.090351,-5181.441594,16950.716072,2528.115143
141.090661,5995.668130,11473.192101,-11721.261119
141.090971,6291.750507,10288.862594,-9882.631924
141.091280,-10732.986159,11917.315666,8120.612279
141.091590,-1406.391290,10140.821405,6205.373534
141.091900,1406.391290,10732.986159,-7584.345430
141.092209,-592.164754,13027.624579,-4596.572988
141.092519,-5181.441594,10436.903782,4136.915689
141.092829,3330.926739,7105.977043,-6281.983084
141.093139,7994.224174,8586.388927,-12640.575717
141.093448,-3997.112087,6365.771101,3830.477490
141.093758,-5551.544565,6439.791695,13406.671215
141.094068,962.267725,8512.368333,-1378.971896
141.094378,7105.977043,11399.171507,-11031.775171
141.094687,-666.185348,8216.285956,-1225.752797
141.094997,-3849.070898,9548.656652,3294.210641
141.095307,3923.091493,6069.688724,-1915.238745
141.095617,-1184.329507,9992.780217,-536.266849
141.095926,-4071.132681,9696.697840,3907.087040
141.096236,-1110.308913,7402.059420,-2451.505594
141.096546,2738.761985,13915.871710,-9346.365076
141.096855,-5847.626942,13323.706956,-2451.505594
141.097165,-962.267725,12879.583391,-1838.629195
141.097475,2368.659014,8808.450710,-3447.429741
141.097785,1406.391290,8068.244768,-2757.943793
141.098094,-5551.544565,11917.315666,8273.831378
141.098404,-1110.308913,14508.036463,4903.011187
141.098714,11325.150913,9178.553681,-10418.898773
141.099024,962.267725,8882.471304,-6665.030833
141.099333,-4663.297435,8364.327145,5822.325785
141.099643,-370.102971,2442.679609,0.000000
141.099953,7179.997637,6513.812290,-9806.022374
141.100262,-3997.112087,7698.141797,4979.620737
141.100572,-6217.729913,12139.377449,11568.042020
141.100882,6143.709319,7698.141797,-4673.182538
141.101192,666.185348,11251.130318,-12487.356617
141.101501,-1036.288319,12509.480420,-2757.943793
141.101811,-2072.576638,4441.235652,3447.429741
141.102121,1850.514855,13101.645173,-4136.915689
141.102431,-4959.379811,11399.171507,2298.286494
141.102740,-4145.153275,15174.221811,3907.087040
141.103050,5403.503377,12065.356855,-4979.620737
141.103360,3108.864956,12139.377449,-10495.508323
141.103669,-518.144159,11251.130318,-3447.429741
141.103979,222.061783,7105.977043,-1225.752797
141.104289,5181.441594,5699.585753,-5592.497135
141.104599,-2072.576638,2072.576638,6741.640382
141.104908,-3701.029710,8290.306550,10342.289223
141.105218,888.247130,6809.894666,-1762.019645
141.105528,2664.741391,9474.636058,-7814.174080
141.105838,222.061783,10362.883188,-1378.971896
141.106147,1110.308913,9474.636058,-2528.115143
141.106457,6883.915261,11399.171507,-12027.699319
141.106767,-1406.391290,8216.285956,-2145.067394
141.107076,-6587.832884,9918.759623,10035.851024
141.107386,-444.123565,9844.739029,7890.783629
141.107696,3182.885551,10881.027347,-4443.353888
141.108006,-2368.659014,10881.027347,-3600.648841
141.108315,-3775.050304,11991.336260,-3524.039291
141.108625,7031.956449,6735.874072,-10878.556072
141.108935,222.061783,9770.718434,-10878.556072
141.109245,-4589.276840,12953.603985,2298.286494
141.109554,-2886.803174,8882.471304,8197.221829
141.109864,3627.009116,7698.141797,-3677.258390
141.110174,1036.288319,3256.906145,-4596.572988
141.110483,-1406.391290,6883.915261,4596.572988
141.110793,4293.194464,6587.832884,1072.533697
141.111103,5181.441594,6217.729913,-3983.696590
141.111413,-74.020594,7772.162391,5669.106685
141.111722,-4293.194464,11325.150913,6435.202183
141.112032,-814.226536,10214.842000,-6665.030833
141.112342,-2220.617826,13693.809927,-3447.429741
141.112652,-2442.679609,13545.768739,-4749.792088
141.112961,3478.967927,12287.418637,-11338.213370
141.113271,3330.926739,7698.141797,-6128.763984
141.113581,-8216.285956,9844.739029,7048.078582
141.113890,-3256.906145,14359.995275,5132.839837
141.114200,4441.235652,7328.038826,-5286.058936
141.114510,592.164754,12879.583391,-4826.401637
141.114820,-1406.391290,10214.842000,-612.876398
141.115129,2368.659014,3182.885551,-4903.011187
141.115439,4737.318029,7031.956449,-4903.011187
141.115749,-3849.070898,5033.400406,4826.401637
141.116059,-3849.070898,7846.182985,8963.317327
141.116368,2516.700203,9252.574275,-3064.381992
141.116678,8660.409521,7328.038826,-12947.013916
141.116988,518.144159,9918.759623,-2987.772442
141.117297,-4219.173869,7994.224174,5362.668486
141.117607,2294.638420,7476.080014,689.485948
141.117917,-0.000000,10066.800811,1302.362347
141.118227,-4293.194464,14878.139434,3677.258390
141.118536,-148.041188,12805.562797,-2528.115143
141.118846,3404.947333,15544.324782,-9959.241474
141.119156,-0.000000,14063.912898,-5669.106685
141.119466,888.247130,12583.501014,1072.533697
141.119775,740.205942,6069.688724,919.314598
141.120085,-1554.432478,8290.306550,3830.477490
141.120395,-1036.288319,8438.347739,2451.505594
141.120704,1184.329507,6957.935855,-995.924147
141.121014,6735.874072,11473.192101,-7431.126331
141.121324,-2442.679609,6957.935855,-3524.039291
141.121634,-296.082377,8808.450710,2681.334243
141.121943,2146.597232,3701.029710,0.000000
141.122253,2072.576638,6735.874072,-766.095498
141.122563,-3182.885551,9770.718434,6818.249932
141.122873,-444.123565,7846.182985,4596.572988
141.123182,7846.182985,11103.089130,-7890.783629
141.123492,1554.432478,10436.903782,-3217.601092
141.123802,-7772.162391,11547.212695,3447.429741
141.124111,-370.102971,7105.977043,-2068.457845
141.124421,6143.709319,11399.171507,-9346.365076
141.124730,-7105.977043,13841.851115,76.609550
141.125040,-3404.947333,13249.686362,6741.640382
141.125349,-0.000000,11621.233289,-1762.019645
141.125658,3256.906145,11917.315666,-7431.126331
141.125968,-1036.288319,13249.686362,2911.162892
141.126277,-2368.659014,10436.903782,3600.648841
141.126587,7994.224174,7698.141797,-4979.620737
141.126896,1406.391290,4293.194464,-1685.410096
141.127206,-3923.091493,12287.418637,10112.460574
141.127515,2442.679609,2812.782580,5286.058936
141.127825,4293.194464,5477.523971,-8580.269578
141.128134,-666.185348,5477.523971,-612.876398
141.128444,-4663.297435,5847.626942,5286.058936
141.128753,4219.173869,9400.615463,-3064.381992
141.129063,2072.576638,8290.306550,-2987.772442
141.129372,148.041188,15766.386565,1838.629195
141.129681,-5255.462188,11843.295072,-306.438199
141.129991,1258.350101,13249.686362,-2374.896044
141.130300,-1998.556043,11547.212695,459.657299
141.130610,-666.185348,10510.924376,-3217.601092
141.130919,3108.864956,12065.356855,-2604.724693
141.131229,-1036.288319,9992.780217,-3294.210641
141.131538,-962.267725,9622.677246,1149.143247
141.131848,-2146.597232,11103.089130,306.438199
141.132157,5255.462188,4737.318029,-4060.306139
141.132467,-888.247130,4367.215058,-995.924147
141.132776,-888.247130,6365.771101,4903.011187
141.133085,3627.009116,2072.576638,383.047749
141.133395,2146.597232,7772.162391,-2374.896044
141.133704,-592.164754,8734.430116,3830.477490
141.134014,-2368.659014,8956.491898,-612.876398
141.134323,3330.926739,9474.636058,-7660.954980
141.134633,-0.000000,12731.542202,-5592.497135
141.134942,518.144159,14508.036463,842.705048
141.135252,1258.350101,11177.109724,0.000000
141.135561,-518.144159,9548.656652,-1915.238745
141.135871,-3627.009116,11473.192101,3600.648841
141.136180,-3256.906145,8956.491898,1149.143247
141.136489,1998.556043,9770.718434,-8427.050478
141.136799,2590.720797,11769.274478,-6511.811733
141.137108,592.164754,10658.965565,-1302.362347
141.137418,-1184.329507,3404.947333,919.314598
141.137727,592.164754,5699.585753,2834.553343
141.138037,-4441.235652,7254.018232,5515.887586
141.138346,1184.329507,7328.038826,3140.991542
141.138656,2442.679609,4959.379811,-5056.230287
141.138965,1332.370696,6957.935855,-7890.783629
141.139275,740.205942,9548.656652,-995.924147
141.139584,2220.617826,7846.182985,1762.019645
141.139893,-814.226536,7994.224174,2451.505594
141.140203,-4441.235652,11621.233289,7277.907231
141.140512,1924.535449,12731.542202,1302.362347
141.140822,-2738.761985,7254.018232,-5056.230287
141.141131,1850.514855,15322.262999,-5975.544884
141.141441,-1924.535449,11547.212695,-5975.544884
141.141750,814.226536,12361.439231,-5975.544884
141.142060,3701.029710,11325.150913,-3140.991542
141.142369,-4145.153275,13101.645173,4826.401637
141.142679,-444.123565,10436.903782,9193.145976
141.142988,2886.803174,9178.553681,1838.629195
141.143297,3330.926739,7698.141797,-5132.839837
141.143607,-1776.494261,4441.235652,229.828649
141.143916,2368.659014,5921.647536,383.047749
141.144226,5625.565159,4071.132681,-2911.162892
141.144535,-1184.329507,11917.315666,3447.429741
141.144845,-5847.626942,8512.368333,7890.783629
141.145154,-1036.288319,9696.697840,-1685.410096
141.145464,5773.606348,11103.089130,-11414.822920
141.145773,-5033.400406,9770.718434,-2757.943793
141.146083,-2590.720797,11177.109724,4903.011187
141.146392,3478.967927,7624.121203,153.219100
141.146702,1110.308913,8142.265362,1838.629195
141.147011,-4367.215058,10214.842000,6971.469032
141.147320,-2220.617826,10510.924376,842.705048
141.147630,2368.659014,12435.459826,-7967.393179
141.147939,-2738.761985,12657.521608,-6052.154434
141.148249,1332.370696,13767.830521,-4979.620737
141.148558,-222.061783,8142.265362,-4136.915689
141.148868,3256.906145,6365.771101,3830.477490
141.149177,-4367.215058,2812.782580,9116.536426
141.149487,2368.659014,4811.338623,4136.915689
141.149796,3701.029710,1776.494261,-2221.676944
141.150106,-2812.782580,6217.729913,1915.238745
141.150415,3478.967927,11251.130318,-1455.581446
141.150724,1110.308913,8808.450710,-7890.783629
141.151034,3552.988522,13841.851115,-4596.572988
141.151343,-5551.544565,13989.892304,4903.011187
141.151653,-814.226536,15026.180623,0.000000
141.151962,4367.215058,13027.624579,-4826.401637
141.152272,-1332.370696,8438.347739,229.828649
141.152581,-2442.679609,9474.636058,6818.249932
141.152891,-1406.391290,11991.336260,-1608.800546
141.153200,3256.906145,12731.542202,-10495.508323
141.153510,-4367.215058,10214.842000,-6435.202183
141.153819,-4515.256246,14508.036463,-2987.772442
141.154128,2368.659014,10732.986159,-6894.859482
141.154438,4737.318029,8438.347739,-6281.983084
141.154747,-592.164754,8882.471304,4366.744339
141.155057,-6809.894666,4959.379811,11797.870669
141.155366,8142.265362,296.082377,3677.258390
141.155676,2516.700203,-2072.576638,-1915.238745
141.155985,296.082377,4219.173869,3677.258390
141.156295,-888.247130,6809.894666,-2911.162892
141.156604,-0.000000,10214.842000,-9652.803275
141.156914,-0.000000,13989.892304,-5898.935335
141.157223,-0.000000,15248.242405,-3294.210641
141.157532,-1036.288319,10955.047942,-4903.011187
141.157842,-3701.029710,12139.377449,3294.210641
141.158151,-0.000000,14804.118840,3140.991542
141.158461,-222.061783,9030.512492,-4136.915689
141.158770,5403.503377,12879.583391,-4673.182538
141.159080,-5107.421000,14582.057057,-3677.258390
141.159389,-148.041188,13545.768739,-306.438199
141.159699,5921.647536,11769.274478,-6971.469032
141.160008,740.205942,9474.636058,-4060.306139
141.160318,-5255.462188,6587.832884,13253.452115
141.160627,-1406.391290,2146.597232,6894.859482
141.160936,3849.070898,-740.205942,-6818.249932
141.161246,-0.000000,1480.411884,-1302.362347
141.161555,-3256.906145,9992.780217,4826.401637
141.161865,4293.194464,8734.430116,-4826.401637
141.162174,5847.626942,11843.295072,-12257.527968
141.162484,-7105.977043,12361.439231,2604.724693
141.162793,-5403.503377,10955.047942,8427.050478
141.163103,4441.235652,7402.059420,-5286.058936
141.163412,-1480.411884,13175.665768,-4519.963438
141.163722,2146.597232,14804.118840,-153.219100
141.164031,1554.432478,9696.697840,-4903.011187
141.164341,-814.226536,10732.986159,-2757.943793
141.164650,-6365.771101,6069.688724,6971.469032
141.164959,-2294.638420,10288.862594,0.000000
141.165269,5329.482782,10140.821405,-13559.890315
141.165578,-3552.988522,8142.265362,-6894.859482
141.165888,-2590.720797,12657.521608,5745.716235
141.166197,2220.617826,7550.100608,-612.876398
141.166507,7846.182985,4737.318029,-5515.887586
141.166816,-1998.556043,4219.173869,9269.755526
141.167126,-1998.556043,3330.926739,13483.280765
141.167435,2960.823768,3997.112087,153.219100
141.167745,3034.844362,10658.965565,-6358.592633
141.168054,-2886.803174,12509.480420,2298.286494
141.168363,-5181.441594,12361.439231,1302.362347
141.168673,3256.906145,14285.974681,-10189.070123
141.168982,-518.144159,10658.965565,-7201.297681
141.169292,-5625.565159,16580.613101,-2834.553343
141.169601,-3330.926739,9992.780217,-2681.334243
141.169911,2220.617826,13175.665768,-2834.553343
141.170220,-5403.503377,13989.892304,153.219100
141.170530,-1184.329507,8438.347739,1915.238745
141.170839,3182.885551,7920.203579,-2987.772442
141.171149,-0.000000,3701.029710,-1532.190996
141.171458,1406.391290,6291.750507,2681.334243
141.171767,222.061783,5181.441594,-306.438199
141.172077,-0.000000,1850.514855,-2757.943793
141.172386,-666.185348,5625.565159,1685.410096
141.172696,1036.288319,8808.450710,612.876398
141.173005,1332.370696,7920.203579,-6128.763984
141.173315,-1850.514855,6809.894666,383.047749
141.173624,-2812.782580,11843.295072,4596.572988
141.173934,-2738.761985,13397.727550,-3983.696590
141.174243,2368.659014,12583.501014,-10112.460574
141.174553,1406.391290,19023.292709,-3140.991542
141.174862,-4219.173869,14137.933492,-1838.629195
141.175171,2072.576638,11473.192101,-536.266849
141.175481,-1036.288319,11029.068536,4136.915689
141.175790,-5551.544565,10881.027347,2145.067394
141.176100,2960.823768,6365.771101,-6358.592633
141.176409,2812.782580,10732.986159,-10648.727422
141.176719,-1924.535449,6439.791695,-6205.373534
141.177028,-2072.576638,6439.791695,3753.867940
141.177338,2664.741391,5107.421000,-4826.401637
141.177647,2738.761985,1924.535449,-5822.325785
141.177957,-1628.453072,3997.112087,5132.839837
141.178266,-888.247130,6069.688724,7660.954980
141.178575,2442.679609,7476.080014,-3753.867940
141.178885,4071.132681,11325.150913,-3217.601092
141.179194,-1406.391290,13471.748144,153.219100
141.179504,2960.823768,13471.748144,-7967.393179
141.179813,2738.761985,14285.974681,-8656.879127
141.180123,-7179.997637,12361.439231,4519.963438
141.180432,-6661.853478,16284.530724,6128.763984
141.180742,2664.741391,15174.221811,-6128.763984
141.181051,814.226536,8512.368333,-11031.775171
141.181361,-518.144159,11843.295072,-4903.011187
141.181670,-888.247130,11251.130318,-6894.859482
141.181980,7254.018232,6143.709319,-5592.497135
141.182289,-1184.329507,8734.430116,5822.325785
141.182598,-1258.350101,6587.832884,8963.317327
141.182908,1258.350101,1554.432478,1915.238745
141.183217,518.144159,3330.926739,459.657299
141.183527,1998.556043,8660.409521,-766.095498
141.183836,740.205942,8438.347739,-4290.134789
141.184146,3701.029710,10955.047942,-6128.763984
141.184455,-2516.700203,7476.080014,-1378.971896
141.184765,-5255.462188,15100.201217,1072.533697
141.185074,4737.318029,16876.695478,-4596.572988
141.185384,-2072.576638,12509.480420,-5975.544884
141.185693,-6143.709319,13249.686362,2604.724693
141.186002,1406.391290,12953.603985,-1838.629195
141.186312,4663.297435,6587.832884,-11721.261119
141.186621,-444.123565,11103.089130,-2451.505594
141.186931,-7105.977043,11029.068536,9039.926876
141.187240,-2368.659014,9548.656652,383.047749
141.187550,7031.956449,10140.821405,-8197.221829
141.187859,-1554.432478,7846.182985,-3294.210641
141.188169,-1924.535449,7550.100608,3370.820191
141.188478,2590.720797,6069.688724,-3983.696590
141.188788,9178.553681,2886.803174,-4366.744339
141.189097,-4959.379811,4589.276840,6894.859482
141.189406,-5773.606348,5995.668130,9116.536426
141.189716,2812.782580,6809.894666,-3907.087040
141.190025,3775.050304,10214.842000,-10418.898773
141.190335,1184.329507,12139.377449,-5745.716235
141.190644,-5033.400406,13101.645173,0.000000
141.190954,-1628.453072,12583.501014,2298.286494
141.191263,-2516.700203,13027.624579,-1302.362347
141.191573,444.123565,14878.139434,-7814.174080
141.191882,2738.761985,15766.386565,-10189.070123
141.192192,-2220.617826,6365.771101,-4519.963438
141.192501,-148.041188,9548.656652,2145.067394
141.192810,2664.741391,4737.318029,1762.019645
141.193120,-74.020594,1776.494261,3064.381992
141.193429,-5033.400406,4663.297435,10648.727422
141.193739,-1184.329507,6587.832884,3830.477490
141.194048,4219.173869,7624.121203,-14938.862211
141.194358,5403.503377,7402.059420,-12947.013916
141.194667,-4219.173869,10807.006753,3600.648841
141.194977,-2442.679609,11769.274478,1225.752797
141.195286,6661.853478,10214.842000,-7431.126331
141.195596,1480.411884,11991.336260,2221.676944
141.195905,-8216.285956,7105.977043,12180.918418
141.196214,1184.329507,8142.265362,2987.772442
141.196524,2516.700203,8216.285956,-8120.612279
141.196833,-1110.308913,13323.706956,-6281.983084
141.197143,-2516.700203,16062.468941,-2987.772442
141.197452,1258.350101,11473.192101,-7507.735880
141.197762,-3404.947333,7105.977043,-459.657299
141.198071,-3997.112087,12879.583391,3830.477490
141.198381,296.082377,10955.047942,-4903.011187
141.198690,4367.215058,9030.512492,-8273.831378
141.199000,-3330.926739,6809.894666,3753.867940
141.199309,518.144159,3478.967927,5592.497135
141.199619,7476.080014,4811.338623,-7277.907231
141.199928,3701.029710,1924.535449,-1608.800546
141.200237,-5699.585753,6365.771101,12180.918418
141.200547,-3034.844362,8586.388927,5822.325785
141.200856,2812.782580,10807.006753,-8044.002729
141.201166,-0.000000,13989.892304,-6588.421283
141.201475,-814.226536,13545.768739,-5132.839837
141.201785,3330.926739,11843.295072,-9193.145976
141.202094,-1998.556043,12139.377449,-4213.525239
141.202404,-6661.853478,11917.315666,4673.182538
141.202713,1480.411884,10288.862594,3064.381992
141.203023,1554.432478,12583.501014,-8197.221829
141.203332,-4885.359217,9696.697840,-1532.190996
141.203641,1924.535449,9030.512492,2298.286494
141.203951,5107.421000,10510.924376,-10035.851024
141.204260,4145.153275,3627.009116,-4366.744339
141.204570,-5995.668130,7698.141797,13023.623466
141.204879,-1998.556043,7994.224174,8197.221829
141.205189,3923.091493,6365.771101,-6894.859482
141.205498,2812.782580,7328.038826,-7584.345430
141.205808,-5107.421000,5995.668130,1532.190996
141.206117,-0.000000,12879.583391,-3217.601092
141.206427,4515.256246,9622.677246,-8886.707777
141.206736,-2220.617826,9400.615463,-229.828649
141.207045,-2442.679609,15322.262999,6741.640382
141.207355,1406.391290,11547.212695,306.438199
141.207664,2442.679609,9770.718434,-4903.011187
141.207974,1628.453072,8956.491898,842.705048
141.208283,-0.000000,10140.821405,306.438199
141.208593,1628.453072,9844.739029,-2757.943793
141.208902,-2368.659014,5477.523971,5822.325785
141.209212,-4219.173869,10288.862594,1225.752797
141.209521,-2368.659014,10807.006753,-7277.907231
141.209831,3108.864956,10214.842000,-10342.289223
141.210140,-1184.329507,9918.759623,-4213.525239
141.210449,-0.000000,10214.842000,153.219100
141.210759,5181.441594,4737.318029,2374.896044
141.211068,2590.720797,4737.318029,2528.115143
141.211378,-1998.556043,7846.182985,7201.297681
141.211687,740.205942,8882.471304,3524.039291
141.211997,3627.009116,9474.636058,-6741.640382
141.212306,592.164754,10658.965565,-4366.744339
141.212616,-4219.173869,11547.212695,919.314598
141.212925,-444.123565,15618.345376,-4903.011187
141.213235,5403.503377,7994.224174,-10801.946522
141.213544,-5329.482782,10066.800811,-5209.449386
141.213853,-5773.606348,12287.418637,4673.182538
141.214163,370.102971,10436.903782,2451.505594
141.214472,4441.235652,10140.821405,-4979.620737
141.214782,-1628.453072,7031.956449,-842.705048
141.215091,1110.308913,9622.677246,3524.039291
141.215401,6513.812290,5329.482782,-6435.202183
141.215710,-888.247130,6069.688724,-1991.848295
141.216020,-2072.576638,7846.182985,9193.145976
141.216329,814.226536,7476.080014,919.314598
141.216639,7105.977043,9474.636058,-11108.384721
141.216948,-2886.803174,3034.844362,383.047749
141.217258,-2738.761985,10362.883188,6205.373534
141.217567,7254.018232,8734.430116,-5515.887586
141.217876,-592.164754,10066.800811,-8197.221829
141.218186,-7402.059420,12435.459826,6894.859482
141.218495,-148.041188,12213.398043,995.924147
141.218805,4441.235652,12361.439231,-11721.261119
141.219114,-4071.132681,13619.789333,-2298.286494
141.219424,1110.308913,14656.077652,6205.373534
141.219733,5181.441594,8734.430116,-7124.688131
141.220043,2738.761985,8142.265362,-5056.230287
141.220352,-6439.791695,9918.759623,11951.089769
141.220662,-3182.885551,9622.677246,2145.067394
141.220971,11177.109724,4293.194464,-16547.662757
141.221280,-1776.494261,6513.812290,-4673.182538
141.221590,-3182.885551,8956.491898,8886.707777
141.221899,5255.462188,8216.285956,-1915.238745
141.222209,3478.967927,5773.606348,-5975.544884
141.222518,-5107.421000,9770.718434,7277.907231
141.222828,-666.185348,11473.192101,2987.772442
141.223137,4885.359217,8438.347739,-12104.308868
141.223447,-3775.050304,10807.006753,-4596.572988
141.223756,-4737.318029,13323.706956,4443.353888
141.224066,5995.668130,11325.150913,-5362.668486
141.224375,-518.144159,14952.160028,-4903.011187
141.224684,-8512.368333,10436.903782,6128.763984
141.224994,962.267725,11029.068536,-153.219100
141.225303,4219.173869,7179.997637,-11951.089769
141.225613,-2442.679609,9326.594869,-2145.067394
141.225922,-5847.626942,7550.100608,5822.325785
141.226232,4367.215058,5921.647536,-7431.126331
141.226541,5033.400406,8364.327145,-4673.182538
141.226851,-4293.194464,4145.153275,7584.345430
141.227160,2294.638420,7476.080014,4596.572988
141.227470,6513.812290,8216.285956,-1225.752797
141.227779,222.061783,9474.636058,-995.924147
141.228089,-2368.659014,8734.430116,1762.019645
141.228398,296.082377,8808.450710,-2451.505594
141.228708,3627.009116,12361.439231,-5669.106685
141.229018,-444.123565,14434.015869,-3830.477490
141.229327,-666.185348,14359.995275,-1608.800546
141.229637,-962.267725,13693.809927,229.828649
141.229946,-74.020594,10732.986159,-1991.848295
141.230256,-1776.494261,10807.006753,-4979.620737
141.230565,-814.226536,7698.141797,-2221.676944
141.230875,1998.556043,7920.203579,-2374.896044
141.231184,296.082377,5699.585753,-4519.963438
141.231494,-74.020594,7994.224174,2911.162892
141.231803,-1998.556043,9548.656652,6665.030833
141.232113,6661.853478,7105.977043,-6281.983084
141.232422,-518.144159,5107.421000,-3907.087040
141.232732,-3552.988522,6513.812290,9039.926876
141.233041,1850.514855,4663.297435,4749.792088
141.233351,5477.523971,10140.821405,-9346.365076
141.233660,-4737.318029,8364.327145,2911.162892
141.233970,-4367.215058,14211.954086,3600.648841
141.234279,5329.482782,9622.677246,-13176.842566
141.234589,-3108.864956,12805.562797,-5822.325785
141.234899,-3775.050304,13101.645173,6358.592633
141.235208,4737.318029,13619.789333,-1532.190996
141.235518,1924.535449,8290.306550,-2757.943793
141.235827,-5699.585753,12213.398043,12640.575717
141.236137,-1406.391290,8068.244768,7584.345430
141.236446,4885.359217,8956.491898,-14785.643111
141.236756,2590.720797,8142.265362,-7584.345430
141.237065,-3404.947333,8290.306550,3217.601092
141.237375,962.267725,8290.306550,-766.095498
141.237684,666.185348,8068.244768,2221.676944
141.237994,-2368.659014,9992.780217,9422.974625
141.238303,-4145.153275,7328.038826,2834.553343
141.238613,4441.235652,9548.656652,-9039.926876
141.238922,4737.318029,6957.935855,-8733.488677
141.239232,1184.329507,8882.471304,-4443.353888
141.239541,1258.350101,11843.295072,4673.182538
141.239851,-1628.453072,9400.615463,8427.050478
141.240160,-1480.411884,12731.542202,8120.612279
141.240470,-3034.844362,10807.006753,4290.134789
141.240780,2294.638420,11103.089130,-6511.811733
141.241089,1258.350101,8512.368333,-15934.786358
141.241399,-3552.988522,9844.739029,-7584.345430
141.241708,-2220.617826,13323.706956,2757.943793
141.242018,3256.906145,11399.171507,-1378.971896
141.242327,1110.308913,12805.562797,1532.190996
141.242637,-5477.523971,6217.729913,13636.499864
141.242946,1850.514855,9696.697840,1991.848295
141.243256,6217.729913,1924.535449,-10112.460574
141.243565,-2812.782580,6587.832884,-2757.943793
141.243875,-740.205942,9178.553681,2451.505594
141.244184,4663.297435,9178.553681,-6665.030833
141.244494,3552.988522,9104.533087,-3907.087040
141.244803,-6439.791695,9844.739029,12104.308868
141.245113,1110.308913,12213.398043,4443.353888
141.245422,3849.070898,7105.977043,-6971.469032
141.245732,-4515.256246,13397.727550,-2757.943793
141.246041,3701.029710,9030.512492,-3217.601092
141.246351,1036.288319,7105.977043,-3753.867940
141.246661,-2664.741391,12953.603985,4443.353888
141.246970,-6661.853478,14508.036463,7660.954980
141.247280,592.164754,15618.345376,-5515.887586
141.247589,1554.432478,10214.842000,-11261.603821
141.247899,-1776.494261,13101.645173,-6281.983084
141.248208,1184.329507,8512.368333,-3140.991542
141.248518,3627.009116,7624.121203,-2911.162892
141.248827,3923.091493,3849.070898,3294.210641
141.249137,-5181.441594,2886.803174,11414.822920
141.249446,-0.000000,5477.523971,7048.078582
141.249756,5477.523971,5625.565159,-5669.106685
141.250065,1628.453072,7476.080014,-7814.174080
141.250375,-4293.194464,5699.585753,766.095498
141.250684,3256.906145,13397.727550,-3677.258390
141.250994,2886.803174,9770.718434,-9193.145976
141.251303,-3182.885551,10214.842000,1838.629195
141.251613,-1406.391290,11547.212695,4213.525239
141.251922,-1480.411884,11695.253884,-3753.867940
141.252232,2146.597232,11029.068536,-4979.620737
141.252542,-4071.132681,14434.015869,536.266849
141.252851,3701.029710,11695.253884,-4903.011187
141.253161,1036.288319,9844.739029,-6281.983084
141.253470,-888.247130,11473.192101,2374.896044
141.253780,-3478.967927,7179.997637,4366.744339
141.254089,-148.041188,8290.306550,-612.876398
141.254399,3923.091493,6809.894666,-4673.182538
141.254708,-3108.864956,3478.967927,-3064.381992
141.255018,2886.803174,6069.688724,536.266849
141.255327,740.205942,5773.606348,1149.143247
141.255637,1998.556043,7031.956449,0.000000
141.255946,-2590.720797,10955.047942,10035.851024
141.256256,-2294.638420,14804.118840,2451.505594
141.256565,2516.700203,10807.006753,-7890.783629
141.256875,-0.000000,10436.903782,-7737.564530
141.257184,2516.700203,11103.089130,-4060.306139
141.257494,-3552.988522,11177.109724,1302.362347
141.257804,444.123565,10436.903782,8963.317327
141.258113,-3182.885551,16210.510130,4749.792088
141.258423,4219.173869,12657.521608,-6511.811733
141.258732,-0.000000,5699.585753,-9269.755526
141.259042,-4737.318029,12657.521608,-3447.429741
141.259351,-1850.514855,6513.812290,-7124.688131
141.259661,5551.544565,9622.677246,-7124.688131
141.259970,2368.659014,5773.606348,1149.143247
141.260280,-5699.585753,5181.441594,10495.508323
141.260589,1776.494261,5477.523971,11414.822920
141.260899,1998.556043,8364.327145,153.219100
141.261208,1776.494261,11029.068536,-4443.353888
141.261518,814.226536,5699.585753,-2528.115143
141.261827,370.102971,9474.636058,-9269.755526
141.262137,-0.000000,11843.295072,-8503.660028
141.262446,-3849.070898,14211.954086,4290.134789
141.262756,-4145.153275,14359.995275,3907.087040
141.263065,-1110.308913,13397.727550,-4366.744339
141.263375,370.102971,6661.853478,-1072.533697
141.263685,-2146.597232,11769.274478,-2451.505594
141.263994,4811.338623,7698.141797,-6205.373534
141.264304,1184.329507,7105.977043,-1608.800546
141.264613,-5403.503377,14952.160028,7507.735880
141.264923,-2072.576638,11251.130318,2451.505594
141.265232,1998.556043,7846.182985,-8350.440928
141.265542,-0.000000,7476.080014,-6818.249932
141.265851,666.185348,5921.647536,-3677.258390
141.266161,2220.617826,8956.491898,-4673.182538
141.266470,4737.318029,2812.782580,-536.266849
141.266780,-3182.885551,7105.977043,14402.595362
141.267089,-1702.473667,7402.059420,12334.137518
141.267399,2442.679609,9770.718434,-4060.306139
141.267708,-0.000000,12435.459826,-8580.269578
141.268018,296.082377,10881.027347,-6281.983084
141.268327,-5329.482782,14730.098246,-14249.376263
141.268637,2294.638420,15692.365970,-11414.822920
141.268946,-962.267725,13027.624579,2068.457845
141.269256,-4219.173869,10955.047942,7431.126331
141.269566,3182.885551,9918.759623,7201.297681
141.269875,2072.576638,3182.885551,3370.820191
141.270185,-5699.585753,4441.235652,3677.258390
141.270494,5699.585753,6069.688724,-2834.553343
141.270804,1702.473667,5403.503377,-11568.042020
141.271113,-2072.576638,8364.327145,-6741.640382
141.271423,-2960.823768,13323.706956,4136.915689
141.271732,-1480.411884,13175.665768,-1225.752797
141.272042,2960.823768,6809.894666,-5209.449386
141.272351,-1332.370696,8290.306550,2604.724693
141.272661,-222.061783,6809.894666,-1608.800546
141.272970,4219.173869,5773.606348,-8197.221829
141.273280,-740.205942,9400.615463,2604.724693
141.273589,-3923.091493,12731.542202,7967.393179
141.273899,1850.514855,15470.304188,-2757.943793
141.274208,2590.720797,9696.697840,-6128.763984
141.274518,-2072.576638,10510.924376,0.000000
141.274827,-5329.482782,11399.171507,-4213.525239
141.275137,2886.803174,9622.677246,-9806.022374
141.275447,1998.556043,6143.709319,-3294.210641
141.275756,-3034.844362,10584.944971,8044.002729
141.276066,-1628.453072,10658.965565,3907.087040
141.276375,2812.782580,6661.853478,-4903.011187
141.276685,1998.556043,8364.327145,-1608.800546
141.276994,-814.226536,8512.368333,1455.581446
141.277304,-1702.473667,8882.471304,-2145.067394
141.277613,4959.379811,5551.544565,-3907.087040
141.277923,-4219.173869,9104.533087,5362.668486
141.278232,-0.000000,8512.368333,3447.429741
141.278542,1628.453072,9252.574275,-2451.505594
141.278851,-2368.659014,8142.265362,-3830.477490
141.279161,-814.226536,9474.636058,-2374.896044
141.279470,2368.659014,11325.150913,-6971.469032
141.279780,1110.308913,11769.274478,-7124.688131
141.280089,-5255.462188,11695.253884,5439.278036
141.280399,-1924.535449,12435.459826,4136.915689
141.280708,5329.482782,8364.327145,-5515.887586
141.281018,-4959.379811,7031.956449,-2145.067394
141.281328,-2960.823768,8142.265362,3830.477490
141.281637,5033.400406,6957.935855,-3217.601092
141.281947,4515.256246,10436.903782,-9729.412825
141.282256,-2516.700203,12731.542202,4213.525239
141.282566,-2294.638420,8956.491898,6281.983084
141.282875,4219.173869,6883.915261,-3677.258390
141.283185,-3256.906145,6587.832884,-1991.848295
141.283494,-3923.091493,3478.967927,1072.533697
141.283804,1184.329507,2886.803174,-4443.353888
141.284113,3552.988522,12435.459826,-7737.564530
141.284423,-6291.750507,9918.759623,-2221.676944
141.284732,-4071.132681,12731.542202,4060.306139
141.285042,4885.359217,15248.242405,-2604.724693
141.285351,1184.329507,11621.233289,-4443.353888
141.285661,-3701.029710,10510.924376,4596.572988
141.285970,74.020594,7698.141797,1991.848295
141.286280,6069.688724,8290.306550,-8044.002729
141.286589,-148.041188,8586.388927,-3753.867940
141.286899,-9474.636058,7920.203579,5745.716235
141.287209,-1406.391290,9622.677246,-1685.410096
141.287518,3997.112087,13915.871710,-10801.946522
141.287828,-3330.926739,12805.562797,-4749.792088
141.288137,-2960.823768,9548.656652,-1378.971896
141.288447,9030.512492,7179.997637,-7660.954980
141.288756,518.144159,4441.235652,-1072.533697
141.289066,-3034.844362,3256.906145,11261.603821
141.289375,-1110.308913,1258.350101,8350.440928
141.289685,3256.906145,6143.709319,-3600.648841
141.289994,-2812.782580,6439.791695,0.000000
141.290304,-1702.473667,11399.171507,-536.266849
141.290613,3182.885551,13471.748144,-13789.718964
141.290923,4145.153275,13545.768739,-9576.193725
141.291232,-9844.739029,16876.695478,6894.859482
141.291542,-8808.450710,12509.480420,1608.800546
141.291851,3256.906145,12139.377449,-11644.651570
141.292161,5625.565159,9252.574275,-8580.269578
141.292470,-2294.638420,7179.997637,-383.047749
141.292780,-370.102971,6809.894666,1532.190996
141.293090,1184.329507,7402.059420,1838.629195
141.293399,1406.391290,9622.677246,7584.345430
141.293709,-1480.411884,4737.318029,8656.879127
141.294018,-1184.329507,6809.894666,-4673.182538
141.294328,2664.741391,1110.308913,-11031.775171
141.294637,-0.000000,444.123565,-3677.258390
141.294947,-3404.947333,6439.791695,1302.362347
141.295256,1258.350101,12509.480420,-3064.381992
141.295566,-1258.350101,15248.242405,1378.971896
141.295875,-5847.626942,17394.839637,6894.859482
141.296185,1258.350101,12435.459826,-4519.963438
141.296494,1554.432478,10510.924376,-12027.699319
141.296804,-1924.535449,11177.109724,-4213.525239
141.297113,-2294.638420,8956.491898,-1302.362347
141.297423,4293.194464,11547.212695,-4903.011187
141.297732,-0.000000,10140.821405,612.876398
141.298042,-7105.977043,11029.068536,13789.718964
141.298351,3034.844362,6809.894666,4826.401637
141.298661,1998.556043,5995.668130,-5822.325785
141.298971,814.226536,5329.482782,-2834.553343
141.299280,-2072.576638,2738.761985,459.657299
141.299590,4515.256246,4737.318029,-10035.851024
141.299899,3775.050304,9178.553681,-1915.238745
141.300209,-12879.583391,11769.274478,15398.519510
141.300518,-1110.308913,11917.315666,7354.516781
141.300828,5255.462188,14730.098246,-10801.946522
141.301137,1480.411884,13397.727550,-7584.345430
141.301447,-1998.556043,9548.656652,383.047749
141.301756,1702.473667,14211.954086,-5056.230287
141.302066,-2146.597232,11843.295072,-2374.896044
141.302375,-6365.771101,16432.571912,7890.783629
141.302685,-3256.906145,9992.780217,919.314598
141.302994,3997.112087,5625.565159,-13789.718964
141.303304,666.185348,5107.421000,-9346.365076
141.303613,-4071.132681,4515.256246,1532.190996
141.303923,4737.318029,5847.626942,536.266849
141.304232,-296.082377,6735.874072,2911.162892
141.304542,-2812.782580,7550.100608,11797.870669
141.304852,1776.494261,3775.050304,5745.716235
141.305161,3108.864956,8290.306550,-9499.584175
141.305471,-666.185348,8586.388927,-9499.584175
141.305780,-2664.741391,9770.718434,-6511.811733
141.306090,3330.926739,14582.057057,-8886.707777
141.306399,6513.812290,17542.880825,-4749.792088
141.306709,-5033.400406,17024.736666,7431.126331
141.307018,-3552.988522,13323.706956,10342.289223
141.307328,6143.709319,9104.533087,1532.190996
141.307637,592.164754,6883.915261,-7660.954980
141.307947,-444.123565,3627.009116,-6281.983084
141.308256,962.267725,9844.739029,-5592.497135
141.308566,-0.000000,18505.148550,-4826.401637
141.308875,2368.659014,11843.295072,3140.991542
141.309185,-3627.009116,14211.954086,5592.497135
141.309494,148.041188,9326.594869,-2681.334243
141.309804,4293.194464,-2442.679609,-8886.707777
141.310113,-5181.441594,3330.926739,-1762.019645
141.310423,-1480.411884,4663.297435,1762.019645
141.310733,5773.606348,9326.594869,-689.485948
141.311042,-1628.453072,10955.047942,2757.943793
141.311352,-3330.926739,15100.201217,9039.926876
141.311661,-3256.906145,11991.336260,842.705048
141.311971,4219.173869,9178.553681,-15168.690860
141.312280,2368.659014,7179.997637,-19535.435199
141.312590,-1406.391290,9844.739029,-8656.879127
141.312899,592.164754,7846.182985,4979.620737
141.313209,-4219.173869,11325.150913,9729.412825
141.313518,2516.700203,14063.912898,11031.775171
141.313828,666.185348,5403.503377,5439.278036
141.314137,444.123565,10807.006753,-4826.401637
141.314447,-518.144159,7920.203579,-8656.879127
141.314756,-4737.318029,7994.224174,-12410.747068
141.315066,4145.153275,16654.633695,-10418.898773
141.315375,592.164754,10214.842000,-2987.772442
141.315685,444.123565,15026.180623,6894.859482
141.315994,-3627.009116,7698.141797,12717.185267
141.316304,1406.391290,5107.421000,3983.696590
141.316614,1554.432478,3404.947333,-4979.620737
141.316923,1850.514855,4219.173869,-9269.755526
141.317233,-0.000000,6661.853478,-9422.974625
141.317542,1110.308913,12361.439231,-1072.533697
141.317852,-3330.926739,15544.324782,4903.011187
141.318161,-3627.009116,12509.480420,5745.716235
141.318471,888.247130,11769.274478,383.047749
141.318780,9770.718434,5847.626942,-8810.098227
141.319090,-1998.556043,2516.700203,-7124.688131
141.319399,-1258.350101,8734.430116,2221.676944
141.319709,-666.185348,13619.789333,2528.115143
141.320018,2664.741391,11177.109724,1378.971896
141.320328,-3775.050304,11991.336260,8503.660028
141.320637,-1924.535449,11843.295072,1991.848295
141.320947,3182.885551,5329.482782,-11797.870669
141.321256,-518.144159,7031.956449,-9882.631924
141.321566,-4071.132681,11103.089130,1149.143247
141.321875,6365.771101,9696.697840,-3983.696590
141.322185,3552.988522,8734.430116,-153.219100
141.322495,-0.000000,11991.336260,15015.471761
141.322804,-1702.473667,5107.421000,12027.699319
141.323114,6069.688724,5699.585753,-2374.896044
141.323423,-3627.009116,4589.276840,-1455.581446
141.323733,-3701.029710,10955.047942,-5132.839837
141.324042,1924.535449,11473.192101,-14555.814462
141.324352,-1406.391290,14063.912898,-6511.811733
141.324661,-2146.597232,17690.922014,4136.915689
141.324971,-296.082377,16136.489536,2757.943793
141.325280,4885.359217,11399.171507,-1685.410096
141.325590,-4737.318029,3034.844362,4060.306139
141.325899,-1628.453072,3108.864956,8656.879127
141.326209,6587.832884,3997.112087,-8580.269578
141.326518,-0.000000,4071.132681,-4903.011187
141.326828,-222.061783,12509.480420,9269.755526
141.327137,-7254.018232,10807.006753,2604.724693
141.327447,5107.421000,14730.098246,-7814.174080
141.327756,3330.926739,6661.853478,-5362.668486
141.328066,-814.226536,6587.832884,-5132.839837
141.328376,962.267725,6513.812290,-4903.011187
141.328685,-2590.720797,6217.729913,76.609550
141.328995,-3701.029710,11103.089130,9729.412825
141.329304,2368.659014,14137.933492,2298.286494
141.329614,6365.771101,10362.883188,-5056.230287
141.329923,-5625.565159,10807.006753,-2604.724693
141.330233,-1628.453072,15618.345376,-5592.497135
141.330542,4515.256246,9326.594869,-13636.499864
141.330852,-888.247130,14285.974681,-10189.070123
141.331161,-4515.256246,8290.306550,6358.592633
141.331471,-1628.453072,10881.027347,9193.145976
141.331780,4071.132681,11251.130318,-4060.306139
141.332090,1628.453072,2590.720797,842.705048
141.332399,-962.267725,5995.668130,2451.505594
141.332709,-74.020594,3256.906145,-7660.954980
141.333018,-296.082377,6587.832884,-6052.154434
141.333328,-1036.288319,8364.327145,2528.115143
141.333637,518.144159,14508.036463,1762.019645
141.333947,1110.308913,10658.965565,-1455.581446
141.334256,-1406.391290,8734.430116,1455.581446
141.334566,-2590.720797,7550.100608,-306.438199
141.334875,2442.679609,7772.162391,-7124.688131
141.335185,2516.700203,10066.800811,-7201.297681
141.335494,-5107.421000,16284.530724,2068.457845
141.335804,-1628.453072,11103.089130,-842.705048
141.336113,4145.153275,4885.359217,-5056.230287
141.336423,-2294.638420,13619.789333,-3524.039291
141.336732,-3701.029710,6809.894666,1302.362347
141.337042,2294.638420,2294.638420,-2681.334243
141.337351,3182.885551,9030.512492,-3830.477490
141.337661,592.164754,9622.677246,4519.963438
141.337970,-518.144159,7994.224174,7048.078582
141.338280,-888.247130,8808.450710,919.314598
141.338589,-0.000000,12805.562797,-3524.039291
141.338899,5921.647536,7105.977043,-6511.811733
141.339209,1776.494261,7624.121203,-8044.002729
141.339518,222.061783,8660.409521,-995.924147
141.339828,-5699.585753,8290.306550,5592.497135
141.340137,-3108.864956,11103.089130,8120.612279
141.340447,222.061783,8808.450710,1991.848295
141.340756,1554.432478,11325.150913,-1915.238745
141.341066,1776.494261,12139.377449,-7814.174080
141.341375,-2738.761985,7550.100608,-6128.763984
141.341685,296.082377,11695.253884,-5286.058936
141.341994,592.164754,10955.047942,-1378.971896
141.342304,1184.329507,12213.398043,2068.457845
141.342613,-2072.576638,9918.759623,5362.668486
141.342923,-74.020594,5699.585753,2757.943793
141.343232,1628.453072,1184.329507,-1532.190996
141.343542,370.102971,2072.576638,76.609550
141.343851,-0.000000,9252.574275,-1762.019645
141.344161,148.041188,12879.583391,-1762.019645
141.344470,1110.308913,12805.562797,612.876398
141.344780,-2294.638420,15470.304188,383.047749
141.345089,4071.132681,15840.407159,-7507.735880
141.345399,2664.741391,6883.915261,-10035.851024
141.345708,-1998.556043,4515.256246,536.266849
141.346018,2886.803174,6661.853478,3140.991542
141.346327,-370.102971,8660.409521,2451.505594
141.346637,-1776.494261,12583.501014,9039.926876
141.346946,-4663.297435,11103.089130,9959.241474
141.347256,4737.318029,12213.398043,-4979.620737
141.347565,3701.029710,10510.924376,-17237.148705
141.347875,-2442.679609,7920.203579,-6435.202183
141.348184,-1850.514855,10362.883188,-3753.867940
141.348494,370.102971,11103.089130,-7354.516781
141.348803,1628.453072,8586.388927,4749.792088
141.349113,-3256.906145,7476.080014,15168.690860
141.349422,4367.215058,5033.400406,6741.640382
141.349732,1258.350101,3182.885551,-2911.162892
141.350042,1998.556043,6217.729913,-6128.763984
141.350351,3256.906145,5699.585753,-7277.907231
141.350661,-1554.432478,12287.418637,-5132.839837
141.350970,-518.144159,16580.613101,2528.115143
141.351280,-1332.370696,13101.645173,1608.800546
141.351589,-2442.679609,9400.615463,-3677.258390
141.351899,-74.020594,8734.430116,-4290.134789
141.352208,2146.597232,5625.565159,-5975.544884
141.352518,-2368.659014,8290.306550,-2374.896044
141.352827,2294.638420,11325.150913,-1072.533697
141.353137,592.164754,13175.665768,2374.896044
141.353446,-3108.864956,13323.706956,5592.497135
141.353756,-2590.720797,10732.986159,1991.848295
141.354065,3478.967927,7846.182985,-7354.516781
141.354375,3256.906145,5107.421000,-8886.707777
141.354684,-3627.009116,6883.915261,-3294.210641
141.354994,-0.000000,3478.967927,-153.219100
141.355303,3182.885551,9844.739029,306.438199
141.355613,2590.720797,14508.036463,4903.011187
141.355922,-1036.288319,4885.359217,8886.707777
141.356232,1850.514855,5477.523971,1225.752797
141.356541,-2516.700203,8512.368333,-6281.983084
141.356851,-1332.370696,8216.285956,-6128.763984
141.357160,1776.494261,10214.842000,-9422.974625
141.357470,2072.576638,15248.242405,-6358.592633
141.357779,-814.226536,15766.386565,2757.943793
141.358089,-5403.503377,16654.633695,9193.145976
141.358398,2664.741391,7846.182985,1762.019645
141.358708,3923.091493,4515.256246,-4903.011187
141.359017,-2368.659014,7105.977043,0.000000
141.359327,-4811.338623,6291.750507,-2528.115143
141.359636,4145.153275,9252.574275,-9193.145976
141.359946,1998.556043,11399.171507,-2987.772442
141.360255,-3701.029710,12657.521608,9346.365076
141.360565,-148.041188,7031.956449,5362.668486
141.360874,5033.400406,6957.935855,-2145.067394
141.361184,370.102971,2516.700203,-459.657299
141.361494,-444.123565,7179.997637,-1685.410096
141.361803,1850.514855,12731.542202,-5975.544884
141.362113,-0.000000,9400.615463,-5975.544884
141.362422,-0.000000,14137.933492,4290.134789
141.362732,-2738.761985,14211.954086,2451.505594
141.363041,-2220.617826,9770.718434,0.000000
141.363351,-4145.153275,9178.553681,76.609550
141.363660,222.061783,12435.459826,-5286.058936
141.363970,3256.906145,9400.615463,-10112.460574
141.364279,-296.082377,10881.027347,-4213.525239
141.364589,-962.267725,9844.739029,7354.516781
141.364898,-888.247130,11547.212695,5898.935335
141.365208,2294.638420,7402.059420,1762.019645
141.365517,2960.823768,4145.153275,-1762.019645
141.365827,-2960.823768,7105.977043,-3524.039291
141.366136,2590.720797,-148.041188,-3830.477490
141.366446,666.185348,6291.750507,-995.924147
141.366755,-2590.720797,11103.089130,1838.629195
141.367065,-1776.494261,7994.224174,7201.297681
141.367374,296.082377,12139.377449,3217.601092
141.367684,-1258.350101,12213.398043,-7201.297681
141.367993,-74.020594,9992.780217,-6971.469032
141.368303,-444.123565,9844.739029,-5745.716235
141.368612,2220.617826,13249.686362,-12563.966167
141.368922,-3701.029710,10436.903782,842.705048
141.369231,-2738.761985,14211.954086,10725.336972
141.369541,1184.329507,10732.986159,1378.971896
141.369850,6587.832884,9770.718434,-5362.668486
141.370160,814.226536,4293.194464,-2987.772442
141.370469,-740.205942,2220.617826,-5669.106685
141.370779,-74.020594,6957.935855,-5439.278036
141.371088,2664.741391,10140.821405,383.047749
141.371398,-4663.297435,12287.418637,7967.393179
141.371707,2960.823768,11399.171507,4519.963438
141.372017,2146.597232,5699.585753,-5132.839837
141.372327,1110.308913,8142.265362,-5515.887586
141.372636,-1036.288319,2886.803174,-3140.991542
141.372946,1480.411884,7772.162391,-4519.963438
141.373255,2590.720797,13175.665768,-2451.505594
141.373565,-4367.215058,12953.603985,9882.631924
141.373874,-1406.391290,14582.057057,8120.612279
141.374184,4293.194464,11473.192101,-7431.126331
141.374493,1406.391290,7698.141797,-8503.660028
141.374803,-8586.388927,7846.182985,1762.019645
141.375112,-1998.556043,5329.482782,-8963.317327
141.375422,3330.926739,10436.903782,-12104.308868
141.375731,-5921.647536,14211.954086,9193.145976
141.376041,-2516.700203,14804.118840,5745.716235
141.376350,5995.668130,10288.862594,-7967.393179
141.376660,1554.432478,7550.100608,-1838.629195
141.376969,-1628.453072,3997.112087,2451.505594
141.377279,-0.000000,4515.256246,-8886.707777
141.377588,5773.606348,7476.080014,-7967.393179
141.377898,-296.082377,8660.409521,6741.640382
141.378207,444.123565,10510.924376,10035.851024
141.378517,3478.967927,9844.739029,536.266849
141.378826,-3108.864956,4589.276840,-4673.182538
141.379136,-1850.514855,4885.359217,-1991.848295
141.379445,-888.247130,6735.874072,-8656.879127
141.379755,4367.215058,13841.851115,-14709.033562
141.380064,-9696.697840,12953.603985,4979.620737
141.380374,-3849.070898,19467.416275,11568.042020
141.380683,7624.121203,13619.789333,-7814.174080
141.380993,370.102971,8586.388927,-8503.660028
141.381302,-7254.018232,10436.903782,8273.831378
141.381612,370.102971,5033.400406,-6511.811733
141.381921,5995.668130,9400.615463,-19152.387450
141.382231,888.247130,6809.894666,7048.078582
141.382540,-7402.059420,9474.636058,16088.005458
141.382850,4441.235652,12361.439231,-2145.067394
141.383160,7105.977043,8438.347739,-5209.449386
141.383469,962.267725,4219.173869,1762.019645
141.383779,-2886.803174,4515.256246,-4519.963438
141.384088,4293.194464,5773.606348,-7124.688131
141.384398,-3775.050304,8808.450710,-153.219100
141.384707,-3627.009116,14434.015869,6665.030833
141.385017,3182.885551,12953.603985,2911.162892
141.385326,2738.761985,16062.468941,-5132.839837
141.385636,-7105.977043,9104.533087,153.219100
141.385945,-1702.473667,9030.512492,383.047749
141.386255,2738.761985,9030.512492,-16854.100956
141.386564,-3256.906145,14211.954086,-9806.022374
141.386874,-3182.885551,16728.654289,12257.527968
141.387183,-2368.659014,10214.842000,3140.991542
141.387493,1850.514855,11769.274478,-4979.620737
141.387802,2294.638420,3034.844362,4903.011187
141.388112,-5033.400406,444.123565,-1225.752797
141.388421,962.267725,4737.318029,-8733.488677
141.388731,3849.070898,8882.471304,-8886.707777
141.389040,-518.144159,9474.636058,153.219100
141.389350,3108.864956,13545.768739,3907.087040
141.389659,4219.173869,6735.874072,4136.915689
141.389969,-1924.535449,7476.080014,6052.154434
141.390278,-370.102971,5847.626942,6358.592633
141.390588,3108.864956,5033.400406,-5898.935335
141.390897,-1924.535449,8586.388927,-13483.280765
141.391207,-3923.091493,10584.944971,-1685.410096
141.391516,-4737.318029,15248.242405,8120.612279
141.391826,-1776.494261,18949.272115,-5286.058936
141.392135,814.226536,16210.510130,-3370.820191
141.392445,-1036.288319,13989.892304,-1915.238745
141.392754,-5403.503377,8660.409521,-3600.648841
141.393064,5995.668130,6513.812290,-4213.525239
141.393373,1332.370696,6439.791695,-4903.011187
141.393683,-1702.473667,10066.800811,4060.306139
141.393993,2516.700203,10362.883188,6588.421283
141.394302,1850.514855,6513.812290,1149.143247
141.394612,5551.544565,5255.462188,1915.238745
141.394921,592.164754,4589.276840,1915.238745
141.395231,-592.164754,4663.297435,-6818.249932
141.395540,-1480.411884,3108.864956,-5056.230287
141.395850,-3997.112087,8142.265362,5056.230287
141.396159,1554.432478,15026.180623,-3753.867940
141.396469,444.123565,12139.377449,-5898.935335
141.396778,-4441.235652,12287.418637,3370.820191
141.397088,-962.267725,9770.718434,-919.314598
141.397397,4737.318029,11917.315666,-8350.440928
141.397707,-3108.864956,11917.315666,-2911.162892
141.398016,-7179.997637,11547.212695,6971.469032
141.398326,-1332.370696,9030.512492,612.876398
141.398635,5699.585753,9770.718434,-13100.233016
141.398945,444.123565,10584.944971,-6894.859482
141.399254,-5033.400406,7920.203579,2298.286494
141.399564,2516.700203,9548.656652,0.000000
141.399873,5181.441594,9770.718434,-4673.182538
141.400183,-1258.350101,5329.482782,3753.867940
141.400492,-3552.988522,6365.771101,8120.612279
141.400802,5255.462188,4367.215058,-1915.238745
141.401111,444.123565,3478.967927,-4366.744339
141.401421,-2738.761985,10140.821405,-76.609550
141.401730,2960.823768,7846.182985,-4903.011187
141.402040,4885.359217,12361.439231,-8350.440928
141.402349,-5625.565159,17024.736666,4290.134789
141.402659,-4367.215058,14804.118840,5745.716235
141.402968,4737.318029,12879.583391,-7584.345430
141.403278,-2220.617826,9770.718434,-5209.449386
141.403587,-4663.297435,10658.965565,2911.162892
141.403897,-1924.535449,7624.121203,-7584.345430
141.404206,2590.720797,12287.418637,-12947.013916
141.404516,148.041188,10288.862594,4519.963438
141.404826,-3923.091493,10881.027347,6588.421283
141.405135,5699.585753,9474.636058,-766.095498
141.405445,-74.020594,8290.306550,2068.457845
141.405754,-1850.514855,4663.297435,1532.190996
141.406064,3256.906145,1332.370696,-5209.449386
141.406373,4663.297435,5625.565159,-5898.935335
141.406683,-3256.906145,8290.306550,4903.011187
141.406992,-2516.700203,11399.171507,5362.668486
141.407302,1924.535449,11991.336260,-4596.572988
141.407611,592.164754,13767.830521,-3370.820191
141.407921,-5033.400406,10881.027347,1532.190996
141.408230,-3627.009116,6365.771101,-1991.848295
141.408540,3849.070898,13693.809927,-9193.145976
141.408849,1850.514855,13841.851115,-5822.325785
141.409159,-5181.441594,12213.398043,3753.867940
141.409468,-2442.679609,13545.768739,1991.848295
141.409778,3627.009116,11917.315666,-2681.334243
141.410087,2442.679609,4737.318029,2451.505594
141.410397,-4441.235652,4885.359217,2068.457845
141.410706,-1776.494261,7624.121203,-1608.800546
141.411016,3330.926739,4737.318029,-7124.688131
141.411325,-222.061783,4367.215058,919.314598
141.411635,-1332.370696,11769.274478,3370.820191
141.411944,666.185348,11399.171507,-2068.457845
141.412254,3775.050304,4589.276840,1378.971896
141.412563,-296.082377,8956.491898,1455.581446
141.412873,444.123565,8364.327145,-3983.696590
141.413182,-0.000000,8956.491898,-3830.477490
141.413492,-2294.638420,9474.636058,3217.601092
141.413801,-2294.638420,12065.356855,153.219100
141.414111,518.144159,10955.047942,-7354.516781
141.414420,-962.267725,15544.324782,-3447.429741
141.414730,-2072.576638,15396.283594,-3140.991542
141.415039,-1850.514855,7179.997637,-3217.601092
141.415349,3627.009116,13101.645173,-5669.106685
141.415659,-3034.844362,9252.574275,-689.485948
141.415968,-1110.308913,9104.533087,4213.525239
141.416278,2590.720797,6069.688724,306.438199
141.416587,-148.041188,8142.265362,-689.485948
141.416897,4441.235652,8660.409521,1838.629195
141.417206,1850.514855,4219.173869,-3140.991542
141.417516,4145.153275,7920.203579,-6435.202183
141.417825,-1332.370696,6661.853478,2681.334243
141.418135,-1628.453072,9770.718434,5822.325785
141.418444,4219.173869,12583.501014,-2068.457845
141.418754,518.144159,9252.574275,-4366.744339
141.419063,-4663.297435,8068.244768,2451.505594
141.419373,-2146.597232,10955.047942,-2528.115143
141.419682,3330.926739,10807.006753,-9806.022374
141.419992,-3997.112087,11621.233289,-306.438199
141.420301,-7031.956449,15988.448347,3677.258390
141.420611,1480.411884,15544.324782,-7814.174080
141.420920,2072.576638,11473.192101,-9806.022374
141.421230,1184.329507,7031.956449,1532.190996
141.421539,-2146.597232,4145.153275,6894.859482
141.421849,1702.473667,10066.800811,-1225.752797
141.422158,592.164754,5625.565159,2987.772442
141.422468,-962.267725,4219.173869,5515.887586
141.422777,-592.164754,3849.070898,2145.067394
141.423087,3627.009116,8660.409521,-5362.668486
141.423396,-3404.947333,7105.977043,-4443.353888
141.423706,2516.700203,10584.944971,-4826.401637
141.424015,1258.350101,10066.800811,-4749.792088
141.424325,-0.000000,12731.542202,-2068.457845
141.424634,-3256.906145,11399.171507,5132.839837
141.424944,-2146.597232,11547.212695,2911.162892
141.425253,2368.659014,11325.150913,-3064.381992
141.425563,-666.185348,10288.862594,-2221.676944
141.425872,-3552.988522,12435.459826,-4596.572988
141.426182,-1702.473667,9178.553681,-7354.516781
141.426492,2072.576638,11399.171507,-7890.783629
141.426801,-1184.329507,10658.965565,1608.800546
141.427111,-370.102971,10807.006753,3524.039291
141.427420,3701.029710,10140.821405,1991.848295
141.427729,1406.391290,4589.276840,1762.019645
141.428039,296.082377,3923.091493,-536.266849
141.428348,-1406.391290,5033.400406,-2604.724693
141.428658,5107.421000,8068.244768,-2681.334243
141.428967,814.226536,8956.491898,1532.190996
141.429276,-2368.659014,12879.583391,3370.820191
141.429586,4515.256246,12953.603985,1378.971896
141.429895,-3404.947333,10881.027347,-1685.410096
141.430204,814.226536,8586.388927,-2451.505594
141.430514,-1406.391290,6217.729913,-3217.601092
141.430823,222.061783,14359.995275,-9346.365076
141.431133,-3182.885551,12065.356855,-2374.896044
141.431442,-1702.473667,14211.954086,459.657299
141.431751,740.205942,9104.533087,-459.657299
141.432061,-740.205942,14656.077652,-995.924147
141.432370,-1258.350101,8290.306550,-1072.533697
141.432680,-3034.844362,1110.308913,-2757.943793
141.432989,4589.276840,5625.565159,-2987.772442
141.433298,-1480.411884,3182.885551,-1302.362347
141.433608,-1776.494261,9548.656652,4519.963438
141.433917,4663.297435,9104.533087,4290.134789
141.434227,2812.782580,9030.512492,3753.867940
141.434536,-296.082377,9474.636058,1762.019645
141.434845,-2812.782580,7846.182985,-2374.896044
141.435155,2442.679609,10881.027347,-10189.070123
141.435464,-296.082377,7698.141797,-10035.851024
141.435774,-1776.494261,11399.171507,-3447.429741
141.436083,814.226536,12287.418637,-995.924147
141.436392,-1406.391290,12435.459826,0.000000
141.436702,4293.194464,8956.491898,5439.278036
141.437011,-3997.112087,9844.739029,2834.553343
141.437320,296.082377,10362.883188,-3907.087040
141.437630,1332.370696,9918.759623,-9729.412825
141.437939,-1702.473667,6735.874072,-4443.353888
141.438249,1480.411884,9622.677246,-1608.800546
141.438558,-888.247130,11251.130318,306.438199
141.438867,-1110.308913,10955.047942,3983.696590
141.439177,-518.144159,6217.729913,3753.867940
141.439486,3478.967927,3256.906145,-1991.848295
141.439796,1702.473667,7476.080014,-5975.544884
141.440105,-4737.318029,6513.812290,1838.629195
141.440414,-1258.350101,9252.574275,-383.047749
141.440724,4811.338623,8882.471304,-6971.469032
141.441033,-2590.720797,13323.706956,459.657299
141.441343,-2146.597232,13619.789333,4749.792088
141.441652,148.041188,9474.636058,-2987.772442
141.441961,2294.638420,12509.480420,-9269.755526
141.442271,-2072.576638,3552.988522,-1838.629195
141.442580,-3404.947333,8216.285956,689.485948
141.442890,-592.164754,7994.224174,-5439.278036
141.443199,740.205942,12583.501014,-1225.752797
141.443508,740.205942,11547.212695,1991.848295
141.443818,814.226536,5995.668130,-1608.800546
141.444127,4441.235652,11547.212695,-4366.744339
141.444436,-4885.359217,7402.059420,-689.485948
141.444746,-2442.679609,8438.347739,995.924147
141.445055,3775.050304,5033.400406,-4979.620737
141.445365,2368.659014,7920.203579,-1685.410096
141.445674,-7328.038826,10436.903782,4749.792088
141.445983,1924.535449,10658.965565,-1225.752797
141.446293,6217.729913,10807.006753,-5898.935335
141.446602,-222.061783,5995.668130,1072.533697
141.446912,-7402.059420,11547.212695,4903.011187
141.447221,-2886.803174,9252.574275,-3064.381992
141.447530,3478.967927,9696.697840,-7201.297681
141.447840,370.102971,9918.759623,-536.266849
141.448149,-4293.194464,10658.965565,1532.190996
141.448459,1110.308913,14508.036463,-1685.410096
141.448768,1998.556043,11325.150913,-4519.963438
141.449077,3108.864956,8512.368333,306.438199
141.449387,-1554.432478,8882.471304,689.485948
141.449696,-222.061783,11621.233289,-1685.410096
141.450006,-1850.514855,9474.636058,-2834.553343
141.450315,-74.020594,6365.771101,-1991.848295
141.450624,2664.741391,5033.400406,0.000000
141.450934,296.082377,13249.686362,-2451.505594
141.451243,444.123565,8956.491898,995.924147
141.451552,-0.000000,9252.574275,5209.449386
141.451862,370.102971,7550.100608,-2068.457845
141.452171,-2516.700203,8364.327145,-1225.752797
141.452481,-74.020594,7846.182985,229.828649
141.452790,-3627.009116,8364.327145,-1072.533697
141.453099,4515.256246,11991.336260,-6741.640382
141.453409,2220.617826,10066.800811,-4596.572988
141.453718,-3034.844362,13545.768739,1685.410096
141.454028,-3404.947333,9696.697840,1149.143247
141.454337,1628.453072,11769.274478,-3217.601092
141.454646,3404.947333,9992.780217,-2604.724693
141.454956,-592.164754,7402.059420,2145.067394
141.455265,-1924.535449,8956.491898,2145.067394
141.455575,2886.803174,6735.874072,766.095498
141.455884,-740.205942,10436.903782,-1302.362347
141.456193,518.144159,8068.244768,-2451.505594
141.456503,-296.082377,10732.986159,-4903.011187
141.456812,-1628.453072,9326.594869,-3217.601092
141.457122,-296.082377,10881.027347,-2987.772442
141.457431,3627.009116,9696.697840,-4903.011187
141.457740,1258.350101,9696.697840,0.000000
141.458050,-1924.535449,11547.212695,6511.811733
141.458359,-1628.453072,6957.935855,2451.505594
141.458668,6365.771101,9474.636058,-3447.429741
141.458978,1258.350101,8512.368333,-2451.505594
141.459287,-5329.482782,10436.903782,-1225.752797
141.459597,-74.020594,11547.212695,-5286.058936
141.459906,1554.432478,10732.986159,-7737.564530
141.460215,-592.164754,8216.285956,1991.848295
141.460525,-740.205942,8586.388927,2987.772442
141.460834,-74.020594,6957.935855,-2681.334243
141.461144,-1184.329507,7698.141797,536.266849
141.461453,814.226536,6143.709319,3064.381992
141.461762,5181.441594,6735.874072,-2757.943793
141.462072,666.185348,8512.368333,-2604.724693
141.462381,-7254.018232,11547.212695,8273.831378
141.462691,888.247130,12879.583391,-536.266849
141.463000,6661.853478,11991.336260,-13483.280765
141.463309,-814.226536,13693.809927,-5286.058936
141.463619,-4367.215058,9622.677246,1685.410096
141.463928,1702.473667,8734.430116,-4213.525239
141.464238,7328.038826,9474.636058,-1149.143247
141.464547,-5255.462188,6291.750507,8886.707777
141.464856,-1776.494261,11399.171507,4596.572988
141.465166,3627.009116,8660.409521,-3370.820191
141.465475,1924.535449,9474.636058,-5822.325785
141.465785,-2072.576638,8290.306550,-6128.763984
141.466094,-1110.308913,9104.533087,-7277.907231
141.466403,-148.041188,8290.306550,-2451.505594
141.466713,814.226536,8512.368333,5975.544884
141.467022,666.185348,10288.862594,3600.648841
141.467331,1554.432478,4071.132681,1532.190996
141.467641,-2812.782580,8808.450710,2298.286494
141.467950,-666.185348,5847.626942,-1532.190996
141.468260,-592.164754,7031.956449,-9193.145976
141.468569,4737.318029,8956.491898,-9499.584175
141.468878,-5625.565159,11991.336260,3524.039291
141.469188,-2886.803174,15988.448347,4519.963438
141.469497,444.123565,10732.986159,-919.314598
141.469807,5551.544565,13397.727550,-4366.744339
141.470116,-1184.329507,6957.935855,-766.095498
141.470425,-3256.906145,7920.203579,383.047749
141.470735,5255.462188,9696.697840,-2757.943793
141.471044,592.164754,11843.295072,-919.314598
141.471354,-3108.864956,12657.521608,6741.640382
141.471663,-5329.482782,7772.162391,2987.772442
141.471972,5625.565159,11621.233289,-4366.744339
141.472282,-1628.453072,6587.832884,-7354.516781
141.472591,-2664.741391,8956.491898,-2834.553343
141.472901,7105.977043,7476.080014,-4903.011187
141.473210,1480.411884,10066.800811,-1991.848295
141.473519,-3330.926739,10214.842000,7660.954980
141.473829,1406.391290,5329.482782,6741.640382
141.474138,-0.000000,9474.636058,-383.047749
141.474447,-3404.947333,8216.285956,-919.314598
141.474757,-2294.638420,12435.459826,-4673.182538
141.475066,2368.659014,9474.636058,-12104.308868
141.475376,2442.679609,13027.624579,-9882.631924
141.475685,-2368.659014,10955.047942,3524.039291
141.475994,-1628.453072,10214.842000,2221.676944
141.476304,740.205942,8660.409521,2681.334243
141.476613,2072.576638,9252.574275,995.924147
141.476923,-370.102971,7254.018232,-3447.429741
141.477232,-2368.659014,4885.359217,-2298.286494
141.477541,1998.556043,7105.977043,-1762.019645
141.477851,-2220.617826,9104.533087,-995.924147
141.478160,1628.453072,8068.244768,-2911.162892
141.478470,-2146.597232,8734.430116,1685.410096
141.478779,-74.020594,11843.295072,-842.705048
141.479088,1258.350101,7994.224174,-2451.505594
141.479398,2368.659014,8512.368333,-2604.724693
141.479707,4663.297435,10214.842000,-4826.401637
141.480017,-6883.915261,10881.027347,4673.182538
141.480326,-888.247130,12731.542202,3064.381992
141.480635,-1554.432478,7846.182985,1378.971896
141.480945,4293.194464,11917.315666,-2145.067394
141.481254,-962.267725,10066.800811,-3600.648841
141.481563,-2886.803174,9844.739029,-1838.629195
141.481873,3552.988522,14730.098246,-6128.763984
141.482182,666.185348,9178.553681,-5132.839837
141.482492,-1036.288319,11547.212695,0.000000
141.482801,-4737.318029,6587.832884,5898.935335
141.483110,2146.597232,10732.986159,1378.971896
141.483420,-444.123565,4811.338623,-3294.210641
141.483729,-1406.391290,5181.441594,-4290.134789
141.484039,1998.556043,11621.233289,-4903.011187
141.484348,1110.308913,8882.471304,-6435.202183
141.484657,3108.864956,9326.594869,1608.800546
141.484967,-444.123565,7550.100608,3140.991542
141.485276,2516.700203,11991.336260,919.314598
141.485586,-3108.864956,7846.182985,1532.190996
141.485895,-1776.494261,8882.471304,-1072.533697
141.486204,3552.988522,11769.274478,-6281.983084
141.486514,2220.617826,10807.006753,-10112.460574
141.486823,-3923.091493,15988.448347,-1915.238745
141.487133,-4959.379811,12953.603985,-2068.457845
141.487442,2664.741391,10140.821405,-4979.620737
141.487751,-0.000000,6143.709319,153.219100
141.488061,-2442.679609,7550.100608,2451.505594
141.488370,962.267725,9030.512492,-1532.190996
141.488679,5181.441594,9474.636058,-6894.859482
141.488989,-444.123565,7031.956449,1608.800546
141.489298,592.164754,9474.636058,2298.286494
141.489608,2368.659014,9400.615463,-2528.115143
141.489917,-888.247130,9992.780217,-4903.011187
141.490226,-4737.318029,6439.791695,-995.924147
141.490536,-1554.432478,6809.894666,-3600.648841
141.490845,8216.285956,9918.759623,-9499.584175
141.491155,-2146.597232,6439.791695,-612.876398
141.491464,-3404.947333,12213.398043,6588.421283
141.491773,2960.823768,7105.977043,1762.019645
141.492083,4811.338623,12509.480420,0.000000
141.492392,-8882.471304,10362.883188,3217.601092
141.492702,-2220.617826,9696.697840,-3217.601092
141.493011,6069.688724,15174.221811,-10572.117872
141.493320,-888.247130,12879.583391,-7124.688131
141.493630,-5625.565159,11399.171507,1378.971896
141.493939,666.185348,8290.306550,1762.019645
141.494249,6365.771101,7402.059420,-76.609550
141.494558,-5921.647536,7254.018232,3524.039291
141.494867,-3034.844362,7179.997637,4060.306139
141.495177,7179.997637,8808.450710,-6128.763984
141.495486,296.082377,8808.450710,-7967.393179
141.495795,-2294.638420,9474.636058,3830.477490
141.496105,-1776.494261,11547.212695,995.924147
141.496414,5773.606348,8438.347739,-2221.676944
141.496724,-0.000000,9918.759623,3677.258390
141.497033,-4441.235652,8586.388927,306.438199
141.497342,1036.288319,11399.171507,-5745.716235
141.497652,3775.050304,9252.574275,-4826.401637
141.497961,-2294.638420,5699.585753,-1991.848295
141.498271,-1628.453072,12509.480420,-153.219100
141.498580,5773.606348,11843.295072,-2528.115143
141.498889,-962.267725,13397.727550,-1072.533697
141.499199,-4811.338623,7772.162391,-919.314598
141.499508,1110.308913,9104.533087,0.000000
141.499818,3330.926739,11177.109724,-7814.174080
141.500127,-666.185348,4885.359217,-5515.887586
141.500436,-3034.844362,9400.615463,3907.087040
141.500746,1776.494261,10807.006753,-536.266849
141.501055,2516.700203,8290.306550,-3983.696590
141.501365,1406.391290,6069.688724,4903.011187
141.501674,-1998.556043,4885.359217,5209.449386
141.501983,666.185348,10288.862594,0.000000
141.502293,-666.185348,8808.450710,-919.314598
141.502602,-2590.720797,12657.521608,-2911.162892
141.502912,4737.318029,11621.233289,-12027.699319
141.503221,-888.247130,12287.418637,-8810.098227
141.503530,-148.041188,12213.398043,-2451.505594
141.503840,-1776.494261,9844.739029,1685.410096
141.504149,4071.132681,9030.512492,153.219100
141.504458,-1406.391290,10881.027347,3140.991542
141.504768,-4737.318029,8142.265362,4749.792088
141.505077,2220.617826,7772.162391,0.000000
141.505387,-592.164754,7254.018232,-7124.688131
141.505696,-296.082377,15026.180623,-2757.943793
141.506005,-1628.453072,5033.400406,-3447.429741
141.506315,-1110.308913,11325.150913,-2221.676944
141.506624,-0.000000,10584.944971,1225.752797
141.506934,1406.391290,9918.759623,-306.438199
141.507243,370.102971,4663.297435,612.876398
141.507552,2516.700203,3330.926739,-1455.581446
141.507862,1406.391290,7846.182985,-229.828649
141.508171,-740.205942,8660.409521,-306.438199
141.508481,-740.205942,11917.315666,-1838.629195
141.508790,-1184.329507,14582.057057,0.000000
141.509099,962.267725,12731.542202,0.000000
141.509409,-3849.070898,14582.057057,-2451.505594
141.509718,3923.091493,10066.800811,-10418.898773
141.510028,592.164754,7402.059420,-6435.202183
141.510337,-5255.462188,8882.471304,2221.676944
141.510646,-296.082377,5773.606348,3907.087040
141.510956,2294.638420,11843.295072,-2834.553343
141.511265,2738.761985,9030.512492,0.000000
141.511574,-4293.194464,6513.812290,6741.640382
141.511884,962.267725,8882.471304,-1455.581446
141.512193,4959.379811,6439.791695,-9193.145976
141.512503,-740.205942,10807.006753,-4673.182538
141.512812,-2072.576638,7994.224174,-5056.230287
141.513121,592.164754,10436.903782,-995.924147
141.513431,2368.659014,9400.615463,1991.848295
141.513740,-4441.235652,7698.141797,4979.620737
141.514050,1776.494261,8438.347739,-1149.143247
141.514359,888.247130,7772.162391,-5132.839837
141.514668,-3627.009116,10288.862594,-4136.915689
141.514978,-2442.679609,9400.615463,-4213.525239
141.515287,1776.494261,11769.274478,-6741.640382
141.515597,3034.844362,11325.150913,0.000000
141.515906,-4811.338623,7105.977043,6511.811733
141.516215,-370.102971,9474.636058,5132.839837
141.516525,4441.235652,7994.224174,-229.828649
141.516834,3256.906145,7994.224174,-4826.401637
141.517144,-6439.791695,6735.874072,459.657299
141.517453,1776.494261,14211.954086,-2451.505594
141.517762,1480.411884,10362.883188,-8044.002729
141.518072,-962.267725,11103.089130,-1302.362347
141.518381,-2960.823768,8956.491898,6588.421283
141.518690,3849.070898,7179.997637,1072.533697
141.519000,3849.070898,6143.709319,-1991.848295
141.519309,-1258.350101,10140.821405,1378.971896
141.519619,-296.082377,9474.636058,-459.657299
141.519928,666.185348,10510.924376,459.657299
141.520237,-0.000000,14211.954086,1455.581446
141.520547,-2368.659014,10510.924376,306.438199
141.520856,1702.473667,8364.327145,-3753.867940
141.521166,-666.185348,11843.295072,-3370.820191
141.521475,-4737.318029,6513.812290,-3064.381992
141.521784,-0.000000,9104.533087,-1608.800546
141.522094,2738.761985,7179.997637,-995.924147
141.522403,2368.659014,8290.306550,459.657299
141.522713,-6513.812290,10881.027347,1762.019645
141.523022,4367.215058,10214.842000,-383.047749
141.523331,1850.514855,13915.871710,-2374.896044
141.523641,1924.535449,9622.677246,-4290.134789
141.523950,-2516.700203,7105.977043,-536.266849
141.524260,2960.823768,9104.533087,-2834.553343
141.524569,-370.102971,8734.430116,-1225.752797
141.524878,-148.041188,10362.883188,-306.438199
141.525188,4071.132681,10510.924376,-1915.238745
141.525497,1554.432478,11547.212695,-1225.752797
141.525806,-1036.288319,9400.615463,-1762.019645
141.526116,-4737.318029,7550.100608,-1378.971896
141.526425,3849.070898,10214.842000,-5669.106685
141.526735,-888.247130,6735.874072,-1378.971896
141.527044,-3478.967927,9400.615463,-1072.533697
141.527353,740.205942,9400.615463,-383.047749
141.527663,3182.885551,10732.986159,-2528.115143
141.527972,-1110.308913,9326.594869,-2911.162892
141.528282,-2960.823768,9844.739029,-1072.533697
141.528591,-0.000000,11695.253884,-1915.238745
141.528900,-3552.988522,10955.047942,-6511.811733
141.529210,-888.247130,14878.139434,-8120.612279
141.529519,2220.617826,11325.150913,-8580.269578
141.529829,444.123565,11103.089130,-7201.297681
141.530138,-2812.782580,9474.636058,-2911.162892
141.530448,-962.267725,9178.553681,-1225.752797
141.530757,3404.947333,9252.574275,-5669.106685
141.531066,2738.761985,6957.935855,-5975.544884
141.531376,-3923.091493,8512.368333,2911.162892
141.531685,-592.164754,6735.874072,-2221.676944
141.531995,1702.473667,7328.038826,-12410.747068
141.532304,-1924.535449,7698.141797,-15092.081311
141.532614,-1702.473667,8586.388927,-11568.042020
141.532923,-6661.853478,11991.336260,-7201.297681
141.533233,5773.606348,12139.377449,-10725.336972
141.533542,4367.215058,6587.832884,-8120.612279
141.533851,-1998.556043,6439.791695,1838.629195
141.534161,-5699.585753,2516.700203,3600.648841
141.534470,1110.308913,8438.347739,-8044.002729
141.534780,4219.173869,8956.491898,-16777.491406
141.535089,2294.638420,11399.171507,-16394.443657
141.535399,-2812.782580,11547.212695,-10265.679673
141.535708,296.082377,15396.283594,-11951.089769
141.536018,2886.803174,10066.800811,-12180.918418
141.536327,-888.247130,8734.430116,-4366.744339
141.536636,-6217.729913,5773.606348,1072.533697
141.536946,1924.535449,7031.956449,-7277.907231
141.537255,1332.370696,4515.256246,-15398.519510
141.537565,1480.411884,9252.574275,-14479.204912
141.537874,-5625.565159,7254.018232,-6511.811733
141.538184,-370.102971,14211.954086,-7354.516781
141.538493,-0.000000,8438.347739,-16317.834107
141.538803,3775.050304,10807.006753,-10495.508323
141.539112,-9844.739029,7254.018232,229.828649
141.539422,-4663.297435,9252.574275,-3447.429741
141.539731,1110.308913,7772.162391,-18769.339701
141.540040,4737.318029,5773.606348,-22446.598091
141.540350,-7994.224174,11399.171507,-11568.042020
141.540659,-4145.153275,13101.645173,-7354.516781
141.540969,2960.823768,14582.057057,-15168.690860
141.541278,7550.100608,7698.141797,-12870.404366
141.541588,-666.185348,4515.256246,-3753.867940
141.541897,-3552.988522,2590.720797,2911.162892
141.542207,-0.000000,2664.741391,-2451.505594
141.542516,4737.318029,3775.050304,-14402.595362
141.542825,2368.659014,8216.285956,-16164.615008
141.543135,-2812.782580,10066.800811,-8273.831378
141.543444,-4293.194464,12805.562797,-7431.126331
141.543754,-1184.329507,16284.530724,-14709.033562
141.544063,5699.585753,11917.315666,-20684.578446
141.544373,-2442.679609,9474.636058,-14709.033562
141.544682,-2294.638420,6809.894666,-3064.381992
141.544992,1258.350101,6217.729913,-3600.648841
141.545301,2516.700203,9474.636058,-5898.935335
141.545610,6069.688724,11177.109724,-6818.249932
141.545920,-814.226536,15100.201217,-8273.831378
141.546229,1554.432478,12213.398043,-11874.480219
141.546539,1924.535449,13323.706956,-15551.738609
141.546848,-2368.659014,11695.253884,-16854.100956
141.547158,-3997.112087,9474.636058,-15475.129060
141.547467,-3552.988522,6513.812290,-11338.213370
141.547777,2812.782580,5773.606348,-11644.651570
141.548086,6735.874072,5995.668130,-6894.859482
141.548395,2590.720797,4885.359217,-2834.553343
141.548705,-2442.679609,5699.585753,3677.258390
141.549014,-666.185348,6735.874072,-3370.820191
141.549324,-962.267725,10807.006753,-12257.527968
141.549633,-2294.638420,14063.912898,-17160.539155
141.549943,-1924.535449,15470.304188,-19075.777900
141.550252,-3034.844362,14582.057057,-16854.100956
141.550562,-2442.679609,14582.057057,-12487.356617
141.550871,-1776.494261,11621.233289,-8044.002729
141.551180,-444.123565,13989.892304,-4443.353888
141.551490,-1036.288319,12361.439231,-5209.449386
141.551799,592.164754,9252.574275,-11261.603821
141.552109,4441.235652,5699.585753,-14249.376263
141.552418,1258.350101,5403.503377,-12180.918418
141.552728,-4589.276840,7772.162391,-8503.660028
141.553037,592.164754,10732.986159,-5745.716235
141.553347,3627.009116,8068.244768,-9652.803275
141.553656,222.061783,7179.997637,-8580.269578
141.553965,-1776.494261,8216.285956,-7584.345430
141.554275,3108.864956,7772.162391,-12563.966167
141.554584,2812.782580,8512.368333,-16624.272307
141.554894,-2738.761985,10140.821405,-8580.269578
141.555203,-1628.453072,12805.562797,-3600.648841
141.555513,2146.597232,12657.521608,-8656.879127
141.555822,2368.659014,14285.974681,-12640.575717
141.556132,-2886.803174,12509.480420,-9806.022374
141.556441,-2590.720797,10214.842000,-10418.898773
141.556750,-1258.350101,12287.418637,-16777.491406
141.557060,4589.276840,11769.274478,-18462.901502
141.557369,2442.679609,11621.233289,-15934.786358
141.557679,-1628.453072,8956.491898,-2834.553343
141.557988,-74.020594,6513.812290,1608.800546
141.558298,3552.988522,2886.803174,-5286.058936
141.558607,814.226536,2220.617826,-6205.373534
141.558917,-3552.988522,2368.659014,-4979.620737
141.559226,-2812.782580,6513.812290,-11184.994271
141.559535,-592.164754,13101.645173,-18386.291952
141.559845,888.247130,17912.983796,-20837.797546
141.560154,-2072.576638,17838.963202,-19152.387450
141.560464,-1554.432478,15396.283594,-15321.909960
141.560773,1110.308913,11695.253884,-10035.851024
141.561083,2590.720797,7105.977043,-5515.887586
141.561392,1924.535449,5255.462188,766.095498
141.561702,666.185348,222.061783,1532.190996
141.562011,-2220.617826,518.144159,-153.219100
141.562321,-1554.432478,7105.977043,-9346.365076
141.562630,1554.432478,13101.645173,-17620.196454
141.562939,-444.123565,16876.695478,-18539.511052
141.563249,-3627.009116,17542.880825,-17237.148705
141.563558,1110.308913,18061.024985,-16624.272307
141.563868,-666.185348,8882.471304,-16394.443657
141.564177,-2146.597232,3552.988522,-5822.325785
141.564487,888.247130,962.267725,459.657299
141.564796,1776.494261,4811.338623,-306.438199
141.565106,5699.585753,6217.729913,-6205.373534
141.565415,2812.782580,8512.368333,-11108.384721
141.565724,370.102971,8290.306550,-12487.356617
141.566034,-1776.494261,11325.150913,-11874.480219
141.566343,296.082377,15988.448347,-13789.718964
141.566653,2442.679609,13915.871710,-15245.300410
141.566962,-74.020594,9474.636058,-11031.775171
141.567272,-3627.009116,1924.535449,-6052.154434
141.567581,-2664.741391,2368.659014,-5975.544884
141.567891,-296.082377,7105.977043,-8656.879127
141.568200,1554.432478,11991.336260,-8886.707777
141.568509,-222.061783,14730.098246,-10112.460574
141.568819,1480.411884,13027.624579,-10955.165621
141.569128,-148.041188,12583.501014,-11874.480219
141.569438,-370.102971,10288.862594,-11874.480219
141.569747,-962.267725,8808.450710,-10572.117872
141.570057,2220.617826,8882.471304,-8580.269578
141.570366,-0.000000,8808.450710,-5209.449386
141.570676,370.102971,8586.388927,-6052.154434
141.570985,1924.535449,8512.368333,-10418.898773
141.571294,-0.000000,7105.977043,-12257.527968
141.571604,-0.000000,6883.915261,-8350.440928
141.571913,2886.803174,7846.182985,-7737.564530
141.572223,296.082377,7994.224174,-6205.373534
141.572532,-370.102971,8512.368333,-1225.752797
141.572842,1184.329507,8364.327145,-1302.362347
141.573151,3256.906145,7105.977043,-8733.488677
141.573461,444.123565,10140.821405,-6281.983084
141.573770,-814.226536,13545.768739,-2145.067394
141.574079,222.061783,13841.851115,-9729.412825
141.574389,-4071.132681,13989.892304,-11031.775171
141.574698,-3330.926739,11769.274478,-8963.317327
141.575008,-4515.256246,9104.533087,-12257.527968
141.575317,-2812.782580,10436.903782,-15321.909960
141.575627,-3627.009116,13989.892304,-12717.185267
141.575936,-888.247130,11917.315666,-10725.336972
141.576246,1184.329507,11251.130318,-11338.213370
141.576555,518.144159,11991.336260,-9116.536426
141.576864,222.061783,12287.418637,-8580.269578
141.577174,-1036.288319,9622.677246,-7584.345430
141.577483,-1702.473667,11769.274478,-11184.994271
141.577793,-0.000000,10066.800811,-15781.567259
141.578102,888.247130,7920.203579,-19688.654299
141.578412,444.123565,7476.080014,-20454.749797
141.578721,592.164754,7179.997637,-10878.556072
141.579031,2516.700203,6883.915261,-7814.174080
141.579340,13101.645173,6439.791695,-4290.134789
141.579649,-8660.409521,4515.256246,2374.896044
141.579959,2146.597232,7698.141797,-6435.202183
141.580268,-4071.132681,8068.244768,-19612.044749
141.580578,-962.267725,11473.192101,-21680.502593
141.580887,-0.000000,14804.118840,-20991.016645
141.581197,-5773.606348,15322.262999,-21144.235745
141.581506,8068.244768,18579.169144,-21374.064394
141.581816,-0.000000,10658.965565,-12640.575717
141.582125,2146.597232,9104.533087,-5898.935335
141.582434,2072.576638,3923.091493,-1685.410096
141.582744,15766.386565,-7179.997637,-10342.289223
141.583053,-32791.123231,-1554.432478,-612.876398
141.583363,15396.283594,23390.507767,-229.828649
141.583672,13693.809927,17024.736666,-23059.474490
141.583982,12879.583391,9770.718434,-31792.963167
141.584291,-21836.075289,8216.285956,-12793.794817
141.584601,-13841.851115,12731.542202,-6128.763984
141.584910,5847.626942,19467.416275,-20761.187996
141.585220,2294.638420,9326.594869,-17773.415554
141.585529,-1628.453072,10214.842000,-11568.042020
141.585838,-6143.709319,-1628.453072,-7660.954980
141.586148,-4145.153275,10288.862594,-8810.098227
141.586457,3108.864956,14730.098246,-8427.050478
141.586767,6365.771101,12731.542202,-19152.387450
141.587076,-1628.453072,8068.244768,-6894.859482
141.587386,-7402.059420,9622.677246,3140.991542
141.587695,-148.041188,4441.235652,-16624.272307
141.588005,-1924.535449,3330.926739,-27962.485677
141.588314,2146.597232,9178.553681,-16777.491406
141.588623,-6217.729913,5329.482782,-8886.707777
141.588933,-962.267725,8660.409521,-8886.707777
141.589242,6587.832884,13101.645173,-8503.660028
141.589552,7402.059420,7550.100608,-9806.022374
141.589861,-1850.514855,3701.029710,1532.190996
141.590171,-3849.070898,7550.100608,6052.154434
141.590480,2812.782580,9104.533087,-12027.699319
141.590790,7328.038826,13693.809927,-26966.561530
141.591099,-3034.844362,12583.501014,-15781.567259
141.591408,518.144159,15396.283594,-9039.926876
141.591718,3775.050304,15914.427753,-13330.061665
141.592027,592.164754,16654.633695,-9422.974625
141.592337,-3330.926739,10658.965565,-1608.800546
141.592646,74.020594,6439.791695,-8580.269578
141.592956,1850.514855,7031.956449,-12793.794817
141.593265,592.164754,5255.462188,-13483.280765
141.593575,3404.947333,8808.450710,-14402.595362
141.593884,2294.638420,10362.883188,-5132.839837
141.594193,-4737.318029,14434.015869,3753.867940
141.594503,-1110.308913,11695.253884,536.266849
141.594812,1702.473667,13397.727550,-10189.070123
141.595122,-666.185348,8882.471304,-13253.452115
141.595431,-4367.215058,5921.647536,-13330.061665
141.595741,-4145.153275,3923.091493,-14938.862211
141.596050,-3034.844362,11399.171507,-12334.137518
141.596360,-222.061783,15396.283594,-7354.516781
141.596669,-1702.473667,14804.118840,-7277.907231
141.596978,-296.082377,10807.006753,-10418.898773
141.597288,-0.000000,5477.523971,-3140.991542
141.597597,-1628.453072,3849.070898,-689.485948
141.597907,-296.082377,2738.761985,-8273.831378
141.598216,-3849.070898,5921.647536,-11414.822920
141.598526,-1776.494261,14285.974681,-11261.603821
141.598835,4515.256246,12805.562797,-16241.224558
141.599145,296.082377,15618.345376,-15321.909960
141.599454,-2368.659014,17172.777854,-9422.974625
141.599763,-1850.514855,7550.100608,-13176.842566
141.600073,-370.102971,7105.977043,-13253.452115
141.600382,2960.823768,7179.997637,-11031.775171
141.600692,-1998.556043,4589.276840,-7814.174080
141.601001,296.082377,8586.388927,-4749.792088
141.601311,1998.556043,11843.295072,-11108.384721
141.601620,2368.659014,15618.345376,-16777.491406
141.601930,4441.235652,10955.047942,-18616.120601
141.602239,-3330.926739,9400.615463,-14555.814462
141.602548,-2072.576638,15174.221811,-12563.966167
141.602858,2368.659014,6291.750507,-15321.909960
141.603167,3034.844362,7031.956449,-17696.806004
141.603477,3923.091493,5033.400406,-10801.946522
141.603786,-4441.235652,6661.853478,-2145.067394
141.604096,1776.494261,5995.668130,-3217.601092
141.604405,4885.359217,9548.656652,-14019.547613
141.604715,5551.544565,11473.192101,-17160.539155
141.605024,-4811.338623,9548.656652,-11414.822920
141.605333,-6365.771101,11917.315666,-9959.241474
141.605643,-4071.132681,13471.748144,-20071.702048
141.605952,4737.318029,13989.892304,-23059.474490
141.606262,-4885.359217,6143.709319,-15092.081311
141.606571,-2960.823768,9326.594869,-2987.772442
141.606881,-4145.153275,10584.944971,-3370.820191
141.607190,7105.977043,11325.150913,-10725.336972
141.607500,-5033.400406,8734.430116,-11108.384721
141.607809,-888.247130,7328.038826,-10035.851024
141.608118,-3923.091493,9400.615463,-13176.842566
141.608428,7994.224174,8068.244768,-17773.415554
141.608737,814.226536,10732.986159,-15321.909960
141.609047,2886.803174,4145.153275,-536.266849
141.609356,-4885.359217,7328.038826,5592.497135
141.609666,5255.462188,3478.967927,-2604.724693
141.609975,3256.906145,6513.812290,-9806.022374
141.610285,2590.720797,2664.741391,-7277.907231
141.610594,-2664.741391,9400.615463,-4749.792088
141.610904,2590.720797,8660.409521,-9652.803275
141.611213,-1554.432478,10288.862594,-7431.126331
141.611522,-2442.679609,12805.562797,2834.553343
141.611832,-2220.617826,11177.109724,1838.629195
141.612141,-74.020594,9400.615463,-5439.278036
141.612451,-2664.741391,7476.080014,-4903.011187
141.612760,-518.144159,9844.739029,-7048.078582
141.613070,-740.205942,9252.574275,-8044.002729
141.613379,-74.020594,13101.645173,-2604.724693
141.613689,-3997.112087,12287.418637,5362.668486
141.613998,1554.432478,13101.645173,1991.848295
141.614307,1258.350101,10510.924376,-3294.210641
141.614617,-1702.473667,9918.759623,-842.705048
141.614926,-2812.782580,9548.656652,-153.219100
141.615236,1110.308913,12435.459826,-7048.078582
141.615545,3108.864956,14137.933492,-7354.516781
141.615855,2294.638420,15026.180623,-2451.505594
141.616164,-5181.441594,10658.965565,2528.115143
141.616474,-888.247130,13767.830521,4213.525239
141.616783,1702.473667,9326.594869,459.657299
141.617092,1850.514855,4219.173869,-4136.915689
141.617402,-3701.029710,5403.503377,0.000000
141.617711,1332.370696,6217.729913,-2451.505594
141.618021,-740.205942,9326.594869,-4213.525239
141.618330,1480.411884,9844.739029,-1838.629195
141.618640,2960.823768,10362.883188,2528.115143
141.618949,-2368.659014,8956.491898,6052.154434
141.619259,-222.061783,7698.141797,5132.839837
141.619568,-592.164754,6809.894666,-2298.286494
141.619877,9844.739029,4589.276840,-9193.145976
141.620187,-1480.411884,3849.070898,-4060.306139
141.620496,-2516.700203,11843.295072,5132.839837
141.620806,-370.102971,11991.336260,995.924147
141.621115,6587.832884,15544.324782,-5592.497135
141.621425,-0.000000,15248.242405,-1532.190996
141.621734,-1184.329507,10584.944971,3370.820191
141.622044,2664.741391,10510.924376,-3983.696590
141.622353,3034.844362,8142.265362,-6971.469032
141.622662,-1924.535449,6957.935855,1532.190996
141.622972,-3330.926739,8216.285956,4366.744339
141.623281,444.123565,14359.995275,229.828649
141.623591,3404.947333,11103.089130,-3753.867940
141.623900,-1628.453072,11843.295072,-2221.676944
141.624210,-2738.761985,13323.706956,-1149.143247
141.624519,-2368.659014,7179.997637,-3294.210641
141.624829,-1480.411884,13249.686362,-6435.202183
141.625138,-1480.411884,5847.626942,-6588.421283
141.625447,4589.276840,11547.212695,-4290.134789
141.625757,-1776.494261,8586.388927,-229.828649
141.626066,-2072.576638,5477.523971,4136.915689
141.626376,-3108.864956,8364.327145,4673.182538
141.626685,5403.503377,7328.038826,-3140.991542
141.626995,-4293.194464,9622.677246,-9422.974625
141.627304,-4663.297435,5847.626942,-2834.553343
141.627614,518.144159,11177.109724,-10265.679673
141.627923,3923.091493,8142.265362,-12947.013916
141.628232,-3108.864956,8068.244768,-3294.210641
141.628544,-5181.441594,7920.203579,1608.800546
141.628853,8142.265362,11325.150913,-2987.772442
141.629163,4959.379811,5551.544565,-1838.629195
141.629472,-1332.370696,1406.391290,4290.134789
141.629782,-1776.494261,6069.688724,4596.572988
141.630091,5033.400406,5477.523971,-3217.601092
141.630401,740.205942,9326.594869,-5745.716235
141.630710,-2368.659014,7846.182985,-3370.820191
141.631019,2368.659014,13619.789333,-4366.744339
141.631329,-1776.494261,15988.448347,-3064.381992
141.631638,-2960.823768,13767.830521,-3600.648841
141.631948,1554.432478,10288.862594,-4136.915689
141.632257,-148.041188,11769.274478,-2451.505594
141.632566,-1850.514855,10214.842000,0.000000
141.632876,-4811.338623,8956.491898,-459.657299
141.633185,8068.244768,15026.180623,-9116.536426
141.633495,3478.967927,10955.047942,-5439.278036
141.633804,518.144159,9474.636058,4596.572988
141.634114,-1258.350101,2294.638420,13100.233016
141.634423,2738.761985,6883.915261,5669.106685
141.634732,2368.659014,4441.235652,5362.668486
141.635042,-888.247130,1554.432478,612.876398
141.635351,-1110.308913,8660.409521,-3983.696590
141.635661,-740.205942,7031.956449,-3294.210641
141.635970,-3775.050304,12287.418637,-229.828649
141.636279,-7402.059420,13101.645173,1991.848295
141.636589,2220.617826,13175.665768,-1608.800546
141.636898,-2442.679609,15248.242405,1838.629195
141.637208,1110.308913,9918.759623,306.438199
141.637517,-1332.370696,5995.668130,2145.067394
141.637827,-2368.659014,9252.574275,2298.286494
141.638136,-592.164754,8216.285956,612.876398
141.638445,2072.576638,9770.718434,-4443.353888
141.638755,1850.514855,15174.221811,-919.314598
141.639064,-444.123565,8882.471304,1149.143247
141.639374,-814.226536,6069.688724,2298.286494
141.639683,3108.864956,3849.070898,-1915.238745
141.639992,-888.247130,4589.276840,-995.924147
141.640302,-814.226536,7328.038826,2528.115143
141.640611,-296.082377,6143.709319,-459.657299
141.640921,3552.988522,10510.924376,-1991.848295
141.641230,9400.615463,11695.253884,229.828649
141.641540,-3478.967927,9622.677246,2298.286494
141.641849,-4219.173869,12435.459826,10035.851024
141.642158,1258.350101,13175.665768,5132.839837
141.642468,2516.700203,13397.727550,-9193.145976
141.642777,-2220.617826,12805.562797,-9576.193725
141.643087,-3849.070898,18949.272115,-1378.971896
141.643396,-1850.514855,14804.118840,-11108.384721
141.643706,1554.432478,13619.789333,-11951.089769
141.644015,1036.288319,15766.386565,-689.485948
141.644324,4071.132681,4885.359217,3753.867940
141.644634,-0.000000,6291.750507,5132.839837
141.644943,1036.288319,1258.350101,11031.775171
141.645253,-518.144159,814.226536,5669.106685
141.645562,2812.782580,4219.173869,-1532.190996
141.645871,-1406.391290,6809.894666,-3830.477490
141.646181,2664.741391,8364.327145,-5669.106685
141.646490,3404.947333,12065.356855,-7660.954980
141.646800,-4885.359217,16580.613101,1072.533697
141.647109,-1406.391290,8364.327145,7201.297681
141.647419,-4145.153275,9548.656652,-919.314598
141.647728,3552.988522,10362.883188,-5515.887586
141.648037,-6365.771101,5847.626942,-306.438199
141.648347,-2368.659014,13027.624579,-4903.011187
141.648656,1702.473667,15470.304188,-10801.946522
141.648966,-0.000000,15322.262999,-3983.696590
141.649275,-2368.659014,15174.221811,2681.334243
141.649584,-3330.926739,9918.759623,-3217.601092
141.649894,7105.977043,12805.562797,-9269.755526
141.650203,2220.617826,4071.132681,-2834.553343
141.650513,1776.494261,3627.009116,1685.410096
141.650822,2294.638420,-74.020594,3140.991542
141.651132,4367.215058,3849.070898,6435.202183
141.651441,1036.288319,5107.421000,7124.688131
141.651750,-3849.070898,9326.594869,6128.763984
141.652060,-3478.967927,11103.089130,1532.190996
141.652369,-74.020594,9104.533087,-9806.022374
141.652679,740.205942,15396.283594,-15245.300410
141.652988,-518.144159,13249.686362,-11568.042020
141.653297,-4367.215058,17172.777854,0.000000
141.653607,-6217.729913,13767.830521,6052.154434
141.653916,1480.411884,17542.880825,3524.039291
141.654226,5107.421000,12065.356855,-2528.115143
141.654535,2886.803174,7254.018232,-1455.581446
141.654845,-4959.379811,6957.935855,4596.572988
141.655154,-1406.391290,6883.915261,-1532.190996
141.655463,5403.503377,5995.668130,-9729.412825
141.655773,814.226536,12287.418637,-5209.449386
141.656082,-444.123565,7328.038826,3370.820191
141.656392,-3775.050304,7105.977043,4060.306139
141.656701,6365.771101,10066.800811,-4519.963438
141.657011,1850.514855,4811.338623,153.219100
141.657320,-2220.617826,6217.729913,3064.381992
141.657629,-740.205942,3034.844362,8427.050478
141.657939,-4959.379811,11473.192101,4903.011187
141.658248,2368.659014,10955.047942,-2451.505594
141.658558,1702.473667,15174.221811,-4903.011187
141.658867,962.267725,15692.365970,-4826.401637
141.659176,-8142.265362,10732.986159,306.438199
141.659486,518.144159,12583.501014,-2604.724693
141.659795,3478.967927,9178.553681,-8273.831378
141.660105,-1184.329507,9104.533087,2451.505594
141.660414,-6883.915261,10510.924376,10725.336972
141.660724,148.041188,9474.636058,536.266849
141.661033,8142.265362,13027.624579,-11184.994271
141.661342,1480.411884,5329.482782,-3830.477490
141.661652,1702.473667,7846.182985,1455.581446
141.661961,3552.988522,5255.462188,3907.087040
141.662271,3182.885551,9696.697840,7890.783629
141.662580,222.061783,3404.947333,8503.660028
141.662889,740.205942,1702.473667,8120.612279
141.663199,1184.329507,9548.656652,2068.457845
141.663508,-3775.050304,9622.677246,-3447.429741
141.663818,-2516.700203,15766.386565,-10035.851024
141.664127,740.205942,19319.375086,-16088.005458
141.664437,2590.720797,18949.272115,-10648.727422
141.664746,-8290.306550,14434.015869,2528.115143
141.665055,-4663.297435,13175.665768,5822.325785
141.665365,3923.091493,4811.338623,-995.924147
141.665674,4737.318029,2146.597232,-536.266849
141.665984,-740.205942,2294.638420,3524.039291
141.666293,-2368.659014,5625.565159,1991.848295
141.666602,6513.812290,7179.997637,-995.924147
141.666912,7254.018232,8364.327145,-1149.143247
141.667221,1776.494261,9474.636058,3370.820191
141.667531,-2294.638420,8660.409521,3217.601092
141.667840,-1184.329507,2664.741391,-1991.848295
141.668150,1924.535449,5847.626942,-3140.991542
141.668459,-2220.617826,2368.659014,-3753.867940
141.668768,-3404.947333,8364.327145,-612.876398
141.669078,-888.247130,16802.674883,2757.943793
141.669387,814.226536,14878.139434,-3217.601092
141.669697,814.226536,16062.468941,-6741.640382
141.670006,1036.288319,12583.501014,2604.724693
141.670316,-4293.194464,11843.295072,2987.772442
141.670625,1998.556043,12509.480420,-3830.477490
141.670934,7550.100608,8142.265362,-8503.660028
141.671244,296.082377,8586.388927,-2451.505594
141.671553,-7105.977043,7179.997637,6894.859482
141.671863,-0.000000,7105.977043,4519.963438
141.672172,4959.379811,11621.233289,-5898.935335
141.672481,518.144159,6217.729913,-3830.477490
141.672791,-2294.638420,5995.668130,-689.485948
141.673100,2812.782580,5551.544565,-4290.134789
141.673410,1924.535449,8586.388927,-4443.353888
141.673719,1776.494261,5995.668130,3370.820191
141.674029,-1184.329507,10732.986159,3677.258390
141.674338,1332.370696,10807.006753,3600.648841
141.674647,-296.082377,7476.080014,612.876398
141.674957,-1184.329507,8142.265362,-2834.553343
141.675266,-3404.947333,11103.089130,-7814.174080
141.675576,-0.000000,14211.954086,-6052.154434
141.675885,-3182.885551,13249.686362,-2911.162892
141.676194,296.082377,10510.924376,-612.876398
141.676504,2146.597232,12953.603985,-1685.410096
141.676813,222.061783,4811.338623,2987.772442
141.677123,-2368.659014,4811.338623,8197.221829
141.677432,-3182.885551,7920.203579,3524.039291
141.677742,5329.482782,8068.244768,-5669.106685
141.678051,4071.132681,13767.830521,-7507.735880
141.678360,222.061783,8216.285956,-536.266849
141.678670,-148.041188,12509.480420,1838.629195
141.678979,-2886.803174,13101.645173,0.000000
141.679289,5625.565159,10510.924376,-2221.676944
141.679598,-962.267725,5921.647536,-1608.800546
141.679907,592.164754,8586.388927,0.000000
141.680217,-2294.638420,7031.956449,3983.696590
141.680526,518.144159,12139.377449,1915.238745
141.680836,2960.823768,8882.471304,-2681.334243
141.681145,-5329.482782,14359.995275,-3370.820191
141.681455,-148.041188,11769.274478,-2068.457845
141.681764,1332.370696,8956.491898,-8350.440928
141.682073,148.041188,11695.253884,-5822.325785
141.682383,-3478.967927,9622.677246,2987.772442
141.682692,-3478.967927,11473.192101,919.314598
141.683002,1258.350101,11103.089130,-2604.724693
141.683311,4811.338623,7772.162391,-6588.421283
141.683621,-0.000000,5403.503377,-1685.410096
141.683930,-1776.494261,6365.771101,4136.915689
141.684239,-444.123565,6809.894666,0.000000
141.684549,2146.597232,7476.080014,-3447.429741
141.684858,2664.741391,4515.256246,919.314598
141.685168,-3182.885551,9252.574275,1532.190996
141.685477,2960.823768,3849.070898,-5515.887586
141.685786,-1258.350101,7772.162391,-2145.067394
141.686096,-2294.638420,10362.883188,919.314598
141.686405,-1998.556043,11621.233289,-536.266849
141.686715,-74.020594,16136.489536,-5056.230287
141.687024,74.020594,13101.645173,-4826.401637
141.687334,-1480.411884,11917.315666,-2834.553343
141.687643,-740.205942,12731.542202,76.609550
141.687952,-4663.297435,9104.533087,1991.848295
141.688262,1850.514855,12805.562797,-2834.553343
141.688571,5699.585753,11251.130318,-8580.269578
141.688881,-0.000000,7105.977043,-3447.429741
141.689190,-2442.679609,7254.018232,4979.620737
141.689499,-888.247130,3182.885551,-919.314598
141.689809,5625.565159,8734.430116,-7584.345430
141.690118,2516.700203,4589.276840,3140.991542
141.690428,-1628.453072,4663.297435,6205.373534
141.690737,-6513.812290,5255.462188,1838.629195
141.691047,9104.533087,10066.800811,-3830.477490
141.691356,-2886.803174,7179.997637,-7584.345430
141.691665,-5255.462188,9104.533087,-1072.533697
141.691975,-3478.967927,16136.489536,5132.839837
141.692284,1776.494261,16876.695478,-4596.572988
141.692594,1110.308913,18061.024985,-8963.317327
141.692903,-4293.194464,14359.995275,1378.971896
141.693212,-2442.679609,13619.789333,-306.438199
141.693522,-3330.926739,12657.521608,-1915.238745
141.693831,-0.000000,11843.295072,-7354.516781
141.694141,592.164754,6365.771101,-9959.241474
141.694450,-222.061783,9178.553681,-2911.162892
141.694760,-2294.638420,7328.038826,5745.716235
141.695069,1480.411884,3404.947333,3064.381992
141.695378,9252.574275,7105.977043,-3677.258390
141.695688,-370.102971,1702.473667,3140.991542
141.695997,-296.082377,2886.803174,4826.401637
141.696307,222.061783,4959.379811,2604.724693
141.696616,5329.482782,7698.141797,-3217.601092
141.696926,-4959.379811,13027.624579,-612.876398
141.697235,-5033.400406,11991.336260,1455.581446
141.697544,-3627.009116,19837.519246,-4596.572988
141.697854,740.205942,16062.468941,-11797.870669
141.698163,-74.020594,17172.777854,-10495.508323
141.698473,-3627.009116,16136.489536,-5822.325785
141.698782,148.041188,11843.295072,995.924147
141.699091,-1554.432478,6809.894666,6052.154434
141.699401,1924.535449,9770.718434,6281.983084
141.699710,148.041188,6513.812290,-2604.724693
141.700020,2072.576638,3108.864956,-2451.505594
141.700329,-1998.556043,5329.482782,-459.657299
141.700639,-592.164754,7402.059420,-4136.915689
141.700948,5033.400406,9178.553681,-9882.631924
141.701257,-0.000000,8808.450710,-7124.688131
141.701567,666.185348,10362.883188,2298.286494
141.701876,-4737.318029,4589.276840,2757.943793
141.702186,5107.421000,8364.327145,1072.533697
141.702495,-592.164754,6809.894666,1608.800546
141.702804,-4737.318029,10658.965565,1225.752797
141.703114,-2220.617826,16062.468941,-5439.278036
141.703423,3108.864956,9400.615463,-8810.098227
141.703733,-6809.894666,13027.624579,-4903.011187
141.704042,-4367.215058,13767.830521,-1915.238745
141.704352,2516.700203,13841.851115,-8656.879127
141.704661,3182.885551,10732.986159,-8810.098227
141.704970,-1702.473667,5107.421000,2374.896044
141.705280,-3108.864956,4959.379811,3677.258390
141.705589,3034.844362,4885.359217,-4136.915689
141.705899,1702.473667,2294.638420,-306.438199
141.706208,1924.535449,4737.318029,4443.353888
141.706517,370.102971,7105.977043,2068.457845
141.706827,-888.247130,7179.997637,1149.143247
141.707136,1184.329507,10214.842000,-2604.724693
141.707446,1554.432478,8660.409521,-11108.384721
141.707755,1036.288319,13619.789333,-6894.859482
141.708065,-7328.038826,13767.830521,2374.896044
141.708374,-3701.029710,13841.851115,-6741.640382
141.708683,6809.894666,15248.242405,-11491.432470
141.708993,-1036.288319,12657.521608,-1608.800546
141.709302,-6661.853478,10288.862594,5592.497135
141.709612,444.123565,11399.171507,383.047749
141.709921,9104.533087,7105.977043,-7124.688131
141.710231,-148.041188,4515.256246,-153.219100
141.710540,-5329.482782,9770.718434,7507.735880
141.710849,592.164754,10214.842000,-2145.067394
141.711159,2368.659014,7254.018232,-6971.469032
141.711468,592.164754,11547.212695,-1762.019645
141.711778,-4811.338623,8068.244768,1991.848295
141.712087,2516.700203,10584.944971,-4903.011187
141.712396,3256.906145,7994.224174,-3830.477490
141.712706,-740.205942,6661.853478,-1302.362347
141.713015,-5847.626942,4663.297435,1991.848295
141.713325,-1850.514855,13915.871710,2145.067394
141.713634,1924.535449,7624.121203,-1378.971896
141.713944,370.102971,10807.006753,-1838.629195
141.714253,148.041188,15766.386565,-3370.820191
141.714562,-3330.926739,11177.109724,-5745.716235
141.714872,4441.235652,13323.706956,-6052.154434
141.715181,-0.000000,5699.585753,-4136.915689
141.715491,-1702.473667,11399.171507,0.000000
141.715800,-6439.791695,7476.080014,10801.946522
141.716109,4589.276840,5255.462188,1915.238745
141.716419,2072.576638,6143.709319,-8733.488677
141.716728,-1258.350101,9326.594869,-1378.971896
141.717038,-2664.741391,7846.182985,1072.533697
141.717347,1184.329507,9474.636058,-8197.221829
141.717657,7254.018232,13323.706956,-4366.744339
141.717966,-3701.029710,10362.883188,5745.716235
141.718275,-2886.803174,11547.212695,6971.469032
141.718585,2368.659014,9992.780217,-459.657299
141.718894,3997.112087,6809.894666,-5209.449386
141.719204,-2072.576638,3775.050304,0.000000
141.719513,-5921.647536,13471.748144,4596.572988
141.719822,1184.329507,13471.748144,-4136.915689
141.720132,148.041188,12731.542202,-6511.811733
141.720441,370.102971,11917.315666,-1072.533697
141.720751,-4145.153275,12879.583391,-1149.143247
141.721060,1406.391290,9918.759623,-7737.564530
141.721370,-74.020594,6735.874072,-5745.716235
141.721679,-814.226536,8734.430116,-1991.848295
141.721988,-3034.844362,8586.388927,-995.924147
141.722298,1332.370696,6217.729913,-2221.676944
141.722607,6291.750507,6291.750507,-5362.668486
141.722917,-1850.514855,5107.421000,1915.238745
141.723226,2516.700203,6661.853478,7584.345430
141.723536,-592.164754,4737.318029,2298.286494
141.723845,2516.700203,3997.112087,-4366.744339
141.724154,-148.041188,8068.244768,-2528.115143
141.724464,-3552.988522,11029.068536,-5209.449386
141.724773,-2516.700203,13989.892304,-4903.011187
141.725083,-1776.494261,16358.551318,-4903.011187
141.725392,4737.318029,16284.530724,-10725.336972
141.725701,-6587.832884,13545.768739,-1532.190996
141.726011,222.061783,14730.098246,1991.848295
141.726320,1258.350101,9178.553681,-4366.744339
141.726630,3701.029710,6587.832884,-6741.640382
141.726939,-1406.391290,4515.256246,2068.457845
141.727249,-1628.453072,6217.729913,3217.601092
141.727558,3182.885551,6883.915261,-7201.297681
141.727867,4293.194464,6587.832884,-6511.811733
141.728177,2146.597232,8438.347739,1072.533697
141.728486,-3701.029710,2738.761985,5898.935335
141.728796,2516.700203,7328.038826,-612.876398
141.729105,370.102971,7328.038826,-2145.067394
141.729414,-2368.659014,5625.565159,-612.876398
141.729724,-1036.288319,10436.903782,76.609550
141.730033,-962.267725,10881.027347,-4366.744339
141.730343,592.164754,17394.839637,-5132.839837
141.730652,-3701.029710,23464.528361,-2681.334243
141.730962,1628.453072,17320.819043,-10342.289223
141.731271,-1110.308913,12953.603985,-7277.907231
141.731580,-814.226536,11547.212695,-2068.457845
141.731890,-1850.514855,5551.544565,153.219100
141.732199,1110.308913,8068.244768,2068.457845
141.732509,2294.638420,3108.864956,4136.915689
141.732818,-4959.379811,3849.070898,3140.991542
141.733128,4293.194464,4293.194464,-4826.401637
141.733437,3997.112087,6217.729913,-7124.688131
141.733746,3108.864956,7476.080014,-3753.867940
141.734056,-3923.091493,7402.059420,2757.943793
141.734365,4293.194464,13101.645173,1302.362347
141.734675,-370.102971,6217.729913,-1072.533697
141.734984,-2294.638420,9918.759623,2451.505594
141.735294,1036.288319,11325.150913,-153.219100
141.735603,-148.041188,9326.594869,-4596.572988
141.735912,-222.061783,16284.530724,-919.314598
141.736222,-5625.565159,15914.427753,-2298.286494
141.736531,3404.947333,14582.057057,-7431.126331
141.736841,-2442.679609,14434.015869,-4443.353888
141.737150,-1702.473667,12805.562797,-4443.353888
141.737460,2738.761985,3256.906145,-4060.306139
141.737769,1110.308913,6217.729913,1072.533697
141.738078,-2220.617826,5921.647536,9193.145976
141.738388,2368.659014,-0.000000,6741.640382
141.738697,7254.018232,7402.059420,-4060.306139
141.739007,1110.308913,6217.729913,-2451.505594
141.739316,222.061783,7846.182985,6358.592633
