#time,accel_x,accel_y,accel_z
151.267350,-0.000000,10807.006753,-766.095498
151.267660,222.061783,10362.883188,-383.047749
151.267969,-74.020594,9178.553681,-766.095498
151.268279,888.247130,8586.388927,-2298.286494
151.268588,1036.288319,8882.471304,-1532.190996
151.268897,-0.000000,8438.347739,-1608.800546
151.269207,-0.000000,10362.883188,-306.438199
151.269516,-74.020594,10362.883188,-306.438199
151.269826,296.082377,9104.533087,-1762.019645
151.270135,-962.267725,10140.821405,-1072.533697
151.270445,-962.267725,9030.512492,-1532.190996
151.270754,518.144159,9918.759623,-153.219100
151.271064,-0.000000,9770.718434,0.000000
151.271373,-222.061783,9474.636058,-612.876398
151.271683,666.185348,9326.594869,-2068.457845
151.271992,148.041188,9400.615463,-2221.676944
151.272302,-0.000000,9400.615463,-536.266849
151.272611,148.041188,8216.285956,612.876398
151.272921,370.102971,9844.739029,2451.505594
151.273230,1998.556043,7254.018232,1225.752797
151.273539,5551.544565,7402.059420,689.485948
151.273849,1480.411884,5995.668130,7660.954980
151.274158,296.082377,7105.977043,11644.651570
151.274468,148.041188,6291.750507,13483.280765
151.274777,7920.203579,8882.471304,5439.278036
151.275087,4885.359217,6217.729913,2604.724693
151.275396,-2146.597232,9178.553681,11031.775171
151.275706,-2294.638420,11991.336260,16547.662757
151.276015,2146.597232,11325.150913,6435.202183
151.276325,1480.411884,12065.356855,4903.011187
151.276634,-2368.659014,12731.542202,11491.432470
151.276944,-11621.233289,16728.654289,10801.946522
151.277253,14063.912898,23686.590144,-6665.030833
151.277562,-74.020594,3330.926739,459.657299
151.277872,-296.082377,15100.201217,19612.044749
151.278181,-20725.766376,8808.450710,32252.620466
151.278491,4219.173869,19171.333898,3677.258390
151.278800,5477.523971,4219.173869,-4366.744339
151.279110,-5329.482782,10288.862594,5132.839837
151.279419,-8734.430116,8734.430116,8580.269578
151.279729,-1258.350101,10288.862594,76.609550
151.280038,-666.185348,9400.615463,919.314598
151.280348,-6291.750507,4885.359217,16777.491406
151.280657,5107.421000,5255.462188,13253.452115
151.280967,-6957.935855,-0.000000,13406.671215
151.281276,3330.926739,5329.482782,14709.033562
151.281586,296.082377,6217.729913,9499.584175
151.281895,-1480.411884,5625.565159,1532.190996
151.282204,-74.020594,12213.398043,6052.154434
151.282514,1258.350101,12879.583391,-919.314598
151.282823,4145.153275,13175.665768,-6281.983084
151.283133,-0.000000,12805.562797,17160.539155
151.283442,1036.288319,9326.594869,24515.055936
151.283752,1776.494261,4885.359217,17466.977354
151.284061,3182.885551,6661.853478,11108.384721
151.284371,-3108.864956,5255.462188,8503.660028
151.284680,4219.173869,13101.645173,-153.219100
151.284990,7328.038826,14730.098246,-6052.154434
151.285299,1924.535449,17468.860231,4519.963438
151.285609,-5477.523971,15470.304188,18692.730151
151.285918,-6661.853478,12361.439231,15092.081311
151.286227,2812.782580,10658.965565,3140.991542
151.286537,3701.029710,7105.977043,-4979.620737
151.286846,2590.720797,7550.100608,-1149.143247
151.287156,666.185348,8364.327145,11644.651570
151.287465,-592.164754,11621.233289,16394.443657
151.287775,1628.453072,7994.224174,9882.631924
151.288084,4441.235652,5847.626942,3447.429741
151.288394,-2442.679609,1480.411884,3907.087040
151.288703,-7254.018232,3108.864956,7354.516781
151.289013,-2812.782580,8364.327145,1608.800546
151.289322,7994.224174,9252.574275,-8733.488677
151.289632,6883.915261,8290.306550,-1991.848295
151.289941,-3627.009116,7550.100608,17620.196454
151.290251,-7402.059420,7846.182985,24208.617737
151.290560,1850.514855,10658.965565,10572.117872
151.290869,5551.544565,9326.594869,-2834.553343
151.291179,-2294.638420,11103.089130,-1991.848295
151.291488,-4959.379811,12139.377449,1302.362347
151.291798,1480.411884,14878.139434,-6281.983084
151.292107,8734.430116,14730.098246,-5822.325785
151.292417,740.205942,10510.924376,13330.061665
151.292726,-4737.318029,6513.812290,29341.457573
151.293036,3108.864956,5847.626942,20531.359346
151.293345,6143.709319,3552.988522,4826.401637
151.293655,-2516.700203,4589.276840,7584.345430
151.293964,1406.391290,6217.729913,4596.572988
151.294274,5921.647536,4515.256246,-7584.345430
151.294583,-740.205942,8882.471304,5898.935335
151.294893,-11695.253884,-6217.729913,21450.673944
151.295202,-12805.562797,9548.656652,14709.033562
151.295511,13471.748144,13841.851115,7048.078582
151.295821,-23686.590144,4737.318029,14709.033562
151.296130,13693.809927,20355.663405,689.485948
151.296440,2368.659014,2442.679609,-12717.185267
151.296749,-3108.864956,17542.880825,4903.011187
151.297059,-9178.553681,11843.295072,31333.305868
151.297368,-444.123565,13989.892304,12487.356617
151.297678,-740.205942,10066.800811,1225.752797
151.297987,-6661.853478,9474.636058,15321.909960
151.298297,6661.853478,11769.274478,4596.572988
151.298606,-2442.679609,4885.359217,-5592.497135
151.298916,666.185348,14508.036463,7814.174080
151.299225,-3997.112087,14359.995275,20607.968896
151.299534,2590.720797,12805.562797,995.924147
151.299844,7698.141797,9992.780217,1915.238745
151.300153,-9400.615463,8586.388927,24438.446386
151.300463,-0.000000,8586.388927,20531.359346
151.300772,5255.462188,2146.597232,2911.162892
151.301082,3849.070898,6883.915261,8886.707777
151.301391,-1998.556043,148.041188,17007.320056
151.301701,6143.709319,5773.606348,2298.286494
151.302010,-2442.679609,9844.739029,10035.851024
151.302320,-7105.977043,13693.809927,22293.378992
151.302629,2220.617826,13175.665768,8886.707777
151.302939,1924.535449,9252.574275,-6511.811733
151.303248,-6735.874072,6957.935855,8427.050478
151.303558,-9178.553681,9030.512492,15858.176809
151.303867,592.164754,13175.665768,2987.772442
151.304176,2886.803174,11399.171507,-1149.143247
151.304486,4071.132681,16062.468941,9652.803275
151.304795,-3923.091493,13915.871710,15628.348159
151.305105,-3404.947333,11325.150913,9346.365076
151.305414,-2368.659014,12213.398043,6511.811733
151.305724,1702.473667,7846.182985,2681.334243
151.306033,4145.153275,8438.347739,-3064.381992
151.306343,-4959.379811,7105.977043,4826.401637
151.306652,1036.288319,9622.677246,12104.308868
151.306962,-0.000000,6069.688724,9806.022374
151.307271,6957.935855,2368.659014,4979.620737
151.307581,-3478.967927,1184.329507,13866.328514
151.307890,-7328.038826,1850.514855,16930.710506
151.308200,6587.832884,10436.903782,995.924147
151.308509,10066.800811,7179.997637,-7814.174080
151.308818,-0.000000,11251.130318,8197.221829
151.309128,-1850.514855,12435.459826,20914.407095
151.309437,888.247130,7402.059420,14632.424012
151.309747,7476.080014,9030.512492,6128.763984
151.310056,-8882.471304,7031.956449,14862.252661
151.310366,-2738.761985,13027.624579,8580.269578
151.310675,2294.638420,9104.533087,-10265.679673
151.310985,5477.523971,16062.468941,-12104.308868
151.311294,-4885.359217,13545.768739,11414.822920
151.311604,-962.267725,15544.324782,17850.025103
151.311913,8512.368333,11621.233289,7201.297681
151.312223,1258.350101,9030.512492,6281.983084
151.312532,-4145.153275,8068.244768,13942.938064
151.312841,-2442.679609,6365.771101,9576.193725
151.313151,10436.903782,7031.956449,-7354.516781
151.313460,4663.297435,4293.194464,-1762.019645
151.313770,-3923.091493,7254.018232,14632.424012
151.314079,-962.267725,5033.400406,19228.997000
151.314389,2664.741391,4071.132681,12180.918418
151.314698,1628.453072,7031.956449,7124.688131
151.315008,-5625.565159,4367.215058,4903.011187
151.315317,3182.885551,12879.583391,-383.047749
151.315627,-7994.224174,4959.379811,229.828649
151.315936,1110.308913,19763.498651,-5056.230287
151.316246,-1628.453072,13915.871710,-4290.134789
151.316555,-5625.565159,15248.242405,919.314598
151.316865,-10732.986159,18653.189738,11721.261119
151.317174,-4145.153275,19023.292709,3217.601092
151.317483,6143.709319,12583.501014,-11491.432470
151.317793,-1036.288319,5995.668130,536.266849
151.318102,2368.659014,10584.944971,5439.278036
151.318412,3478.967927,888.247130,842.705048
151.318721,1554.432478,2738.761985,12640.575717
151.319031,-3552.988522,5255.462188,16930.710506
151.319340,1924.535449,-814.226536,2451.505594
151.319650,7031.956449,3701.029710,-7814.174080
151.319959,-6735.874072,-592.164754,3983.696590
151.320269,2516.700203,3478.967927,8656.879127
151.320578,6439.791695,5181.441594,5975.544884
151.320888,-4737.318029,11547.212695,10035.851024
151.321197,-1480.411884,14285.974681,9729.412825
151.321507,-370.102971,11917.315666,-3830.477490
151.321816,592.164754,17987.004391,-13330.061665
151.322125,-888.247130,22058.137072,-4060.306139
151.322435,-1036.288319,18801.230927,-1608.800546
151.322744,2664.741391,13323.706956,-4979.620737
151.323054,-2220.617826,10066.800811,7048.078582
151.323363,-1036.288319,10807.006753,11261.603821
151.323673,3034.844362,5921.647536,0.000000
151.323982,2072.576638,12065.356855,-1225.752797
151.324292,2220.617826,8660.409521,5669.106685
151.324601,5847.626942,7105.977043,0.000000
151.324911,-1258.350101,6143.709319,1302.362347
151.325220,-6069.688724,6661.853478,7507.735880
151.325530,-3478.967927,4441.235652,1149.143247
151.325839,4589.276840,5921.647536,-12257.527968
151.326149,-1628.453072,11843.295072,-4979.620737
151.326458,-4145.153275,16728.654289,4136.915689
151.326768,5181.441594,9918.759623,842.705048
151.327077,-1702.473667,8586.388927,1149.143247
151.327387,-5181.441594,9622.677246,3907.087040
151.327696,2664.741391,5921.647536,-4826.401637
151.328005,1406.391290,13471.748144,-10342.289223
151.328315,-6291.750507,8586.388927,4136.915689
151.328624,1184.329507,8512.368333,5056.230287
151.328934,2442.679609,3701.029710,-2681.334243
151.329243,-0.000000,6291.750507,-1225.752797
151.329553,1776.494261,4737.318029,4213.525239
151.329862,592.164754,-1924.535449,306.438199
151.330172,5551.544565,13471.748144,-1455.581446
151.330481,1776.494261,16136.489536,7507.735880
151.330791,3701.029710,9030.512492,7431.126331
151.331100,-888.247130,13841.851115,1378.971896
151.331410,-1628.453072,12435.459826,-1225.752797
151.331719,5329.482782,14878.139434,-9039.926876
151.332029,5107.421000,18505.148550,-11338.213370
151.332338,-4219.173869,19023.292709,1455.581446
151.332648,4293.194464,11917.315666,7431.126331
151.332957,-3256.906145,8586.388927,-919.314598
151.333267,-4441.235652,8586.388927,-2145.067394
151.333576,-2368.659014,7402.059420,2145.067394
151.333885,4293.194464,8586.388927,-11184.994271
151.334195,1480.411884,8068.244768,-12027.699319
151.334504,-1850.514855,10510.924376,8886.707777
151.334814,-0.000000,-814.226536,11261.603821
151.335123,296.082377,2220.617826,-766.095498
151.335433,-7476.080014,4219.173869,10648.727422
151.335742,-222.061783,6069.688724,8120.612279
151.336052,4145.153275,15026.180623,-22982.864940
151.336361,-1406.391290,11769.274478,-20148.311597
151.336671,-1850.514855,18875.251521,1072.533697
151.336980,-4737.318029,13175.665768,-2221.676944
151.337290,-5403.503377,7772.162391,-4290.134789
151.337599,-3256.906145,10436.903782,9116.536426
151.337909,1258.350101,4145.153275,-3447.429741
151.338218,7179.997637,2442.679609,-14785.643111
151.338528,-592.164754,12509.480420,5056.230287
151.338837,1702.473667,5995.668130,11644.651570
151.339147,9548.656652,5477.523971,-9346.365076
151.339456,-1776.494261,8290.306550,2528.115143
151.339765,-7105.977043,5699.585753,17390.367805
151.340075,6217.729913,8512.368333,-10878.556072
151.340384,-0.000000,9252.574275,-15245.300410
151.340694,1554.432478,14952.160028,2834.553343
151.341003,-2812.782580,10140.821405,-3524.039291
151.341313,-1110.308913,7254.018232,-7124.688131
151.341622,-5995.668130,18727.210333,11108.384721
151.341932,-3997.112087,15026.180623,153.219100
151.342241,11399.171507,13767.830521,-23442.522239
151.342551,2442.679609,19837.519246,-4903.011187
151.342860,-8956.491898,9548.656652,10189.070123
151.343170,3627.009116,3108.864956,-2374.896044
151.343479,-0.000000,5921.647536,-2145.067394
151.343789,2220.617826,1628.453072,1991.848295
151.344098,-2886.803174,2590.720797,-4596.572988
151.344408,1850.514855,10807.006753,1149.143247
151.344717,-222.061783,12805.562797,3064.381992
151.345027,6883.915261,8142.265362,-5286.058936
151.345336,-518.144159,1184.329507,2681.334243
151.345645,-6439.791695,8142.265362,9269.755526
151.345955,-1776.494261,8068.244768,-1915.238745
151.346264,8734.430116,12805.562797,-16624.272307
151.346574,-1480.411884,18061.024985,-1378.971896
151.346883,-1258.350101,18801.230927,5669.106685
151.347193,2294.638420,12361.439231,-6665.030833
151.347502,-370.102971,10214.842000,-5286.058936
151.347812,-4515.256246,6439.791695,5745.716235
151.348121,666.185348,3923.091493,2145.067394
151.348431,3552.988522,11177.109724,-3677.258390
151.348740,3182.885551,5107.421000,0.000000
151.349050,4737.318029,7698.141797,-153.219100
151.349359,-3108.864956,3256.906145,5669.106685
151.349669,2072.576638,6957.935855,7584.345430
151.349978,4071.132681,8068.244768,-3140.991542
151.350288,-6439.791695,7254.018232,-4979.620737
151.350597,3849.070898,17320.819043,0.000000
151.350906,-518.144159,10881.027347,-1532.190996
151.351216,2738.761985,13175.665768,-6971.469032
151.351525,-6587.832884,14730.098246,3677.258390
151.351835,-5551.544565,10436.903782,3064.381992
151.352144,518.144159,11621.233289,-10112.460574
151.352454,-3552.988522,14582.057057,-8656.879127
151.352763,1110.308913,15470.304188,-5362.668486
151.353073,-5107.421000,9992.780217,-6511.811733
151.353382,-2294.638420,7328.038826,383.047749
151.353692,2738.761985,814.226536,1532.190996
151.354001,3108.864956,2220.617826,-3983.696590
151.354311,-3552.988522,-888.247130,7584.345430
151.354620,-7031.956449,6957.935855,18769.339701
151.354930,2886.803174,8956.491898,-4519.963438
151.355239,3775.050304,3182.885551,-19612.044749
151.355549,-3182.885551,13323.706956,-4290.134789
151.355858,-8142.265362,9474.636058,-1072.533697
151.356168,2146.597232,10510.924376,-13406.671215
151.356477,740.205942,18209.066173,-5132.839837
151.356786,1554.432478,12953.603985,5439.278036
151.357096,5699.585753,8956.491898,-2451.505594
151.357405,-2738.761985,9326.594869,2757.943793
151.357715,296.082377,9622.677246,7507.735880
151.358024,4441.235652,11473.192101,-5745.716235
151.358334,5477.523971,7254.018232,-13789.718964
151.358643,962.267725,9474.636058,-6205.373534
151.358953,-1258.350101,6217.729913,-689.485948
151.359262,-444.123565,6587.832884,-4060.306139
151.359572,814.226536,10066.800811,3140.991542
151.359881,4663.297435,6513.812290,2374.896044
151.360191,3997.112087,6217.729913,-5822.325785
151.360500,-1332.370696,10955.047942,4366.744339
151.360810,-5847.626942,9918.759623,7967.393179
151.361119,5477.523971,13915.871710,-9806.022374
151.361429,3256.906145,14878.139434,-15628.348159
151.361738,-592.164754,8586.388927,-4136.915689
151.362048,-6365.771101,12287.418637,-229.828649
151.362357,-6439.791695,10362.883188,2528.115143
151.362666,8364.327145,8068.244768,-383.047749
151.362976,1554.432478,5255.462188,-2451.505594
151.363285,-11399.171507,1702.473667,8273.831378
151.363595,2812.782580,8734.430116,6665.030833
151.363904,2812.782580,2146.597232,-10495.508323
151.364214,8068.244768,11473.192101,-14632.424012
151.364523,-1110.308913,11769.274478,7277.907231
151.364833,-7031.956449,6809.894666,7737.564530
151.365142,2220.617826,11177.109724,-3140.991542
151.365452,-5921.647536,11399.171507,2068.457845
151.365761,4293.194464,17394.839637,-3064.381992
151.366071,6809.894666,11843.295072,-15245.300410
151.366380,-4515.256246,14359.995275,-153.219100
151.366690,4737.318029,12065.356855,10265.679673
151.366999,4589.276840,8882.471304,-3524.039291
151.367309,-1554.432478,6587.832884,1991.848295
151.367618,-3701.029710,7624.121203,15858.176809
151.367928,-2146.597232,4885.359217,-3600.648841
151.368237,2220.617826,9770.718434,-14709.033562
151.368546,5329.482782,13693.809927,-2834.553343
151.368856,-1776.494261,4811.338623,-2681.334243
151.369165,-444.123565,12139.377449,-5515.887586
151.369475,-1628.453072,11917.315666,5975.544884
151.369784,-0.000000,5847.626942,1378.971896
151.370094,2442.679609,8956.491898,2068.457845
151.370403,-5033.400406,10288.862594,10342.289223
151.370713,592.164754,7254.018232,306.438199
151.371022,5773.606348,9548.656652,-13942.938064
151.371332,-8512.368333,9178.553681,3677.258390
151.371641,-2294.638420,9548.656652,5515.887586
151.371951,296.082377,10584.944971,-11031.775171
151.372260,296.082377,13989.892304,-10572.117872
151.372570,-4441.235652,14508.036463,6205.373534
151.372879,-1776.494261,8142.265362,-2451.505594
151.373189,-1924.535449,5329.482782,-10725.336972
151.373498,2442.679609,10362.883188,-2145.067394
151.373808,2220.617826,4737.318029,-1149.143247
151.374117,-518.144159,3627.009116,-612.876398
151.374426,370.102971,10288.862594,11568.042020
151.374736,-1332.370696,8290.306550,2987.772442
151.375045,4219.173869,6513.812290,-9193.145976
151.375355,-2294.638420,8956.491898,-383.047749
151.375664,-4663.297435,13027.624579,1378.971896
151.375974,3627.009116,15026.180623,-13253.452115
151.376283,962.267725,13175.665768,-13942.938064
151.376593,-2220.617826,16728.654289,76.609550
151.376902,-3256.906145,8734.430116,919.314598
151.377212,-1184.329507,10658.965565,-2987.772442
151.377521,4441.235652,13619.789333,-3447.429741
151.377831,1110.308913,2664.741391,-4749.792088
151.378140,3108.864956,4885.359217,-1378.971896
151.378450,814.226536,10955.047942,7124.688131
151.378759,3627.009116,3256.906145,3370.820191
151.379069,3849.070898,6069.688724,-4673.182538
151.379378,-3849.070898,5773.606348,3677.258390
151.379688,-3775.050304,6587.832884,3677.258390
151.379997,3627.009116,12287.418637,-15628.348159
151.380306,3108.864956,10510.924376,-12947.013916
151.380616,-3108.864956,12583.501014,1915.238745
151.380925,-2738.761985,7179.997637,3217.601092
151.381235,2368.659014,8068.244768,-3907.087040
151.381544,-1184.329507,15174.221811,-153.219100
151.381854,-3256.906145,12805.562797,2221.676944
151.382163,3108.864956,12213.398043,-3983.696590
151.382473,4515.256246,14063.912898,-4903.011187
151.382782,4145.153275,8364.327145,-7507.735880
151.383092,-3775.050304,6883.915261,-3370.820191
151.383401,-3256.906145,10288.862594,5515.887586
151.383711,5181.441594,5773.606348,-4903.011187
151.384020,3552.988522,6217.729913,-10189.070123
151.384330,-5403.503377,4737.318029,8350.440928
151.384639,-1850.514855,7031.956449,9959.241474
151.384949,8882.471304,5255.462188,-8427.050478
151.385258,4589.276840,9844.739029,-9959.241474
151.385568,-4663.297435,11177.109724,4290.134789
151.385877,-3404.947333,11917.315666,1762.019645
151.386186,4811.338623,17616.901420,-9959.241474
151.386496,1258.350101,16506.592507,-3677.258390
151.386805,-3478.967927,11843.295072,2528.115143
151.387115,-6217.729913,6291.750507,-3217.601092
151.387424,-592.164754,10140.821405,-3217.601092
151.387734,8512.368333,7254.018232,-10725.336972
151.388043,-2886.803174,4737.318029,-8963.317327
151.388353,-6809.894666,8438.347739,10189.070123
151.388662,3478.967927,7846.182985,6281.983084
151.388972,7698.141797,4811.338623,-8350.440928
151.389281,-5181.441594,4071.132681,5132.839837
151.389591,-7105.977043,7402.059420,15475.129060
151.389900,1406.391290,6661.853478,-6205.373534
151.390210,4737.318029,14359.995275,-18769.339701
151.390519,592.164754,17912.983796,-4903.011187
151.390829,-6587.832884,7994.224174,5592.497135
151.391138,-0.000000,16580.613101,-3140.991542
151.391448,-3108.864956,18357.107362,-3830.477490
151.391757,4959.379811,10362.883188,-3294.210641
151.392066,-4071.132681,13249.686362,-4673.182538
151.392376,-5625.565159,8364.327145,2451.505594
151.392685,8142.265362,5403.503377,-2987.772442
151.392995,5477.523971,7698.141797,-11568.042020
151.393304,-8438.347739,4515.256246,7431.126331
151.393614,-2516.700203,7698.141797,16471.053207
151.393923,2072.576638,8512.368333,-6435.202183
151.394233,7550.100608,9696.697840,-16317.834107
151.394542,-666.185348,14211.954086,-229.828649
151.394852,-7402.059420,5477.523971,3140.991542
151.395161,3034.844362,9622.677246,-5898.935335
151.395471,3627.009116,15100.201217,-5515.887586
151.395780,-1258.350101,8142.265362,-2834.553343
151.396090,-0.000000,11843.295072,229.828649
151.396399,-2738.761985,10955.047942,7814.174080
151.396709,4293.194464,10362.883188,-229.828649
151.397018,-370.102971,12879.583391,-7814.174080
151.397328,-3701.029710,9770.718434,-4826.401637
151.397637,5255.462188,9030.512492,-9499.584175
151.397946,3182.885551,9696.697840,-13483.280765
151.398256,-3034.844362,12287.418637,2298.286494
151.398565,-0.000000,12213.398043,9116.536426
151.398875,5255.462188,666.185348,153.219100
151.399184,5847.626942,3627.009116,-2068.457845
151.399494,-6883.915261,6439.791695,8273.831378
151.399803,-5403.503377,4663.297435,6435.202183
151.400113,7476.080014,12731.542202,-12257.527968
151.400422,6439.791695,13175.665768,-12180.918418
151.400732,-4145.153275,13545.768739,-1072.533697
151.401041,-9474.636058,17172.777854,76.609550
151.401351,-370.102971,11769.274478,-4213.525239
151.401660,11473.192101,9622.677246,-12104.308868
151.401970,-3923.091493,14582.057057,-4290.134789
151.402279,-6069.688724,8956.491898,11338.213370
151.402589,5699.585753,6365.771101,229.828649
151.402898,3330.926739,7550.100608,-10035.851024
151.403208,-3775.050304,8216.285956,5515.887586
151.403517,-2220.617826,6365.771101,9652.803275
151.403826,2442.679609,2368.659014,-7354.516781
151.404136,2960.823768,10510.924376,-8656.879127
151.404445,-4219.173869,11251.130318,1685.410096
151.404755,-3256.906145,6957.935855,-383.047749
151.405064,1406.391290,8364.327145,-3600.648841
151.405374,-592.164754,9548.656652,-612.876398
151.405683,-1924.535449,9548.656652,-3064.381992
151.405993,148.041188,9252.574275,-612.876398
151.406302,-1480.411884,8512.368333,3524.039291
151.406612,592.164754,10807.006753,-229.828649
151.406921,-888.247130,10066.800811,-3217.601092
151.407231,-6439.791695,9696.697840,229.828649
151.407540,3997.112087,11917.315666,-7201.297681
151.407850,2886.803174,7550.100608,-13406.671215
151.408159,-1332.370696,8290.306550,-3753.867940
151.408469,-3552.988522,9400.615463,6741.640382
151.408778,3182.885551,-222.061783,5209.449386
151.409088,518.144159,5033.400406,6741.640382
151.409397,-7476.080014,6291.750507,7354.516781
151.409706,5847.626942,5033.400406,-5056.230287
151.410016,6069.688724,9400.615463,-8580.269578
151.410325,814.226536,9474.636058,919.314598
151.410635,-1036.288319,17542.880825,6358.592633
151.410944,-4293.194464,12583.501014,1838.629195
151.411254,-2072.576638,11843.295072,-5975.544884
151.411563,-0.000000,15026.180623,-7584.345430
151.411873,-296.082377,10436.903782,-9269.755526
151.412182,1184.329507,15396.283594,-7354.516781
151.412492,888.247130,16358.551318,995.924147
151.412801,-0.000000,6957.935855,5592.497135
151.413111,-5625.565159,962.267725,6358.592633
151.413420,-1776.494261,3478.967927,7277.907231
151.413730,10436.903782,5995.668130,-5745.716235
151.414039,4589.276840,8586.388927,-10342.289223
151.414349,-5255.462188,4441.235652,9039.926876
151.414658,1702.473667,9622.677246,9576.193725
151.414968,4589.276840,4441.235652,-6741.640382
151.415277,-962.267725,6661.853478,-1915.238745
151.415586,-4959.379811,12731.542202,12563.966167
151.415896,-2294.638420,7179.997637,153.219100
151.416205,7698.141797,15470.304188,-14325.985813
151.416515,-2368.659014,18653.189738,-7048.078582
151.416824,-1702.473667,11917.315666,-2145.067394
151.417134,-3849.070898,11251.130318,-2757.943793
151.417443,-222.061783,16728.654289,-2681.334243
151.417753,5699.585753,12361.439231,-1991.848295
151.418062,5181.441594,6883.915261,-3524.039291
151.418372,-1702.473667,5551.544565,7890.783629
151.418681,3552.988522,2146.597232,13176.842566
151.418991,-1480.411884,1998.556043,2298.286494
151.419300,-2664.741391,1480.411884,689.485948
151.419610,4959.379811,5625.565159,-1225.752797
151.419919,-1776.494261,4885.359217,-7277.907231
151.420229,-0.000000,14952.160028,-6128.763984
151.420538,3627.009116,18061.024985,2298.286494
151.420848,-2738.761985,7846.182985,2374.896044
151.421157,-0.000000,15470.304188,3677.258390
151.421467,-6365.771101,12435.459826,8733.488677
151.421777,-1998.556043,12509.480420,1991.848295
151.422086,5773.606348,20355.663405,-13789.718964
151.422396,2368.659014,12065.356855,-14019.547613
151.422705,-1406.391290,11399.171507,919.314598
151.423015,-7846.182985,9400.615463,3370.820191
151.423325,-2220.617826,6365.771101,1225.752797
151.423634,3404.947333,3923.091493,0.000000
151.423944,-222.061783,5847.626942,0.000000
151.424254,-2368.659014,2220.617826,5286.058936
151.424563,5625.565159,3849.070898,2221.676944
151.424873,2146.597232,2590.720797,-2757.943793
151.425183,3849.070898,6809.894666,-536.266849
151.425492,-5477.523971,9770.718434,7354.516781
151.425802,-7031.956449,6883.915261,5132.839837
151.426112,6069.688724,15692.365970,-8580.269578
151.426421,-0.000000,15618.345376,-10035.851024
151.426731,-4367.215058,14359.995275,-1915.238745
151.427040,-2294.638420,14952.160028,-3677.258390
151.427350,-1628.453072,15322.262999,-9116.536426
151.427660,2516.700203,13915.871710,-10418.898773
151.427969,444.123565,13767.830521,-4366.744339
151.428279,-0.000000,7920.203579,3447.429741
151.428589,6513.812290,5995.668130,7431.126331
151.428898,5255.462188,1406.391290,7201.297681
151.429208,-5477.523971,-444.123565,5975.544884
151.429518,-222.061783,3849.070898,4213.525239
151.429827,1924.535449,-296.082377,-3907.087040
151.430137,6735.874072,12287.418637,-11644.651570
151.430446,518.144159,15618.345376,-3524.039291
151.430756,-1924.535449,7105.977043,6741.640382
151.431066,-0.000000,16062.468941,5362.668486
151.431375,-2738.761985,12953.603985,612.876398
151.431685,-3997.112087,11399.171507,2451.505594
151.431995,-0.000000,15174.221811,-4749.792088
151.432304,740.205942,11991.336260,-15321.909960
151.432614,4959.379811,13767.830521,-8120.612279
151.432924,-6883.915261,13175.665768,4136.915689
151.433233,-2960.823768,8068.244768,3983.696590
151.433543,-518.144159,8290.306550,1915.238745
151.433852,-74.020594,2294.638420,2145.067394
151.434162,2220.617826,3997.112087,-7201.297681
151.434472,3478.967927,2294.638420,0.000000
151.434781,1110.308913,2886.803174,5286.058936
151.435091,148.041188,4737.318029,1685.410096
151.435401,2738.761985,2220.617826,1915.238745
151.435710,-4441.235652,7402.059420,3370.820191
151.436020,-1184.329507,16950.716072,-2451.505594
151.436330,6365.771101,17394.839637,-12257.527968
151.436639,4589.276840,20133.601622,-10878.556072
151.436949,-5773.606348,19689.478057,-3983.696590
151.437258,-2664.741391,10732.986159,-459.657299
151.437568,7105.977043,13767.830521,-5515.887586
151.437878,-3478.967927,8290.306550,-2298.286494
151.438187,-666.185348,8512.368333,7660.954980
151.438497,7402.059420,9326.594869,1532.190996
151.438807,5995.668130,1702.473667,-6358.592633
151.439116,-2146.597232,6217.729913,6435.202183
151.439426,-4737.318029,3034.844362,11568.042020
151.439736,-592.164754,2590.720797,-1302.362347
151.440045,6291.750507,11547.212695,-9882.631924
151.440355,-4145.153275,10510.924376,-7584.345430
151.440664,4737.318029,8216.285956,-3447.429741
151.440974,-1480.411884,11473.192101,1225.752797
151.441284,-6439.791695,9992.780217,11491.432470
151.441593,-1110.308913,11991.336260,11414.822920
151.441903,-0.000000,8808.450710,-2374.896044
151.442213,-518.144159,13323.706956,-13253.452115
151.442522,5995.668130,14582.057057,-6052.154434
151.442832,-3849.070898,9844.739029,-9193.145976
151.443142,-1924.535449,11547.212695,-6205.373534
151.443451,-592.164754,11991.336260,5975.544884
151.443761,-1702.473667,3330.926739,5975.544884
151.444071,962.267725,6439.791695,-2451.505594
151.444380,1554.432478,3923.091493,2068.457845
151.444690,3552.988522,5403.503377,689.485948
151.444999,5255.462188,4219.173869,-4673.182538
151.445309,-1258.350101,6661.853478,1455.581446
151.445619,-6291.750507,10584.944971,10801.946522
151.445928,-1998.556043,8586.388927,1838.629195
151.446238,1258.350101,19171.333898,-10035.851024
151.446548,4737.318029,19911.539840,-7890.783629
151.446857,-4367.215058,12287.418637,-3447.429741
151.447167,-3923.091493,15396.283594,-4366.744339
151.447477,2368.659014,16136.489536,-4749.792088
151.447786,1776.494261,7920.203579,-2298.286494
151.448096,-4737.318029,6143.709319,3753.867940
151.448405,-1998.556043,5477.523971,6665.030833
151.448715,4737.318029,1850.514855,-2374.896044
151.449025,2812.782580,3627.009116,-1532.190996
151.449334,-7328.038826,-0.000000,10801.946522
151.449644,888.247130,5773.606348,9729.412825
151.449954,1110.308913,11325.150913,-6741.640382
151.450263,-148.041188,8364.327145,-9576.193725
151.450573,-0.000000,15396.283594,-2757.943793
151.450883,-2368.659014,8660.409521,-1608.800546
151.451192,518.144159,14582.057057,-5592.497135
151.451502,3182.885551,13693.809927,1149.143247
151.451811,-6439.791695,9992.780217,5132.839837
151.452121,-1628.453072,11769.274478,4213.525239
151.452431,1702.473667,10584.944971,-2911.162892
151.452740,5995.668130,9696.697840,-12947.013916
151.453050,-2516.700203,9770.718434,-6511.811733
151.453360,518.144159,10140.821405,5362.668486
151.453669,3330.926739,8586.388927,1149.143247
151.453979,3182.885551,7179.997637,-2298.286494
151.454289,-4737.318029,6661.853478,9039.926876
151.454598,-0.000000,4737.318029,1532.190996
151.454908,4071.132681,1776.494261,-7201.297681
151.455217,1406.391290,6957.935855,-2834.553343
151.455527,-518.144159,8216.285956,4213.525239
151.455837,-3478.967927,10807.006753,2145.067394
151.456146,-1628.453072,17987.004391,-3217.601092
151.456456,6217.729913,15618.345376,-6741.640382
151.456766,-962.267725,14508.036463,-9116.536426
151.457075,-6439.791695,13323.706956,-2451.505594
151.457385,-1554.432478,11769.274478,383.047749
151.457695,6217.729913,11843.295072,-8963.317327
151.458004,-1628.453072,5107.421000,-4366.744339
151.458314,-9622.677246,3182.885551,12947.013916
151.458623,5625.565159,3256.906145,2681.334243
151.458933,8512.368333,2294.638420,-10878.556072
151.459243,-5625.565159,3330.926739,5822.325785
151.459552,-4885.359217,7179.997637,14938.862211
151.459862,222.061783,3256.906145,-383.047749
151.460172,5921.647536,15100.201217,-14632.424012
151.460481,518.144159,11843.295072,-2528.115143
151.460791,-5033.400406,10881.027347,766.095498
151.461101,814.226536,16580.613101,-4673.182538
151.461410,2294.638420,14804.118840,-1072.533697
151.461720,-4293.194464,13027.624579,612.876398
151.462030,-2442.679609,12731.542202,-1762.019645
151.462339,-2146.597232,9400.615463,-2221.676944
151.462649,4737.318029,9622.677246,-5669.106685
151.462958,-3923.091493,9992.780217,-8120.612279
151.463268,-2146.597232,6439.791695,-306.438199
151.463578,6439.791695,8142.265362,229.828649
151.463887,4663.297435,3478.967927,-3983.696590
151.464197,-6513.812290,5033.400406,9729.412825
151.464507,1480.411884,2664.741391,12717.185267
151.464816,-3997.112087,1332.370696,919.314598
151.465126,2294.638420,9474.636058,-5286.058936
151.465436,-0.000000,9844.739029,-5056.230287
151.465745,-3849.070898,12879.583391,-4519.963438
151.466055,-1110.308913,20207.622217,-6281.983084
151.466364,-1480.411884,18135.045579,-6818.249932
151.466674,3552.988522,15470.304188,-8656.879127
151.466984,-5255.462188,14211.954086,1072.533697
151.467293,-4071.132681,9622.677246,8427.050478
151.467603,5255.462188,7105.977043,-612.876398
151.467913,3997.112087,3182.885551,-5056.230287
151.468222,-5921.647536,4293.194464,6588.421283
151.468532,814.226536,6513.812290,2145.067394
151.468842,3552.988522,2368.659014,-9193.145976
151.469151,-1036.288319,7402.059420,-3217.601092
151.469461,-962.267725,11621.233289,4903.011187
151.469770,-1850.514855,7179.997637,-3140.991542
151.470080,4071.132681,13545.768739,-3600.648841
151.470390,-4145.153275,8290.306550,4903.011187
151.470699,1554.432478,11991.336260,-1378.971896
151.471009,-222.061783,10955.047942,-4136.915689
151.471319,-3256.906145,14211.954086,-1225.752797
151.471628,222.061783,15692.365970,-3217.601092
151.471938,-666.185348,13323.706956,-8197.221829
151.472248,-2886.803174,12953.603985,-3677.258390
151.472557,-74.020594,9326.594869,995.924147
151.472867,1776.494261,6143.709319,-2681.334243
151.473176,-3182.885551,8586.388927,-383.047749
151.473486,2220.617826,7550.100608,0.000000
151.473796,666.185348,1480.411884,-5745.716235
151.474105,740.205942,2368.659014,2528.115143
151.474415,-3404.947333,8364.327145,4213.525239
151.474725,5403.503377,8882.471304,1225.752797
151.475034,-2516.700203,10510.924376,536.266849
151.475344,-0.000000,12953.603985,2451.505594
151.475654,5625.565159,9844.739029,-1302.362347
151.475963,-0.000000,9918.759623,-8810.098227
151.476273,-592.164754,12509.480420,-1608.800546
151.476582,-370.102971,12287.418637,2451.505594
151.476892,-4515.256246,13175.665768,-229.828649
151.477202,-6069.688724,16136.489536,-4136.915689
151.477511,2220.617826,16136.489536,-9116.536426
151.477821,2960.823768,8660.409521,-12717.185267
151.478131,-962.267725,9326.594869,-4596.572988
151.478440,888.247130,7105.977043,9269.755526
151.478750,2294.638420,5329.482782,2757.943793
151.479060,-3182.885551,4293.194464,4443.353888
151.479369,-2220.617826,2590.720797,11108.384721
151.479679,7254.018232,6661.853478,-4903.011187
151.479989,4885.359217,6883.915261,-13330.061665
151.480298,-1332.370696,10436.903782,1532.190996
151.480608,-2294.638420,12139.377449,7507.735880
151.480917,-1702.473667,8956.491898,-3753.867940
151.481227,370.102971,16136.489536,-1302.362347
151.481537,-2146.597232,16580.613101,-1685.410096
151.481846,-1998.556043,11177.109724,-8044.002729
151.482156,518.144159,16136.489536,-8503.660028
151.482466,222.061783,12435.459826,-2145.067394
151.482775,-0.000000,9918.759623,-766.095498
151.483085,-3552.988522,11029.068536,1838.629195
151.483395,-4441.235652,9622.677246,6052.154434
151.483704,1924.535449,8882.471304,-3753.867940
151.484014,3404.947333,2294.638420,-10035.851024
151.484323,-3182.885551,2368.659014,3753.867940
151.484633,2368.659014,2960.823768,9346.365076
151.484943,-962.267725,3034.844362,3370.820191
151.485252,1036.288319,7031.956449,612.876398
151.485562,-1702.473667,8734.430116,766.095498
151.485872,-3330.926739,6661.853478,-2757.943793
151.486181,1480.411884,13915.871710,-5056.230287
151.486491,3552.988522,16580.613101,-5362.668486
151.486801,-5773.606348,12509.480420,-3447.429741
151.487110,-8512.368333,15470.304188,3983.696590
151.487420,-1776.494261,14730.098246,-2298.286494
151.487729,5255.462188,13619.789333,-14479.204912
151.488039,-1554.432478,11843.295072,-4213.525239
151.488349,-2590.720797,11103.089130,7660.954980
151.488658,4737.318029,7550.100608,-1378.971896
151.488968,2220.617826,3627.009116,-2451.505594
151.489278,-4737.318029,1702.473667,8044.002729
151.489587,2960.823768,962.267725,2221.676944
151.489897,7624.121203,1480.411884,-7584.345430
151.490207,-1258.350101,3404.947333,-612.876398
151.490516,-3404.947333,9548.656652,8197.221829
151.490826,-666.185348,8734.430116,-612.876398
151.491135,666.185348,13175.665768,-4366.744339
151.491445,-518.144159,14211.954086,0.000000
151.491755,-3552.988522,13175.665768,-7507.735880
151.492064,-296.082377,17394.839637,-5822.325785
151.492374,-222.061783,14804.118840,-3907.087040
151.492684,3923.091493,15692.365970,-13023.623466
151.492993,-3849.070898,11325.150913,-1838.629195
151.493303,-3775.050304,9992.780217,9806.022374
151.493613,5995.668130,5403.503377,-2528.115143
151.493922,1924.535449,814.226536,-8733.488677
151.494232,-5329.482782,5551.544565,7431.126331
151.494541,518.144159,3404.947333,3983.696590
151.494851,8512.368333,1332.370696,-14555.814462
151.495161,3034.844362,4071.132681,-2451.505594
151.495470,-5033.400406,5625.565159,12793.794817
151.495780,-1924.535449,7476.080014,3447.429741
151.496090,1110.308913,15692.365970,-4826.401637
151.496399,1998.556043,14063.912898,-7354.516781
151.496709,1554.432478,13619.789333,-10035.851024
151.497019,-1110.308913,19023.292709,-6128.763984
151.497328,-6809.894666,14952.160028,995.924147
151.497638,4737.318029,18135.045579,-8886.707777
151.497947,4145.153275,5847.626942,-13866.328514
151.498257,-5107.421000,6291.750507,3140.991542
151.498567,-222.061783,1406.391290,12180.918418
151.498876,4811.338623,-2220.617826,-612.876398
151.499186,296.082377,4737.318029,2374.896044
151.499496,-1850.514855,2368.659014,10265.679673
151.499805,-3182.885551,4145.153275,-1225.752797
151.500115,3478.967927,6143.709319,-11797.870669
151.500425,3034.844362,12657.521608,-9499.584175
151.500734,-3034.844362,15914.427753,-5669.106685
151.501044,-2812.782580,15544.324782,-383.047749
151.501354,296.082377,12509.480420,5439.278036
151.501663,-2664.741391,13915.871710,1149.143247
151.501973,1332.370696,13989.892304,0.000000
151.502282,-2072.576638,12139.377449,-2528.115143
151.502592,5329.482782,10732.986159,-9959.241474
151.502902,-2072.576638,8142.265362,-3907.087040
151.503211,-6069.688724,13101.645173,2298.286494
151.503521,-74.020594,9696.697840,-2681.334243
151.503831,4219.173869,2960.823768,-7814.174080
151.504140,2072.576638,6439.791695,1838.629195
151.504450,1036.288319,2368.659014,4443.353888
151.504760,-814.226536,1702.473667,4903.011187
151.505069,-666.185348,7179.997637,5822.325785
151.505379,5181.441594,7402.059420,-536.266849
151.505688,2072.576638,8068.244768,-2528.115143
151.505998,-5033.400406,14285.974681,919.314598
151.506308,-1036.288319,16432.571912,-1608.800546
151.506617,3701.029710,18283.086767,-12717.185267
151.506927,1554.432478,16358.551318,-8733.488677
151.507237,-8290.306550,18357.107362,766.095498
151.507546,1110.308913,12287.418637,-5209.449386
151.507856,3330.926739,4737.318029,-7354.516781
151.508166,-148.041188,10807.006753,2528.115143
151.508475,370.102971,3849.070898,-1149.143247
151.508785,5699.585753,2812.782580,1838.629195
151.509094,-3404.947333,5181.441594,7737.564530
151.509404,1702.473667,4441.235652,4979.620737
151.509714,4219.173869,8364.327145,-4213.525239
151.510023,-3330.926739,5107.421000,-6052.154434
151.510333,-0.000000,9104.533087,-1915.238745
151.510643,1406.391290,8586.388927,-2604.724693
151.510952,1702.473667,11473.192101,-689.485948
151.511262,-3404.947333,17320.819043,5439.278036
151.511572,-888.247130,14137.933492,1302.362347
151.511881,-3034.844362,10066.800811,-2604.724693
151.512191,-2738.761985,15174.221811,-4596.572988
151.512500,2516.700203,15100.201217,-10725.336972
151.512810,2442.679609,10214.842000,-14709.033562
151.513120,-7772.162391,8882.471304,2681.334243
151.513429,1924.535449,8882.471304,3217.601092
151.513739,4811.338623,2368.659014,-4673.182538
151.514049,1184.329507,4145.153275,1762.019645
151.514358,1702.473667,-1776.494261,8273.831378
151.514668,814.226536,-444.123565,2987.772442
151.514978,1184.329507,4737.318029,1072.533697
151.515287,222.061783,8512.368333,995.924147
151.515597,1184.329507,9918.759623,-4673.182538
151.515906,-4219.173869,10955.047942,-3983.696590
151.516216,-1924.535449,18135.045579,-7048.078582
151.516526,3330.926739,16728.654289,-11338.213370
151.516835,-1850.514855,14952.160028,-7048.078582
151.517145,-7772.162391,19171.333898,229.828649
151.517455,3404.947333,14285.974681,-4596.572988
151.517764,6291.750507,11103.089130,-9116.536426
151.518074,-2072.576638,9104.533087,4903.011187
151.518384,-1850.514855,4589.276840,14402.595362
151.518693,7846.182985,3108.864956,1532.190996
151.519003,1850.514855,4811.338623,-2757.943793
151.519313,-5107.421000,2960.823768,5745.716235
151.519622,222.061783,4663.297435,-2834.553343
151.519932,2960.823768,4367.215058,-20454.749797
151.520241,5403.503377,9992.780217,-10572.117872
151.520551,-4737.318029,11991.336260,5592.497135
151.520861,-1110.308913,7698.141797,9346.365076
151.521170,-444.123565,12435.459826,5515.887586
151.521480,-444.123565,12657.521608,5286.058936
151.521790,-1924.535449,12213.398043,-995.924147
151.522099,2146.597232,13619.789333,-10572.117872
151.522409,-0.000000,11473.192101,-12334.137518
151.522719,-2886.803174,15396.283594,-8656.879127
151.523028,-1776.494261,14211.954086,-306.438199
151.523338,-1184.329507,11029.068536,3217.601092
151.523647,6587.832884,8734.430116,-1149.143247
151.523957,-0.000000,-1628.453072,1838.629195
151.524266,-1628.453072,592.164754,13789.718964
151.524576,3701.029710,-0.000000,4826.401637
151.524885,-0.000000,-0.000000,-1608.800546
151.525195,-1258.350101,12139.377449,1915.238745
151.525505,-2516.700203,9770.718434,-1378.971896
151.525814,1406.391290,13323.706956,-8273.831378
151.526124,962.267725,17320.819043,-6128.763984
151.526433,-518.144159,16062.468941,-4366.744339
151.526743,-2442.679609,15396.283594,-1532.190996
151.527052,-2294.638420,13397.727550,3524.039291
151.527362,-2368.659014,10881.027347,-306.438199
151.527671,5995.668130,12805.562797,-8810.098227
151.527981,2664.741391,4219.173869,-7584.345430
151.528291,-4367.215058,5181.441594,1072.533697
151.528600,4959.379811,8364.327145,3907.087040
151.528910,2294.638420,1702.473667,1608.800546
151.529219,-6439.791695,1850.514855,9269.755526
151.529529,2960.823768,5995.668130,7048.078582
151.529838,6957.935855,1406.391290,-6818.249932
151.530148,3552.988522,6661.853478,-6435.202183
151.530458,-370.102971,11991.336260,7814.174080
151.530767,-5625.565159,11991.336260,8963.317327
151.531077,-3034.844362,20207.622217,-3064.381992
151.531386,-1258.350101,22132.157666,-11568.042020
151.531696,-444.123565,18949.272115,-12563.966167
151.532005,2072.576638,12583.501014,-10801.946522
151.532315,-3034.844362,12065.356855,-3140.991542
151.532624,3997.112087,11177.109724,1302.362347
151.532934,-296.082377,2220.617826,6894.859482
151.533244,-4367.215058,8956.491898,13559.890315
151.533553,7328.038826,3256.906145,2681.334243
151.533863,7105.977043,-814.226536,-9193.145976
151.534172,-1110.308913,4885.359217,-3753.867940
151.534482,-2738.761985,6957.935855,6358.592633
151.534791,814.226536,7476.080014,-2374.896044
151.535101,1184.329507,6587.832884,-3677.258390
151.535410,-2072.576638,11843.295072,2834.553343
151.535720,-3775.050304,11843.295072,766.095498
151.536030,1184.329507,17172.777854,-8656.879127
151.536339,-1998.556043,18061.024985,-5898.935335
151.536649,2960.823768,21243.910535,-5822.325785
151.536958,-370.102971,14359.995275,-8350.440928
151.537268,-3182.885551,15544.324782,306.438199
151.537577,1184.329507,12213.398043,842.705048
151.537887,592.164754,3256.906145,-7124.688131
151.538197,1850.514855,1702.473667,229.828649
151.538506,1924.535449,-1110.308913,7048.078582
151.538816,3404.947333,-1998.556043,1149.143247
151.539125,-0.000000,4145.153275,6588.421283
151.539435,1702.473667,6883.915261,8273.831378
151.539744,-3256.906145,9918.759623,-612.876398
151.540054,-370.102971,12805.562797,-9193.145976
151.540363,4145.153275,11843.295072,-12257.527968
151.540673,-0.000000,14656.077652,-11951.089769
151.540983,-2960.823768,17542.880825,-2834.553343
151.541292,-5033.400406,18061.024985,9576.193725
151.541602,4145.153275,17098.757260,0.000000
151.541911,6587.832884,9548.656652,-3983.696590
151.542221,1924.535449,11843.295072,5439.278036
151.542530,-296.082377,5847.626942,5669.106685
151.542840,-7550.100608,6143.709319,-842.705048
151.543149,-3108.864956,8586.388927,1378.971896
151.543459,1998.556043,7402.059420,-5745.716235
151.543769,3849.070898,7994.224174,-15628.348159
151.544078,1850.514855,6365.771101,-6281.983084
151.544388,-6365.771101,2886.803174,5898.935335
151.544697,-148.041188,6661.853478,7814.174080
151.545007,7476.080014,3701.029710,4290.134789
151.545316,1554.432478,8956.491898,8503.660028
151.545626,-814.226536,9030.512492,8810.098227
151.545936,444.123565,11177.109724,-2911.162892
151.546245,1110.308913,18727.210333,-11338.213370
151.546555,444.123565,19171.333898,-12947.013916
151.546864,1332.370696,15100.201217,-13406.671215
151.547174,-9326.594869,15988.448347,-1685.410096
151.547483,-0.000000,15988.448347,689.485948
151.547793,3404.947333,9844.739029,-4903.011187
151.548102,296.082377,6513.812290,1608.800546
151.548412,740.205942,-1036.288319,4290.134789
151.548722,1702.473667,148.041188,1991.848295
151.549031,10362.883188,4737.318029,-3600.648841
151.549341,-444.123565,9030.512492,5745.716235
151.549650,-962.267725,11177.109724,8963.317327
151.549960,3552.988522,7846.182985,-4903.011187
151.550269,2220.617826,12139.377449,-6128.763984
151.550579,-666.185348,13175.665768,-5439.278036
151.550888,-3256.906145,8882.471304,-5209.449386
151.551198,-6735.874072,15692.365970,76.609550
151.551508,888.247130,16728.654289,0.000000
151.551817,814.226536,15840.407159,-7124.688131
151.552127,-1924.535449,16284.530724,-2068.457845
151.552436,2368.659014,11325.150913,-1149.143247
151.552746,74.020594,7254.018232,-10112.460574
151.553055,-3552.988522,2442.679609,1225.752797
151.553365,-3404.947333,3849.070898,13636.499864
151.553675,6661.853478,5033.400406,1302.362347
151.553984,6883.915261,2442.679609,-4903.011187
151.554294,-2442.679609,4737.318029,5745.716235
151.554603,-1554.432478,4219.173869,6128.763984
151.554913,-1036.288319,5699.585753,-5975.544884
151.555222,888.247130,16358.551318,-7354.516781
151.555532,-0.000000,14211.954086,-6435.202183
151.555841,-3404.947333,12509.480420,-6281.983084
151.556151,-2812.782580,17394.839637,-1991.848295
151.556461,-1110.308913,14730.098246,-3677.258390
151.556770,4885.359217,16728.654289,-8733.488677
151.557080,-1332.370696,11251.130318,842.705048
151.557389,1480.411884,7698.141797,4519.963438
151.557699,7550.100608,7476.080014,-3907.087040
151.558008,-2220.617826,7254.018232,-306.438199
151.558318,-1776.494261,5921.647536,12640.575717
151.558627,5699.585753,3923.091493,-919.314598
151.558937,3997.112087,2294.638420,-11491.432470
151.559247,-4367.215058,5477.523971,5515.887586
151.559556,-4071.132681,8216.285956,4443.353888
151.559866,1036.288319,8512.368333,-10801.946522
151.560175,-962.267725,13989.892304,-2451.505594
151.560485,-2368.659014,13545.768739,995.924147
151.560794,1406.391290,13471.748144,-7507.735880
151.561104,3627.009116,16802.674883,-4903.011187
151.561414,-6217.729913,13989.892304,5209.449386
151.561723,1258.350101,14137.933492,1378.971896
151.562033,-3627.009116,8068.244768,-1149.143247
151.562342,-0.000000,9474.636058,3140.991542
151.562652,4293.194464,6365.771101,-4749.792088
151.562961,-1258.350101,4663.297435,-9576.193725
151.563271,-5403.503377,6809.894666,4290.134789
151.563580,1628.453072,7994.224174,2451.505594
151.563890,962.267725,4441.235652,-7277.907231
151.564200,-1998.556043,7105.977043,-2221.676944
151.564509,666.185348,6735.874072,3294.210641
151.564819,2590.720797,3478.967927,-8197.221829
151.565128,-0.000000,8068.244768,0.000000
151.565438,-666.185348,9992.780217,8733.488677
151.565747,444.123565,13767.830521,-919.314598
151.566057,1406.391290,12657.521608,-1915.238745
151.566366,-2590.720797,15544.324782,842.705048
151.566676,2294.638420,11325.150913,-9499.584175
151.566986,-1924.535449,8956.491898,-10265.679673
151.567295,-6069.688724,14063.912898,-995.924147
151.567605,2738.761985,8068.244768,-5286.058936
151.567914,2590.720797,1332.370696,-6665.030833
151.568224,-4293.194464,5477.523971,12410.747068
151.568533,740.205942,4589.276840,9806.022374
151.568843,3478.967927,1184.329507,-4596.572988
151.569153,370.102971,5847.626942,2834.553343
151.569462,-1110.308913,7846.182985,8197.221829
151.569772,3552.988522,6365.771101,-5745.716235
151.570081,-2146.597232,13989.892304,-6052.154434
151.570391,-3034.844362,17320.819043,3064.381992
151.570700,-666.185348,16210.510130,-2604.724693
151.571010,2220.617826,13323.706956,-11644.651570
151.571319,-6365.771101,13249.686362,-2757.943793
151.571629,-740.205942,10955.047942,3370.820191
151.571939,2220.617826,10140.821405,-4366.744339
151.572248,814.226536,16136.489536,-2834.553343
151.572558,2886.803174,8290.306550,-306.438199
151.572867,740.205942,74.020594,-1072.533697
151.573177,-5477.523971,5773.606348,5898.935335
151.573486,4293.194464,8734.430116,-383.047749
151.573796,4145.153275,4293.194464,-9499.584175
151.574105,5921.647536,2960.823768,2681.334243
151.574415,-2812.782580,8290.306550,9806.022374
151.574725,-5033.400406,11769.274478,4596.572988
151.575034,1628.453072,11547.212695,-383.047749
151.575344,-666.185348,11251.130318,-7201.297681
151.575653,-5773.606348,10807.006753,-7431.126331
151.575963,-666.185348,14434.015869,-10801.946522
151.576272,-1924.535449,18949.272115,-13713.109414
151.576582,3404.947333,16728.654289,-6205.373534
151.576892,-592.164754,11621.233289,6358.592633
151.577201,-2294.638420,11325.150913,8886.707777
151.577511,4219.173869,3923.091493,1149.143247
151.577820,2516.700203,-3404.947333,-1608.800546
151.578130,-4663.297435,-1110.308913,7737.564530
151.578439,4737.318029,4737.318029,-1225.752797
151.578749,444.123565,12287.418637,-13023.623466
151.579058,-1776.494261,6809.894666,0.000000
151.579368,-1554.432478,11991.336260,4443.353888
151.579678,-2368.659014,12509.480420,-4903.011187
151.579987,3849.070898,9844.739029,-3524.039291
151.580297,-5329.482782,11695.253884,-2068.457845
151.580606,-3330.926739,7254.018232,-2911.162892
151.580916,8364.327145,14656.077652,-5592.497135
151.581225,-6809.894666,15470.304188,-383.047749
151.581535,1480.411884,15174.221811,3524.039291
151.581844,-148.041188,9474.636058,612.876398
151.582154,-1406.391290,10362.883188,919.314598
151.582464,1924.535449,6143.709319,-2681.334243
151.582773,-222.061783,2960.823768,-8503.660028
151.583083,-9030.512492,6809.894666,0.000000
151.583392,5477.523971,10066.800811,153.219100
151.583702,2886.803174,11177.109724,-10955.165621
151.584011,1628.453072,8216.285956,-1762.019645
151.584321,-3849.070898,7846.182985,9039.926876
151.584631,3034.844362,4737.318029,2451.505594
151.584940,2664.741391,4293.194464,-1225.752797
151.585250,-3849.070898,6365.771101,5132.839837
151.585559,-370.102971,10584.944971,4136.915689
151.585869,1702.473667,15914.427753,-5056.230287
151.586178,-3256.906145,18949.272115,-2451.505594
151.586488,1332.370696,21317.931130,-7890.783629
151.586797,4515.256246,12361.439231,-18616.120601
151.587107,-7031.956449,12065.356855,-1225.752797
151.587417,-2960.823768,12657.521608,8733.488677
151.587726,2368.659014,5477.523971,-7354.516781
151.588036,5403.503377,7328.038826,-6741.640382
151.588345,-814.226536,3404.947333,11644.651570
151.588655,5995.668130,-1702.473667,4673.182538
151.588964,5477.523971,3330.926739,153.219100
151.589274,-4885.359217,8734.430116,9116.536426
151.589583,4219.173869,9326.594869,5209.449386
151.589893,4293.194464,9548.656652,-9652.803275
151.590203,-888.247130,10955.047942,-7967.393179
151.590512,-2664.741391,15618.345376,-3370.820191
151.590822,-518.144159,18061.024985,-8656.879127
151.591131,-0.000000,12657.521608,-3064.381992
151.591441,666.185348,17098.757260,2757.943793
151.591750,-2368.659014,14063.912898,-4213.525239
151.592060,-3775.050304,7105.977043,766.095498
151.592369,1110.308913,11029.068536,5439.278036
151.592679,2368.659014,5551.544565,-9346.365076
151.592989,148.041188,4885.359217,-3447.429741
151.593298,-5255.462188,10288.862594,11644.651570
151.593608,444.123565,4663.297435,-919.314598
151.593917,6365.771101,9252.574275,-12717.185267
151.594227,-4737.318029,6439.791695,536.266849
151.594536,-3330.926739,1258.350101,4136.915689
151.594846,3923.091493,2368.659014,153.219100
151.595156,-2812.782580,7698.141797,0.000000
151.595465,814.226536,13397.727550,6894.859482
151.595775,-1332.370696,17098.757260,229.828649
151.596084,-1924.535449,11399.171507,-9882.631924
151.596394,2960.823768,16654.633695,-11338.213370
151.596703,-1036.288319,16358.551318,-11414.822920
151.597013,-2738.761985,13693.809927,-3983.696590
151.597322,-1184.329507,18949.272115,1072.533697
151.597632,-148.041188,10807.006753,153.219100
151.597942,3108.864956,8438.347739,1838.629195
151.598251,4071.132681,7402.059420,1838.629195
151.598561,3034.844362,-4293.194464,-3294.210641
151.598870,-2220.617826,-2368.659014,1608.800546
151.599180,-7476.080014,3775.050304,6588.421283
151.599489,4145.153275,9548.656652,-6128.763984
151.599799,1406.391290,10807.006753,-9576.193725
151.600108,888.247130,8882.471304,1378.971896
151.600418,-0.000000,9992.780217,-919.314598
151.600728,-592.164754,13619.789333,-8044.002729
151.601037,-4145.153275,7994.224174,3064.381992
151.601347,-5255.462188,13101.645173,9193.145976
151.601656,1628.453072,13841.851115,-6281.983084
151.601966,-2516.700203,13915.871710,-5975.544884
151.602275,-3182.885551,18283.086767,2145.067394
151.602585,3256.906145,9400.615463,-10189.070123
151.602895,3108.864956,8438.347739,-13942.938064
151.603204,-10807.006753,7179.997637,4749.792088
151.603514,-296.082377,5181.441594,6971.469032
151.603823,9030.512492,10584.944971,-6818.249932
151.604133,1258.350101,3552.988522,2145.067394
151.604442,-1850.514855,2368.659014,13330.061665
151.604752,962.267725,1554.432478,2451.505594
151.605061,5033.400406,2516.700203,-7124.688131
151.605371,-962.267725,8438.347739,2374.896044
151.605681,-2664.741391,11843.295072,-459.657299
151.605990,814.226536,20873.807564,-9499.584175
151.606300,-2960.823768,21688.034101,-5975.544884
151.606609,5255.462188,18283.086767,-6588.421283
151.606919,592.164754,8808.450710,-6128.763984
151.607228,-8512.368333,13915.871710,-1072.533697
151.607538,-3478.967927,7179.997637,2757.943793
151.607847,5699.585753,10510.924376,-8120.612279
151.608157,-296.082377,8364.327145,-2374.896044
151.608467,-1184.329507,9474.636058,13100.233016
151.608776,6513.812290,2738.761985,-2221.676944
151.609086,-3849.070898,-2368.659014,536.266849
151.609395,1998.556043,7994.224174,12027.699319
151.609705,1110.308913,148.041188,-2528.115143
151.610014,7772.162391,5255.462188,-12257.527968
151.610324,-6143.709319,11917.315666,9422.974625
151.610634,-5699.585753,15322.262999,9959.241474
151.610943,444.123565,13915.871710,-9882.631924
151.611253,-4737.318029,17912.983796,-6971.469032
151.611562,1776.494261,18579.169144,-6128.763984
151.611872,3627.009116,9548.656652,-15551.738609
151.612181,-1998.556043,13027.624579,-4213.525239
151.612491,-2442.679609,15766.386565,9039.926876
151.612800,2294.638420,11399.171507,3983.696590
151.613110,-74.020594,5403.503377,6971.469032
151.613420,3923.091493,7476.080014,7354.516781
151.613729,2738.761985,-1258.350101,-6665.030833
151.614039,370.102971,-444.123565,-10189.070123
151.614348,-1036.288319,9622.677246,2145.067394
151.614658,2590.720797,3552.988522,-1149.143247
151.614967,-0.000000,8734.430116,-4366.744339
151.615277,-5921.647536,17542.880825,7201.297681
151.615586,4515.256246,10214.842000,-612.876398
151.615896,7920.203579,6365.771101,-9729.412825
151.616206,296.082377,11029.068536,-3983.696590
151.616515,-2072.576638,11103.089130,3370.820191
151.616825,-6439.791695,15248.242405,3447.429741
151.617134,-3256.906145,18209.066173,2298.286494
151.617444,6513.812290,16062.468941,-7431.126331
151.617753,5921.647536,14952.160028,-18462.901502
151.618063,-8438.347739,2516.700203,-3830.477490
151.618373,-3627.009116,4441.235652,6665.030833
151.618682,1998.556043,5847.626942,-3064.381992
151.618992,1850.514855,7179.997637,-4366.744339
151.619301,-814.226536,7179.997637,8886.707777
151.619611,6735.874072,3182.885551,2068.457845
151.619920,8512.368333,-1702.473667,-5362.668486
151.620230,-1480.411884,4737.318029,6894.859482
151.620539,-3182.885551,9474.636058,8350.440928
151.620849,-370.102971,9696.697840,-2451.505594
151.621159,-3775.050304,13323.706956,306.438199
151.621468,814.226536,18209.066173,-6818.249932
151.621778,3034.844362,16580.613101,-17850.025103
151.622087,-2960.823768,14878.139434,-7354.516781
151.622397,-5773.606348,9178.553681,3447.429741
151.622706,1850.514855,11399.171507,-6511.811733
151.623016,-1332.370696,10658.965565,0.000000
151.623325,-2664.741391,10584.944971,18233.072852
151.623635,2368.659014,2516.700203,4903.011187
151.623945,4441.235652,-888.247130,-9959.241474
151.624254,-8290.306550,5847.626942,2987.772442
151.624564,-1776.494261,2072.576638,76.609550
151.624873,4737.318029,10362.883188,-13559.890315
151.625183,-518.144159,16210.510130,-1762.019645
151.625493,-3997.112087,18209.066173,5975.544884
151.625802,-0.000000,13027.624579,-3140.991542
151.626112,3849.070898,5033.400406,-5209.449386
151.626422,3775.050304,5773.606348,536.266849
151.626731,2294.638420,6809.894666,-766.095498
151.627041,-5995.668130,8068.244768,3064.381992
151.627350,-2220.617826,14878.139434,6358.592633
151.627660,7550.100608,10214.842000,-8427.050478
151.627969,1184.329507,12139.377449,-10418.898773
151.628279,-5699.585753,14656.077652,4673.182538
151.628588,962.267725,6735.874072,-1991.848295
151.628898,7624.121203,6439.791695,-11491.432470
151.629207,-518.144159,9622.677246,2528.115143
151.629517,-8956.491898,9770.718434,13942.938064
151.629827,4589.276840,10584.944971,-1838.629195
151.630136,2664.741391,4959.379811,-3753.867940
151.630446,2368.659014,12361.439231,-1608.800546
151.630755,-2886.803174,9104.533087,-5745.716235
151.631065,-6809.894666,8956.491898,-4366.744339
151.631374,2442.679609,15544.324782,-3830.477490
151.631684,6143.709319,16062.468941,-8503.660028
151.631993,-592.164754,9030.512492,-766.095498
151.632303,-6587.832884,10510.924376,14172.766713
151.632612,7031.956449,4219.173869,-1225.752797
151.632922,5921.647536,3034.844362,-10265.679673
151.633232,-2886.803174,6809.894666,3140.991542
151.633541,-7031.956449,5699.585753,7890.783629
151.633851,5107.421000,13693.809927,-9269.755526
151.634160,3256.906145,9622.677246,-9806.022374
151.634470,1110.308913,12361.439231,995.924147
151.634779,1184.329507,10066.800811,-1455.581446
151.635089,2368.659014,4219.173869,-1685.410096
151.635398,-740.205942,9548.656652,8120.612279
151.635708,-2442.679609,12657.521608,5362.668486
151.636017,592.164754,12583.501014,-4443.353888
151.636327,-2812.782580,13249.686362,-2911.162892
151.636637,4071.132681,9252.574275,-9422.974625
151.636946,-1924.535449,8956.491898,-8733.488677
151.637256,-8586.388927,13693.809927,919.314598
151.637565,-1850.514855,13989.892304,-3217.601092
151.637875,9104.533087,9030.512492,-11261.603821
151.638184,3256.906145,8364.327145,0.000000
151.638494,-296.082377,8142.265362,11797.870669
151.638803,4293.194464,4737.318029,689.485948
151.639113,7254.018232,-2590.720797,1302.362347
151.639422,-1184.329507,4737.318029,13559.890315
151.639732,-4663.297435,8438.347739,3140.991542
151.640042,148.041188,9474.636058,-10648.727422
151.640351,740.205942,17468.860231,-7814.174080
151.640661,666.185348,11177.109724,-10572.117872
151.640970,-2590.720797,8438.347739,-9959.241474
151.641280,-3330.926739,19097.313304,2604.724693
151.641589,-3478.967927,10732.986159,4673.182538
151.641899,-0.000000,10436.903782,3217.601092
151.642208,-1332.370696,17616.901420,4749.792088
151.642518,2664.741391,9548.656652,-3217.601092
151.642827,2516.700203,7698.141797,-11108.384721
151.643137,-4737.318029,3108.864956,-2374.896044
151.643447,-888.247130,7179.997637,612.876398
151.643756,2368.659014,9770.718434,-5898.935335
151.644066,3775.050304,9178.553681,-2757.943793
151.644375,296.082377,10140.821405,7737.564530
151.644685,4219.173869,3256.906145,5362.668486
151.644994,4663.297435,3034.844362,76.609550
151.645304,-5033.400406,5033.400406,1378.971896
151.645613,-2664.741391,1184.329507,1072.533697
151.645923,-2590.720797,12805.562797,-2374.896044
151.646232,-2960.823768,21465.972318,-3753.867940
151.646542,9030.512492,17912.983796,-13330.061665
151.646852,-222.061783,14804.118840,-10265.679673
151.647161,-6365.771101,10584.944971,6818.249932
151.647471,-3478.967927,12509.480420,6511.811733
151.647780,3478.967927,12213.398043,-9959.241474
151.648090,4219.173869,7105.977043,-5898.935335
151.648399,-74.020594,7179.997637,6435.202183
151.648709,-1702.473667,4811.338623,3064.381992
151.649018,-370.102971,5625.565159,-1762.019645
151.649328,296.082377,7846.182985,2987.772442
151.649637,2146.597232,1258.350101,-1072.533697
151.649947,4293.194464,-1554.432478,-7277.907231
151.650256,-3701.029710,11399.171507,-1762.019645
151.650566,-0.000000,8586.388927,1762.019645
151.650876,1850.514855,10140.821405,1685.410096
151.651185,4811.338623,10066.800811,1991.848295
151.651495,-444.123565,9326.594869,4213.525239
151.651804,-4293.194464,13027.624579,3907.087040
151.652114,-4441.235652,10807.006753,-3830.477490
151.652423,5625.565159,10881.027347,-11108.384721
151.652733,3478.967927,15766.386565,-12180.918418
151.653042,-7550.100608,13545.768739,-1762.019645
151.653352,-2294.638420,13249.686362,3217.601092
151.653661,5699.585753,9622.677246,-2068.457845
151.653971,3330.926739,7105.977043,-689.485948
151.654281,-2072.576638,6883.915261,6358.592633
151.654590,-962.267725,-1184.329507,8273.831378
151.654900,-296.082377,8142.265362,229.828649
151.655209,-888.247130,5773.606348,-842.705048
151.655519,4959.379811,10807.006753,-12180.918418
151.655828,-888.247130,10955.047942,-10265.679673
151.656138,-5551.544565,8068.244768,2451.505594
151.656447,5403.503377,10658.965565,1072.533697
151.656757,3923.091493,15248.242405,-5822.325785
151.657066,-1554.432478,14211.954086,4443.353888
151.657376,-3923.091493,9474.636058,12640.575717
151.657686,814.226536,7254.018232,76.609550
151.657995,2812.782580,11177.109724,-10801.946522
151.658305,-4219.173869,17690.922014,-6818.249932
151.658614,2516.700203,11399.171507,-9346.365076
151.658924,-74.020594,7254.018232,-12563.966167
151.659233,-4589.276840,11991.336260,2374.896044
151.659543,-2812.782580,10807.006753,5745.716235
151.659852,5107.421000,8586.388927,-4290.134789
151.660162,3997.112087,4515.256246,2451.505594
151.660471,2812.782580,4589.276840,7890.783629
151.660781,1258.350101,7624.121203,0.000000
151.661091,3256.906145,4145.153275,-1762.019645
151.661400,-962.267725,8438.347739,5362.668486
151.661710,222.061783,9844.739029,-612.876398
151.662019,-4959.379811,13767.830521,-5822.325785
151.662329,-1480.411884,14878.139434,-3217.601092
151.662638,2072.576638,9548.656652,-9576.193725
151.662948,-3552.988522,8808.450710,-7354.516781
151.663257,-8216.285956,17912.983796,2834.553343
151.663567,444.123565,12287.418637,-1685.410096
151.663876,11177.109724,13323.706956,-7277.907231
151.664186,-518.144159,9474.636058,5822.325785
151.664496,-3701.029710,4737.318029,14402.595362
151.664805,-1554.432478,8438.347739,7814.174080
151.665115,-2368.659014,2368.659014,536.266849
151.665424,3923.091493,6661.853478,-8580.269578
151.665734,1480.411884,7031.956449,-17466.977354
151.666043,-4589.276840,9326.594869,-8963.317327
151.666353,-3256.906145,14730.098246,2987.772442
151.666662,2146.597232,8808.450710,-383.047749
151.666972,5403.503377,11029.068536,-2374.896044
151.667281,-2886.803174,11473.192101,12257.527968
151.667591,-0.000000,4663.297435,7814.174080
151.667901,3330.926739,3478.967927,-5209.449386
151.668210,1110.308913,4811.338623,-6281.983084
151.668520,296.082377,13693.809927,-8044.002729
151.668829,-2960.823768,18875.251521,-10801.946522
151.669139,-814.226536,10955.047942,1608.800546
151.669448,1998.556043,15470.304188,5286.058936
151.669758,7031.956449,13471.748144,-8044.002729
151.670067,2368.659014,5181.441594,-3064.381992
151.670377,-7994.224174,-814.226536,15475.129060
151.670686,-3775.050304,-962.267725,9729.412825
151.670996,4071.132681,8882.471304,-7431.126331
151.671306,2812.782580,14582.057057,-6511.811733
151.671615,-4811.338623,10658.965565,-4519.963438
151.671925,-2146.597232,12213.398043,-3064.381992
151.672234,740.205942,17764.942608,-3677.258390
151.672544,7550.100608,11547.212695,-4979.620737
151.672853,-3775.050304,9252.574275,4979.620737
151.673163,-5033.400406,5477.523971,13253.452115
151.673472,1110.308913,5107.421000,-383.047749
151.673782,3701.029710,11399.171507,-8503.660028
151.674091,5255.462188,9474.636058,-6588.421283
151.674401,-222.061783,3330.926739,-1225.752797
151.674711,-6587.832884,8512.368333,2145.067394
151.675020,-1258.350101,11843.295072,1762.019645
151.675330,-222.061783,15396.283594,-4903.011187
151.675639,7624.121203,7328.038826,-9039.926876
151.675949,-3701.029710,4663.297435,-766.095498
151.676258,-4145.153275,11029.068536,5286.058936
151.676568,4367.215058,11769.274478,-5975.544884
151.676877,4515.256246,11917.315666,-7890.783629
151.677187,-814.226536,8438.347739,9269.755526
151.677496,-1776.494261,10288.862594,6052.154434
151.677806,-1776.494261,9844.739029,-4673.182538
151.678116,-4441.235652,5033.400406,-3677.258390
151.678425,2664.741391,7698.141797,-5362.668486
151.678735,814.226536,5921.647536,-13789.718964
151.679044,-2368.659014,10140.821405,-5209.449386
151.679354,-3552.988522,18431.127956,5592.497135
151.679663,6365.771101,6735.874072,-1378.971896
151.679973,222.061783,13619.789333,-2757.943793
151.680282,-4441.235652,13027.624579,7354.516781
151.680592,962.267725,2960.823768,1302.362347
151.680901,3182.885551,3552.988522,-6511.811733
151.681211,-962.267725,592.164754,-2145.067394
151.681521,-2442.679609,8216.285956,-6511.811733
151.681830,148.041188,15914.427753,-7967.393179
151.682140,-0.000000,11473.192101,2987.772442
151.682449,4515.256246,10362.883188,4290.134789
151.682759,3849.070898,15396.283594,-3600.648841
151.683068,-1480.411884,5699.585753,306.438199
151.683378,-6291.750507,3108.864956,8733.488677
151.683687,2960.823768,4367.215058,-3600.648841
151.683997,-3923.091493,7550.100608,-12870.404366
151.684306,-5403.503377,14359.995275,-1915.238745
151.684616,444.123565,12139.377449,-1762.019645
151.684925,5921.647536,13323.706956,-9116.536426
151.685235,-4737.318029,11473.192101,5286.058936
151.685545,-2220.617826,10955.047942,4290.134789
151.685854,3997.112087,8660.409521,-5669.106685
151.686164,2664.741391,3923.091493,2834.553343
151.686473,-1924.535449,6735.874072,9269.755526
151.686783,518.144159,9104.533087,-2528.115143
151.687092,-2664.741391,7920.203579,-3983.696590
151.687402,-3182.885551,14359.995275,0.000000
151.687711,7105.977043,11843.295072,-15321.909960
151.688021,-1702.473667,9992.780217,-13100.233016
151.688330,-10510.924376,13545.768739,14632.424012
151.688640,5107.421000,6883.915261,3524.039291
151.688950,9474.636058,5921.647536,-8350.440928
151.689259,444.123565,11621.233289,12180.918418
151.689569,-8364.327145,6291.750507,17466.977354
151.689878,2516.700203,9030.512492,-9422.974625
151.690188,2590.720797,7846.182985,-11797.870669
151.690497,-4293.194464,13619.789333,-5132.839837
151.690807,-1998.556043,14878.139434,-13636.499864
151.691116,-3182.885551,10066.800811,-6741.640382
151.691426,-1332.370696,14063.912898,3983.696590
151.691735,8586.388927,5847.626942,-2987.772442
151.692045,592.164754,7402.059420,-383.047749
151.692355,-8734.430116,4737.318029,16317.834107
151.692664,7402.059420,4145.153275,5439.278036
151.692974,9178.553681,5403.503377,-12410.747068
151.693283,-6513.812290,9400.615463,2374.896044
151.693593,-3552.988522,11843.295072,8044.002729
151.693902,-740.205942,11325.150913,-11644.651570
151.694212,4441.235652,7920.203579,-5745.716235
151.694521,-3923.091493,13619.789333,1455.581446
151.694831,1258.350101,10510.924376,-12180.918418
151.695140,-518.144159,9770.718434,-4673.182538
151.695450,-1406.391290,10732.986159,9806.022374
151.695760,-3182.885551,7846.182985,1915.238745
151.696069,-518.144159,12509.480420,-5975.544884
151.696379,-4367.215058,11473.192101,2298.286494
151.696688,5699.585753,9474.636058,-5439.278036
151.696998,1184.329507,6513.812290,-11721.261119
151.697307,-5847.626942,9622.677246,1225.752797
151.697617,888.247130,9474.636058,-229.828649
151.697926,4589.276840,6217.729913,-10572.117872
151.698236,518.144159,7328.038826,-76.609550
151.698545,-2294.638420,9400.615463,7584.345430
151.698855,888.247130,8734.430116,-2834.553343
151.699165,6069.688724,3478.967927,-842.705048
151.699474,-4145.153275,8068.244768,4826.401637
151.699784,-5773.606348,7698.141797,-1608.800546
151.700093,-814.226536,11991.336260,-7967.393179
151.700403,1406.391290,13397.727550,-7048.078582
151.700712,444.123565,6661.853478,-5439.278036
151.701022,-2812.782580,12879.583391,-2604.724693
151.701331,-3182.885551,22132.157666,-3064.381992
151.701641,4219.173869,11621.233289,-5286.058936
151.701950,4589.276840,8438.347739,-995.924147
151.702260,-6217.729913,9400.615463,6818.249932
151.702570,-2368.659014,8956.491898,383.047749
151.702879,3330.926739,3256.906145,-6894.859482
151.703189,1110.308913,444.123565,1225.752797
151.703498,-814.226536,7550.100608,5209.449386
151.703808,-666.185348,9622.677246,-1915.238745
151.704117,1554.432478,11029.068536,-4136.915689
151.704427,-2368.659014,12435.459826,-1302.362347
151.704736,4737.318029,11843.295072,-5592.497135
151.705046,-4219.173869,14211.954086,-5745.716235
151.705355,-1998.556043,17468.860231,-2757.943793
151.705665,2886.803174,5329.482782,-5286.058936
151.705975,3849.070898,7994.224174,0.000000
151.706284,-3997.112087,10955.047942,10265.679673
151.706594,-1184.329507,9844.739029,6435.202183
151.706903,1184.329507,6587.832884,1685.410096
151.707213,-1480.411884,6365.771101,-153.219100
151.707522,-296.082377,10955.047942,-8350.440928
151.707832,1036.288319,12805.562797,-16930.710506
151.708141,1332.370696,10214.842000,-5745.716235
151.708451,-3997.112087,11473.192101,5056.230287
151.708760,5107.421000,8734.430116,1838.629195
151.709070,1850.514855,6069.688724,4060.306139
151.709380,-7105.977043,2590.720797,15092.081311
151.709689,-1924.535449,1554.432478,7277.907231
151.709999,7476.080014,7476.080014,-9039.926876
151.710308,-4959.379811,10510.924376,-13023.623466
151.710618,-1702.473667,15248.242405,-7890.783629
151.710927,-296.082377,21021.848753,-6205.373534
151.711237,-2146.597232,14211.954086,-612.876398
151.711546,370.102971,15618.345376,-2604.724693
151.711856,-0.000000,13175.665768,-1072.533697
151.712165,-962.267725,1332.370696,5592.497135
151.712475,-1110.308913,-592.164754,10189.070123
151.712785,5329.482782,6587.832884,-2068.457845
151.713094,2590.720797,5477.523971,-7737.564530
151.713404,-3256.906145,10807.006753,4979.620737
151.713713,592.164754,7772.162391,2681.334243
151.714023,4515.256246,13767.830521,-6665.030833
151.714332,-74.020594,13397.727550,1838.629195
151.714642,-74.020594,10510.924376,689.485948
151.714951,-666.185348,7031.956449,-6128.763984
151.715261,-3256.906145,9474.636058,536.266849
151.715570,-4737.318029,9104.533087,2757.943793
151.715880,1554.432478,12583.501014,-7431.126331
151.716190,-2368.659014,9400.615463,-6741.640382
151.716499,-5403.503377,11399.171507,153.219100
151.716809,-666.185348,13249.686362,-6281.983084
151.717118,2146.597232,10881.027347,-7354.516781
151.717428,-1184.329507,10881.027347,2528.115143
151.717737,3256.906145,6735.874072,-689.485948
151.718047,6809.894666,3849.070898,-5592.497135
151.718356,-962.267725,6513.812290,2451.505594
151.718666,3627.009116,3330.926739,6281.983084
151.718975,1998.556043,1036.288319,-1072.533697
151.719285,3034.844362,7624.121203,2374.896044
151.719595,-4293.194464,6957.935855,4749.792088
151.719904,-1406.391290,9548.656652,-3294.210641
151.720214,1850.514855,3108.864956,-8120.612279
151.720523,-1258.350101,13989.892304,-6511.811733
151.720833,-7328.038826,19615.457463,-4290.134789
151.721142,-1924.535449,16580.613101,-3294.210641
151.721452,1036.288319,16506.592507,-2757.943793
151.721761,6587.832884,15470.304188,-4136.915689
151.722071,-3330.926739,11547.212695,2681.334243
151.722380,-6069.688724,5403.503377,9269.755526
151.722690,3108.864956,7031.956449,-3753.867940
151.722999,6143.709319,4663.297435,-5745.716235
151.723309,-5403.503377,4219.173869,2298.286494
151.723619,-1480.411884,7920.203579,4443.353888
151.723928,4663.297435,10436.903782,-4060.306139
151.724238,4737.318029,7698.141797,-6128.763984
151.724547,-4367.215058,11843.295072,4519.963438
151.724857,-4071.132681,7031.956449,2528.115143
151.725166,4219.173869,8882.471304,-2374.896044
151.725476,-1850.514855,11621.233289,1762.019645
151.725786,518.144159,11621.233289,-1915.238745
151.726095,-2368.659014,12435.459826,-1532.190996
151.726405,-1406.391290,10807.006753,-1685.410096
151.726714,3478.967927,8956.491898,-4519.963438
151.727024,-3108.864956,11029.068536,995.924147
151.727334,-5107.421000,13989.892304,5286.058936
151.727643,370.102971,10436.903782,-3983.696590
151.727953,6365.771101,6439.791695,-8810.098227
151.728262,-5403.503377,2738.761985,-1991.848295
151.728572,-148.041188,4515.256246,4213.525239
151.728881,2516.700203,7105.977043,-5362.668486
151.729191,6069.688724,2886.803174,-1225.752797
151.729501,-5699.585753,8216.285956,12180.918418
151.729810,-5847.626942,12361.439231,7048.078582
151.730120,8808.450710,11917.315666,-12257.527968
151.730429,5995.668130,13989.892304,-6128.763984
151.730739,-2072.576638,11177.109724,3064.381992
151.731049,-4441.235652,14063.912898,2834.553343
151.731358,2886.803174,21317.931130,-2911.162892
151.731668,1702.473667,11843.295072,-9652.803275
151.731977,-0.000000,6957.935855,-3294.210641
151.732287,-2442.679609,5329.482782,3294.210641
151.732596,-1332.370696,3627.009116,3447.429741
151.732906,-666.185348,8512.368333,612.876398
151.733216,-2812.782580,6809.894666,995.924147
151.733525,-0.000000,11103.089130,-4290.134789
151.733835,5773.606348,11399.171507,-7354.516781
151.734144,3108.864956,8512.368333,-4826.401637
151.734454,-888.247130,2738.761985,3294.210641
151.734764,740.205942,3330.926739,7967.393179
151.735073,962.267725,9844.739029,3983.696590
151.735383,-1628.453072,7254.018232,3753.867940
151.735692,-3034.844362,9622.677246,6971.469032
151.736002,-2220.617826,10807.006753,-6128.763984
151.736311,-4219.173869,13249.686362,-16317.834107
151.736621,-2664.741391,17468.860231,-16164.615008
151.736931,-666.185348,18579.169144,-9269.755526
151.737240,2220.617826,19911.539840,-4290.134789
151.737550,3256.906145,13619.789333,-2757.943793
151.737859,3108.864956,10066.800811,3064.381992
151.738169,592.164754,-3997.112087,12180.918418
151.738479,518.144159,-6439.791695,13713.109414
151.738788,1184.329507,1554.432478,6358.592633
151.739098,6513.812290,10510.924376,-5362.668486
151.739407,-1776.494261,12065.356855,-5822.325785
151.739717,-3627.009116,12583.501014,-7660.954980
151.740026,740.205942,8512.368333,-11031.775171
151.740336,518.144159,15322.262999,-9193.145976
151.740646,814.226536,9844.739029,-3217.601092
151.740955,-1184.329507,12953.603985,6818.249932
151.741265,2590.720797,6883.915261,7814.174080
151.741574,-444.123565,8734.430116,2681.334243
151.741884,-3404.947333,14878.139434,1225.752797
151.742194,-2368.659014,9474.636058,-4673.182538
151.742503,4589.276840,11991.336260,-14172.766713
151.742813,-2072.576638,12583.501014,-14096.157163
151.743122,-4885.359217,9992.780217,536.266849
151.743432,-1924.535449,13471.748144,3524.039291
151.743741,11547.212695,7328.038826,-4213.525239
151.744051,-222.061783,1332.370696,919.314598
151.744361,-7105.977043,740.205942,14862.252661
151.744670,-74.020594,-2368.659014,9576.193725
151.744980,4737.318029,6883.915261,-4979.620737
151.745289,1406.391290,10732.986159,-6281.983084
151.745599,-5403.503377,16950.716072,-4290.134789
151.745909,-888.247130,13471.748144,-3830.477490
151.746218,222.061783,11843.295072,-9116.536426
151.746528,5847.626942,13989.892304,-9959.241474
151.746837,-2442.679609,13397.727550,3677.258390
151.747147,-6217.729913,10214.842000,14249.376263
151.747456,-1110.308913,9622.677246,4596.572988
151.747766,5477.523971,11399.171507,-10955.165621
151.748076,1184.329507,11991.336260,-7124.688131
151.748385,-8882.471304,10955.047942,306.438199
151.748695,-1110.308913,3256.906145,-306.438199
151.749004,4589.276840,5995.668130,-7201.297681
151.749314,-444.123565,6365.771101,-4443.353888
151.749624,1406.391290,4737.318029,5286.058936
151.749933,4367.215058,9030.512492,4136.915689
151.750243,2368.659014,3034.844362,1685.410096
151.750552,5033.400406,6365.771101,0.000000
151.750862,-222.061783,10066.800811,2451.505594
151.751171,-3034.844362,10955.047942,1608.800546
151.751481,-2664.741391,13989.892304,1225.752797
151.751791,518.144159,17024.736666,-3217.601092
151.752100,-1332.370696,9622.677246,-5056.230287
151.752410,-4589.276840,10510.924376,-5439.278036
151.752719,-666.185348,9104.533087,-7967.393179
151.753029,-3627.009116,10955.047942,-5592.497135
151.753339,-6439.791695,19689.478057,2451.505594
151.753648,6735.874072,12879.583391,-3064.381992
151.753958,2960.823768,6513.812290,-7431.126331
151.754267,-4219.173869,6661.853478,7124.688131
151.754577,-4515.256246,4219.173869,10112.460574
151.754886,4811.338623,5107.421000,-4443.353888
151.755196,8586.388927,3552.988522,-3983.696590
151.755506,296.082377,4959.379811,5669.106685
151.755815,-1036.288319,7550.100608,6435.202183
151.756125,1628.453072,11843.295072,-1608.800546
151.756434,-1702.473667,12213.398043,-4826.401637
151.756744,1258.350101,10288.862594,-8350.440928
151.757054,-5773.606348,12657.521608,-6971.469032
151.757363,-6365.771101,16654.633695,0.000000
151.757673,2738.761985,12731.542202,-5286.058936
151.757982,4367.215058,13619.789333,-9346.365076
151.758292,-3404.947333,5995.668130,6128.763984
151.758601,-1850.514855,9548.656652,10265.679673
151.758911,2368.659014,9770.718434,-1302.362347
151.759221,11991.336260,3182.885551,-2451.505594
151.759530,-4959.379811,4145.153275,7354.516781
151.759840,-5995.668130,8882.471304,7507.735880
151.760149,1036.288319,8068.244768,-5898.935335
151.760459,4959.379811,10807.006753,-12640.575717
151.760769,-3775.050304,7846.182985,-6281.983084
151.761078,-4663.297435,8512.368333,3983.696590
151.761388,-2664.741391,12435.459826,-306.438199
151.761697,9770.718434,10214.842000,-10265.679673
151.762007,1480.411884,8956.491898,-536.266849
151.762316,-5551.544565,12879.583391,15475.129060
151.762626,-148.041188,7994.224174,4596.572988
151.762936,9548.656652,12139.377449,-7277.907231
151.763245,-2072.576638,3627.009116,-2145.067394
151.763555,-7476.080014,9030.512492,5592.497135
151.763864,-4293.194464,11547.212695,-3217.601092
151.764174,5107.421000,12509.480420,-14249.376263
151.764484,-3701.029710,11917.315666,-8810.098227
151.764793,-5995.668130,8290.306550,-919.314598
151.765103,1628.453072,5551.544565,-612.876398
151.765412,-1184.329507,7031.956449,383.047749
151.765722,1850.514855,8734.430116,3600.648841
151.766032,3034.844362,9622.677246,5592.497135
151.766341,-148.041188,9178.553681,4060.306139
151.766651,6439.791695,10658.965565,-3294.210641
151.766960,-1332.370696,8734.430116,-3600.648841
151.767270,370.102971,14211.954086,306.438199
151.767579,-4515.256246,9696.697840,-5515.887586
151.767889,2072.576638,13471.748144,-10648.727422
151.768199,148.041188,4959.379811,-6511.811733
151.768508,740.205942,8956.491898,-459.657299
151.768818,-2886.803174,7105.977043,3600.648841
151.769127,2664.741391,6809.894666,4749.792088
151.769437,592.164754,9400.615463,2068.457845
151.769747,444.123565,11695.253884,-1838.629195
151.770056,4071.132681,13693.809927,-7584.345430
151.770366,2368.659014,13989.892304,-8963.317327
151.770675,-2886.803174,9474.636058,-3064.381992
151.770985,-3997.112087,9400.615463,3830.477490
151.771294,-3182.885551,13619.789333,-536.266849
151.771604,5995.668130,12361.439231,-12793.794817
151.771914,-1924.535449,11177.109724,-10265.679673
151.772223,-3701.029710,7254.018232,-842.705048
151.772533,-6883.915261,8882.471304,-4519.963438
151.772842,2886.803174,9918.759623,-10189.070123
151.773152,-2220.617826,11029.068536,-7354.516781
151.773462,-6291.750507,9474.636058,-3600.648841
151.773771,1480.411884,9178.553681,-7507.735880
151.774081,6661.853478,7698.141797,-13559.890315
151.774390,4219.173869,5033.400406,-12563.966167
151.774700,814.226536,3478.967927,-2298.286494
151.775009,-2516.700203,6365.771101,4749.792088
151.775319,222.061783,7994.224174,-536.266849
151.775629,3997.112087,11473.192101,-12104.308868
151.775938,2516.700203,11621.233289,-14862.252661
151.776248,-1924.535449,8438.347739,-10189.070123
151.776557,-4515.256246,8734.430116,-9422.974625
151.776867,5699.585753,11473.192101,-15321.909960
151.777177,1628.453072,11695.253884,-13942.938064
151.777486,-2442.679609,10288.862594,-4443.353888
151.777796,-5403.503377,10732.986159,-2374.896044
151.778105,7846.182985,11695.253884,-10648.727422
151.778415,7179.997637,8068.244768,-15781.567259
151.778724,-148.041188,5329.482782,-9346.365076
151.779034,222.061783,4663.297435,-5056.230287
151.779344,518.144159,6883.915261,-7814.174080
151.779653,888.247130,8216.285956,-4826.401637
151.779963,-1924.535449,11547.212695,-6818.249932
151.780272,370.102971,10955.047942,-10342.289223
151.780582,-740.205942,12065.356855,-13789.718964
151.780892,-962.267725,9104.533087,-19228.997000
151.781201,-4589.276840,10510.924376,-13713.109414
151.781511,1628.453072,11547.212695,-10955.165621
151.781820,-2146.597232,13989.892304,-10572.117872
151.782130,1554.432478,9992.780217,-8656.879127
151.782439,-4589.276840,9252.574275,-3217.601092
151.782749,370.102971,4737.318029,-7048.078582
151.783059,-2146.597232,5551.544565,-15245.300410
151.783368,2220.617826,7476.080014,-15704.957709
151.783678,-4145.153275,9400.615463,-9652.803275
151.783987,2886.803174,12805.562797,-8886.707777
151.784297,-1036.288319,9918.759623,-16930.710506
151.784607,4515.256246,4885.359217,-11031.775171
151.784916,-7846.182985,4145.153275,-3217.601092
151.785226,-1332.370696,6365.771101,-5515.887586
151.785535,5255.462188,7402.059420,-12104.308868
151.785845,5033.400406,10510.924376,-17696.806004
151.786154,-962.267725,10288.862594,-9806.022374
151.786464,-1998.556043,13619.789333,-4826.401637
151.786774,1184.329507,15692.365970,-12563.966167
151.787083,7476.080014,11991.336260,-17313.758255
151.787393,518.144159,10066.800811,-7584.345430
151.787702,-4589.276840,9474.636058,612.876398
151.788012,-2664.741391,8290.306550,-5209.449386
151.788322,2812.782580,13323.706956,-19918.482948
151.788631,-592.164754,9474.636058,-19458.825649
151.788941,-5255.462188,10881.027347,-9116.536426
151.789250,-2294.638420,11103.089130,-8350.440928
151.789560,-222.061783,12731.542202,-15858.176809
151.789869,4959.379811,9252.574275,-16624.272307
151.790179,-518.144159,6291.750507,-6511.811733
151.790489,740.205942,6069.688724,766.095498
151.790798,2960.823768,5477.523971,-995.924147
151.791108,-0.000000,6513.812290,-2911.162892
151.791417,-444.123565,6957.935855,-6281.983084
151.791727,-3849.070898,12139.377449,-12563.966167
151.792037,-2738.761985,16580.613101,-18309.682402
151.792346,-1776.494261,15396.283594,-18309.682402
151.792656,-3478.967927,17987.004391,-16547.662757
151.792965,-3775.050304,11917.315666,-13636.499864
151.793275,-2220.617826,8068.244768,-9806.022374
151.793584,-1628.453072,6809.894666,-7890.783629
151.793894,6217.729913,5329.482782,-9116.536426
151.794204,5181.441594,5255.462188,-2911.162892
151.794513,-222.061783,5255.462188,1762.019645
151.794823,-2516.700203,7624.121203,-383.047749
151.795132,1110.308913,11917.315666,-10572.117872
151.795442,1110.308913,11325.150913,-24285.227287
151.795752,-0.000000,13323.706956,-21374.064394
151.796061,-3182.885551,13397.727550,-16777.491406
151.796371,222.061783,11695.253884,-13789.718964
151.796680,-592.164754,9104.533087,-11491.432470
151.796990,2146.597232,9548.656652,-4290.134789
151.797299,-370.102971,11325.150913,-153.219100
151.797609,1924.535449,11103.089130,-6435.202183
151.797919,6143.709319,9548.656652,-13253.452115
151.798228,4515.256246,7772.162391,-14555.814462
151.798538,-4663.297435,8512.368333,-8044.002729
151.798847,-2590.720797,10955.047942,-7584.345430
151.799157,148.041188,10140.821405,-13330.061665
151.799467,-740.205942,9992.780217,-13866.328514
151.799776,-6587.832884,12583.501014,-12563.966167
151.800086,-74.020594,9992.780217,-15168.690860
151.800395,1554.432478,8216.285956,-18156.463303
151.800705,-666.185348,7105.977043,-12793.794817
151.801014,-2220.617826,7402.059420,-4366.744339
151.801324,2146.597232,8142.265362,-4290.134789
151.801634,2960.823768,7624.121203,-7201.297681
151.801943,-296.082377,6735.874072,-6741.640382
151.802253,-1776.494261,5995.668130,-7354.516781
151.802562,-2664.741391,10955.047942,-12257.527968
151.802872,666.185348,14137.933492,-18386.291952
151.803182,814.226536,15100.201217,-17620.196454
151.803491,-2294.638420,13323.706956,-10265.679673
151.803801,-1998.556043,13397.727550,-5822.325785
151.804110,-148.041188,7994.224174,-9422.974625
151.804420,962.267725,5921.647536,-10801.946522
151.804729,-1702.473667,4145.153275,-8886.707777
151.805039,-2146.597232,6513.812290,-7967.393179
151.805349,-666.185348,11473.192101,-10418.898773
151.805658,2812.782580,15692.365970,-14862.252661
151.805968,2442.679609,15322.262999,-16700.881856
151.806277,666.185348,13249.686362,-13100.233016
151.806587,1776.494261,9400.615463,-10035.851024
151.806897,4071.132681,3552.988522,-7048.078582
151.807206,2220.617826,1258.350101,-6052.154434
151.807516,-592.164754,-444.123565,-1225.752797
151.807825,-1776.494261,2220.617826,-2604.724693
151.808135,-1036.288319,6661.853478,-9806.022374
151.808444,666.185348,13619.789333,-16088.005458
151.808754,-1036.288319,15914.427753,-16624.272307
151.809064,-1628.453072,17394.839637,-16241.224558
151.809373,-1110.308913,16062.468941,-16241.224558
151.809683,-592.164754,10066.800811,-19228.997000
151.809992,-1036.288319,7254.018232,-8427.050478
151.810302,-1406.391290,7550.100608,-3447.429741
151.810612,666.185348,8364.327145,-5209.449386
151.810921,2442.679609,7031.956449,-11184.994271
151.811231,1998.556043,8586.388927,-14172.766713
151.811540,-666.185348,8216.285956,-13866.328514
151.811850,-518.144159,10658.965565,-12717.185267
151.812159,222.061783,11177.109724,-11031.775171
151.812469,1702.473667,9030.512492,-7354.516781
151.812779,-0.000000,4811.338623,-5898.935335
151.813088,-0.000000,2516.700203,-4060.306139
151.813398,1406.391290,3108.864956,-7814.174080
151.813707,2072.576638,7920.203579,-10112.460574
151.814017,-962.267725,10881.027347,-6435.202183
151.814327,444.123565,16432.571912,-7584.345430
151.814636,1406.391290,16062.468941,-13942.938064
151.814946,-222.061783,14285.974681,-13483.280765
151.815255,-2886.803174,12583.501014,-9039.926876
151.815565,-2368.659014,9104.533087,-10189.070123
151.815874,1554.432478,9030.512492,-12027.699319
151.816184,-888.247130,9252.574275,-7660.954980
151.816494,-1332.370696,8956.491898,-4673.182538
151.816803,2368.659014,8882.471304,-11031.775171
151.817113,666.185348,7550.100608,-9806.022374
151.817422,518.144159,6513.812290,-8120.612279
151.817732,592.164754,5699.585753,-6741.640382
151.818042,740.205942,7994.224174,-5209.449386
151.818351,-74.020594,5995.668130,-1685.410096
151.818661,444.123565,8364.327145,-5362.668486
151.818970,2442.679609,9252.574275,-8503.660028
151.819280,740.205942,9474.636058,-6511.811733
151.819589,-3404.947333,11769.274478,306.438199
151.819899,-1702.473667,12583.501014,-4903.011187
151.820209,-2442.679609,12287.418637,-10878.556072
151.820518,-4219.173869,10881.027347,-10648.727422
151.820828,-4959.379811,10066.800811,-9882.631924
151.821137,-2590.720797,8808.450710,-13253.452115
151.821447,-1924.535449,12213.398043,-14249.376263
151.821757,-1850.514855,13175.665768,-11874.480219
151.822066,-0.000000,13619.789333,-11491.432470
151.822376,-148.041188,13841.851115,-10265.679673
151.822685,-222.061783,13915.871710,-7737.564530
151.822995,-888.247130,13471.748144,-10648.727422
151.823304,1332.370696,10732.986159,-14785.643111
151.823614,-0.000000,8660.409521,-17313.758255
151.823924,-1702.473667,8364.327145,-20607.968896
151.824233,2072.576638,7105.977043,-15858.176809
151.824543,3552.988522,7550.100608,-11644.651570
151.824852,4293.194464,6957.935855,-6588.421283
151.825162,2220.617826,5329.482782,-3524.039291
151.825472,-0.000000,10881.027347,-6281.983084
151.825781,-1480.411884,7105.977043,-4366.744339
151.826091,-2220.617826,4885.359217,-14019.547613
151.826400,-2072.576638,9252.574275,-25970.637382
151.826710,-3552.988522,11695.253884,-26506.904231
151.827019,-1258.350101,20873.807564,-22982.864940
151.827329,-1924.535449,18209.066173,-17466.977354
151.827638,5403.503377,13989.892304,-17160.539155
151.827948,1036.288319,6883.915261,-7201.297681
151.828258,-518.144159,5403.503377,-1685.410096
151.828567,14285.974681,-6439.791695,-7277.907231
151.828877,-21539.992912,1258.350101,-3677.258390
151.829186,17098.757260,31088.649564,842.705048
151.829496,962.267725,9104.533087,-20454.749797
151.829805,11473.192101,2738.761985,-36006.488406
151.830115,-24500.816680,4589.276840,-8886.707777
151.830424,-7105.977043,22354.219448,-2374.896044
151.830734,1554.432478,18505.148550,-18616.120601
151.831043,2664.741391,9326.594869,-23595.741338
151.831353,-6143.709319,6513.812290,-9346.365076
151.831662,-9104.533087,-1850.514855,-9116.536426
151.831972,-1406.391290,12287.418637,-11797.870669
151.832282,296.082377,17098.757260,-8963.317327
151.832591,11251.130318,18061.024985,-21910.331243
151.832901,-1776.494261,7328.038826,-10418.898773
151.833210,-8364.327145,12139.377449,5362.668486
151.833520,-2368.659014,4959.379811,-7737.564530
151.833829,2590.720797,3849.070898,-29724.505322
151.834139,3923.091493,5773.606348,-20837.797546
151.834448,-7698.141797,5625.565159,-7048.078582
151.834758,-222.061783,8364.327145,-9959.241474
151.835067,7476.080014,13027.624579,-12640.575717
151.835377,8808.450710,7698.141797,-8810.098227
151.835687,-2220.617826,2664.741391,5669.106685
151.835996,-2664.741391,6291.750507,6052.154434
151.836306,1554.432478,7105.977043,-8656.879127
151.836615,7105.977043,12361.439231,-24744.884585
151.836925,-2072.576638,12435.459826,-20148.311597
151.837234,-1850.514855,16728.654289,-10495.508323
151.837544,2220.617826,17098.757260,-11951.089769
151.837853,2294.638420,18801.230927,-12870.404366
151.838163,-2664.741391,12213.398043,-766.095498
151.838472,-4885.359217,10288.862594,-1762.019645
151.838782,3478.967927,7179.997637,-11184.994271
151.839091,-148.041188,4219.173869,-17007.320056
151.839401,1036.288319,8068.244768,-14249.376263
151.839711,-0.000000,11547.212695,-2987.772442
151.840020,962.267725,13323.706956,-1991.848295
151.840330,-2220.617826,13915.871710,-1762.019645
151.840639,1776.494261,12509.480420,-5592.497135
151.840949,-296.082377,8512.368333,-8197.221829
151.841258,-2812.782580,4811.338623,-11184.994271
151.841568,-4811.338623,3182.885551,-12180.918418
151.841877,-3478.967927,6883.915261,-12334.137518
151.842187,-1702.473667,13397.727550,-8963.317327
151.842496,-4737.318029,16728.654289,-7584.345430
151.842806,2220.617826,13471.748144,-11721.261119
151.843115,2368.659014,10362.883188,-8963.317327
151.843425,-1406.391290,7031.956449,-1915.238745
151.843735,-1406.391290,5477.523971,-2987.772442
151.844044,-1776.494261,2664.741391,-8886.707777
151.844354,740.205942,14211.954086,-11951.089769
151.844663,2812.782580,11843.295072,-16547.662757
151.844973,2294.638420,13693.809927,-15245.300410
151.845282,-2738.761985,17616.901420,-8044.002729
151.845592,370.102971,11769.274478,-15475.129060
151.845901,222.061783,7105.977043,-14019.547613
151.846211,3849.070898,7846.182985,-7967.393179
151.846520,-2220.617826,2664.741391,-5362.668486
151.846830,-1406.391290,7476.080014,-2834.553343
151.847140,2664.741391,7402.059420,-8427.050478
151.847449,-666.185348,13249.686362,-18233.072852
151.847759,2590.720797,11769.274478,-19995.092498
151.848068,-3478.967927,10436.903782,-13406.671215
151.848378,-2294.638420,17838.963202,-12870.404366
151.848687,3182.885551,11103.089130,-18233.072852
151.848997,1332.370696,7846.182985,-17926.634653
151.849306,888.247130,5181.441594,-9346.365076
151.849616,-740.205942,1702.473667,-3524.039291
151.849925,2072.576638,5921.647536,-5209.449386
151.850235,6217.729913,10955.047942,-12487.356617
151.850544,6143.709319,12139.377449,-15475.129060
151.850854,-5181.441594,7772.162391,-11108.384721
151.851164,-5995.668130,11769.274478,-10035.851024
151.851473,-3701.029710,9252.574275,-16624.272307
151.851783,5625.565159,12731.542202,-23059.474490
151.852092,-4515.256246,7254.018232,-15781.567259
151.852402,-1998.556043,6957.935855,-3447.429741
151.852711,-5181.441594,10807.006753,-1532.190996
151.853021,7179.997637,10066.800811,-11491.432470
151.853330,-3182.885551,10510.924376,-12563.966167
151.853640,-2072.576638,10362.883188,-10418.898773
151.853949,-2294.638420,11399.171507,-9499.584175
151.854259,3256.906145,13101.645173,-19612.044749
151.854569,3256.906145,11473.192101,-18769.339701
151.854878,1110.308913,7476.080014,-8580.269578
151.855188,-4885.359217,10881.027347,-612.876398
151.855497,2516.700203,7846.182985,-3830.477490
151.855807,4959.379811,8586.388927,-13406.671215
151.856116,3701.029710,5625.565159,-15168.690860
151.856426,-1776.494261,7179.997637,-5975.544884
151.856735,888.247130,4737.318029,-5592.497135
151.857045,296.082377,9104.533087,-11338.213370
151.857354,-740.205942,11177.109724,-4213.525239
151.857664,1332.370696,8956.491898,-6281.983084
151.857973,-0.000000,6439.791695,-10495.508323
151.858283,-2368.659014,8290.306550,-11338.213370
151.858593,1702.473667,6439.791695,-6818.249932
151.858902,5033.400406,9178.553681,-5822.325785
151.859212,-1036.288319,8956.491898,-2604.724693
151.859521,-5181.441594,10584.944971,536.266849
151.859831,4441.235652,12139.377449,-5975.544884
151.860140,4145.153275,9548.656652,-11108.384721
151.860450,-5033.400406,14063.912898,-7967.393179
151.860759,-1480.411884,10732.986159,-5439.278036
151.861069,2886.803174,11769.274478,-12793.794817
151.861378,7994.224174,10436.903782,-7890.783629
151.861688,-2516.700203,10362.883188,3907.087040
151.861998,-2368.659014,9104.533087,6741.640382
151.862307,2590.720797,9400.615463,1762.019645
151.862617,-888.247130,6957.935855,1378.971896
151.862926,-74.020594,9918.759623,-1225.752797
151.863236,-2220.617826,8438.347739,-5439.278036
151.863545,-3552.988522,13175.665768,-6128.763984
151.863855,-4737.318029,11103.089130,-4060.306139
151.864164,-296.082377,16432.571912,-7431.126331
151.864474,296.082377,16284.530724,-4673.182538
151.864783,-5329.482782,13915.871710,1225.752797
151.865093,3330.926739,10732.986159,-766.095498
151.865402,1110.308913,4145.153275,-1685.410096
151.865712,-740.205942,8956.491898,4749.792088
151.866022,-1332.370696,6217.729913,3064.381992
151.866331,5773.606348,12213.398043,-7431.126331
151.866641,1406.391290,10214.842000,-7048.078582
151.866950,2516.700203,9104.533087,0.000000
151.867260,-2368.659014,8882.471304,842.705048
151.867569,-296.082377,11177.109724,-1532.190996
151.867879,1776.494261,7772.162391,-3294.210641
151.868188,1110.308913,9844.739029,-6435.202183
151.868498,-1406.391290,7402.059420,-1915.238745
151.868807,-4515.256246,9918.759623,2374.896044
151.869117,4589.276840,10658.965565,-6205.373534
151.869427,4589.276840,6661.853478,-8810.098227
151.869736,-2960.823768,10510.924376,8197.221829
151.870046,-1480.411884,10510.924376,5515.887586
151.870355,-888.247130,11695.253884,-7354.516781
151.870665,3108.864956,11991.336260,-9576.193725
151.870974,3627.009116,8586.388927,-1991.848295
151.871284,-2812.782580,12065.356855,-4443.353888
151.871593,-0.000000,14137.933492,-1378.971896
151.871903,2664.741391,11843.295072,383.047749
151.872212,5847.626942,11621.233289,-5209.449386
151.872522,7994.224174,3701.029710,-1608.800546
151.872831,-7772.162391,8290.306550,10955.165621
151.873141,-0.000000,4959.379811,3294.210641
151.873451,3478.967927,8586.388927,-11721.261119
151.873760,666.185348,13545.768739,-9499.584175
151.874070,-2220.617826,11547.212695,-2987.772442
151.874379,-4811.338623,16284.530724,-3983.696590
151.874689,-0.000000,9770.718434,-1608.800546
151.874998,4737.318029,11843.295072,1225.752797
151.875308,-3627.009116,5477.523971,-2681.334243
151.875617,-2220.617826,7105.977043,76.609550
151.875927,-0.000000,7624.121203,-1685.410096
151.876236,4737.318029,5403.503377,-10112.460574
151.876546,1702.473667,6143.709319,-5056.230287
151.876855,-5551.544565,10510.924376,6358.592633
151.877165,1258.350101,11103.089130,612.876398
151.877475,3923.091493,10584.944971,-7277.907231
151.877784,3627.009116,10658.965565,-3294.210641
151.878094,-1924.535449,6809.894666,-3524.039291
151.878403,-2738.761985,6513.812290,-5209.449386
151.878713,1998.556043,1184.329507,-1838.629195
151.879022,4589.276840,5699.585753,-919.314598
151.879332,2146.597232,8734.430116,1608.800546
151.879641,-2294.638420,9474.636058,6435.202183
151.879951,-444.123565,7402.059420,8733.488677
151.880260,5551.544565,8586.388927,-5898.935335
151.880570,-0.000000,8956.491898,-7048.078582
151.880880,-5181.441594,12065.356855,-229.828649
151.881189,-1628.453072,8290.306550,-3753.867940
151.881499,2664.741391,14582.057057,-9422.974625
151.881808,-518.144159,18653.189738,-842.705048
151.882118,-814.226536,15692.365970,1455.581446
151.882427,-1036.288319,11547.212695,-3294.210641
151.882737,3404.947333,6661.853478,2757.943793
151.883046,6217.729913,6439.791695,2987.772442
151.883356,2294.638420,6439.791695,-612.876398
151.883665,-2294.638420,7179.997637,7584.345430
151.883975,-1406.391290,8882.471304,11261.603821
151.884284,5625.565159,9326.594869,-6511.811733
151.884594,-3256.906145,10436.903782,-6052.154434
151.884904,-6513.812290,13619.789333,3907.087040
151.885213,-3034.844362,8290.306550,-4673.182538
151.885523,3701.029710,5255.462188,-8427.050478
151.885832,-148.041188,11621.233289,1685.410096
151.886142,-1332.370696,7698.141797,5592.497135
151.886451,-814.226536,8290.306550,5056.230287
151.886761,-1184.329507,6957.935855,7277.907231
151.887070,2146.597232,11103.089130,2221.676944
151.887380,2664.741391,11177.109724,-7277.907231
151.887689,-4219.173869,11621.233289,-2528.115143
151.887999,-1332.370696,13915.871710,-2451.505594
151.888309,1850.514855,10066.800811,-11184.994271
151.888618,222.061783,8512.368333,-6894.859482
151.888928,222.061783,8438.347739,3907.087040
151.889237,-1480.411884,5699.585753,5439.278036
151.889547,1110.308913,1776.494261,3524.039291
151.889856,-74.020594,8216.285956,5362.668486
151.890166,3182.885551,7772.162391,-4366.744339
151.890475,1258.350101,4219.173869,-7201.297681
151.890785,-4811.338623,10732.986159,3983.696590
151.891094,1110.308913,10881.027347,-4213.525239
151.891404,-0.000000,13101.645173,-7584.345430
151.891713,-222.061783,16728.654289,-766.095498
151.892023,1258.350101,9252.574275,-536.266849
151.892333,222.061783,11251.130318,-5515.887586
151.892642,-1110.308913,8142.265362,-1072.533697
151.892952,-3701.029710,6883.915261,4596.572988
151.893261,-3182.885551,10584.944971,153.219100
151.893571,2590.720797,12287.418637,-3600.648841
151.893880,-370.102971,16950.716072,-8350.440928
151.894190,1036.288319,10807.006753,-10495.508323
151.894499,3627.009116,8216.285956,-7124.688131
151.894809,-1998.556043,8290.306550,1072.533697
151.895118,222.061783,6291.750507,2681.334243
151.895428,3256.906145,8068.244768,1532.190996
151.895738,296.082377,5921.647536,4060.306139
151.896047,2516.700203,5107.421000,-689.485948
151.896357,1406.391290,8882.471304,-8580.269578
151.896666,-888.247130,7105.977043,-3600.648841
151.896976,-5551.544565,10214.842000,459.657299
151.897285,-1110.308913,13249.686362,-3294.210641
151.897595,3997.112087,12731.542202,-6741.640382
151.897904,-1702.473667,13175.665768,-2604.724693
151.898214,370.102971,9844.739029,76.609550
151.898523,-592.164754,4367.215058,536.266849
151.898833,-3923.091493,12435.459826,995.924147
151.899142,592.164754,8364.327145,842.705048
151.899452,222.061783,9474.636058,-1608.800546
151.899762,-444.123565,13471.748144,-383.047749
151.900071,370.102971,11029.068536,-2221.676944
151.900381,-2146.597232,10955.047942,-5975.544884
151.900690,222.061783,10658.965565,-6128.763984
151.901000,4737.318029,3923.091493,-5056.230287
151.901309,-2146.597232,12583.501014,4366.744339
151.901619,-3330.926739,6587.832884,6435.202183
151.901928,4589.276840,8882.471304,383.047749
151.902238,3034.844362,8438.347739,0.000000
151.902547,296.082377,5773.606348,5822.325785
151.902857,-6883.915261,8142.265362,2834.553343
151.903167,-1850.514855,11103.089130,-2681.334243
151.903476,1332.370696,10807.006753,-7660.954980
151.903786,-222.061783,12139.377449,-4979.620737
151.904095,-2220.617826,11251.130318,-2221.676944
151.904405,-4293.194464,10807.006753,2374.896044
151.904714,3627.009116,13101.645173,612.876398
151.905024,5181.441594,6439.791695,-3983.696590
151.905333,-1702.473667,11029.068536,3064.381992
151.905643,-3182.885551,9030.512492,6128.763984
151.905952,3849.070898,9400.615463,-4136.915689
151.906262,7476.080014,7624.121203,-8350.440928
151.906571,-4145.153275,7105.977043,2911.162892
151.906881,-7328.038826,11251.130318,6588.421283
151.907191,-0.000000,6661.853478,1991.848295
151.907500,7772.162391,8438.347739,-5286.058936
151.907810,-1332.370696,10510.924376,-5669.106685
151.908119,-888.247130,11103.089130,-3753.867940
151.908429,-1258.350101,9696.697840,-842.705048
151.908738,4367.215058,9696.697840,-1072.533697
151.909048,-0.000000,8956.491898,-536.266849
151.909357,-3701.029710,11177.109724,5132.839837
151.909667,888.247130,11029.068536,-2757.943793
151.909976,2664.741391,4515.256246,-9039.926876
151.910286,1998.556043,7994.224174,-1225.752797
151.910595,-2886.803174,10214.842000,7048.078582
151.910905,666.185348,7772.162391,0.000000
151.911215,1480.411884,9548.656652,766.095498
151.911524,4293.194464,6439.791695,3983.696590
151.911834,-8956.491898,12435.459826,3370.820191
151.912143,-6587.832884,9178.553681,0.000000
151.912453,1628.453072,9030.512492,-12717.185267
151.912762,5329.482782,6513.812290,-17007.320056
151.913072,-3923.091493,11769.274478,-3983.696590
151.913381,-7402.059420,14730.098246,10342.289223
151.913691,3552.988522,4959.379811,2911.162892
151.914000,6587.832884,3775.050304,-306.438199
151.914310,-4737.318029,3627.009116,12257.527968
151.914620,-888.247130,4663.297435,7890.783629
151.914929,-1480.411884,3849.070898,-5132.839837
151.915239,5477.523971,11547.212695,-15551.738609
151.915548,2368.659014,11843.295072,-8350.440928
151.915858,-4737.318029,14508.036463,-1838.629195
151.916167,-7105.977043,13323.706956,4979.620737
151.916477,-0.000000,17172.777854,2374.896044
151.916786,5329.482782,13989.892304,-9576.193725
151.917096,-74.020594,7328.038826,-8580.269578
151.917405,888.247130,9252.574275,-1915.238745
151.917715,-1184.329507,3923.091493,-1302.362347
151.918024,4663.297435,8586.388927,3677.258390
151.918334,-148.041188,14359.995275,8886.707777
151.918644,3034.844362,7772.162391,5362.668486
151.918953,-8660.409521,3034.844362,1455.581446
151.919263,-740.205942,4811.338623,0.000000
151.919572,6069.688724,5255.462188,-16088.005458
151.919882,-0.000000,7328.038826,-19458.825649
151.920191,-7105.977043,9992.780217,2681.334243
151.920501,888.247130,14508.036463,8580.269578
151.920810,6069.688724,9400.615463,-306.438199
151.921120,1628.453072,7994.224174,2145.067394
151.921429,-7994.224174,6735.874072,11184.994271
151.921739,888.247130,6439.791695,-1532.190996
151.922049,5403.503377,8438.347739,-14938.862211
151.922358,6217.729913,16432.571912,-11721.261119
151.922668,-74.020594,14804.118840,-1302.362347
151.922977,-5995.668130,10732.986159,7507.735880
151.923287,-3997.112087,13767.830521,9269.755526
151.923596,5699.585753,5329.482782,-4826.401637
151.923906,-370.102971,1924.535449,-8273.831378
151.924215,-5773.606348,5033.400406,2451.505594
151.924525,-0.000000,6513.812290,-229.828649
151.924834,-0.000000,5921.647536,-7737.564530
151.925144,888.247130,14804.118840,842.705048
151.925453,-1850.514855,11473.192101,4213.525239
151.925763,5625.565159,10658.965565,-3447.429741
151.926073,5995.668130,8290.306550,-2068.457845
151.926382,-2812.782580,12139.377449,6128.763984
151.926692,-5995.668130,6957.935855,3600.648841
151.927001,3330.926739,9844.739029,-2834.553343
151.927311,1776.494261,15766.386565,-7660.954980
151.927620,-1406.391290,14730.098246,-7737.564530
151.927930,-1258.350101,12361.439231,-8503.660028
151.928240,3034.844362,9992.780217,-7507.735880
151.928549,3627.009116,4811.338623,153.219100
151.928859,-5773.606348,6291.750507,9193.145976
151.929168,888.247130,6365.771101,11031.775171
151.929478,6143.709319,2516.700203,1532.190996
151.929787,1332.370696,2812.782580,-842.705048
151.930097,-5921.647536,6735.874072,2451.505594
151.930406,1184.329507,13841.851115,-4443.353888
151.930716,3256.906145,12583.501014,-10265.679673
151.931026,-1776.494261,18505.148550,-6741.640382
151.931335,-9030.512492,18875.251521,5132.839837
151.931645,-5847.626942,14211.954086,-3983.696590
151.931954,4737.318029,4515.256246,-11951.089769
151.932264,6587.832884,2960.823768,-7660.954980
151.932573,-6661.853478,9474.636058,612.876398
151.932883,-6439.791695,10658.965565,8503.660028
151.933193,5921.647536,13545.768739,4749.792088
151.933502,9622.677246,9326.594869,-3064.381992
151.933812,-2960.823768,6291.750507,-995.924147
151.934121,-5477.523971,2960.823768,4060.306139
151.934431,4663.297435,3404.947333,-3524.039291
151.934740,3034.844362,-666.185348,-5822.325785
151.935050,-3849.070898,8956.491898,4979.620737
151.935359,-3034.844362,13841.851115,5209.449386
151.935669,1110.308913,10584.944971,-919.314598
151.935979,-4811.338623,13323.706956,3370.820191
151.936288,-4219.173869,18061.024985,-766.095498
151.936598,1998.556043,18135.045579,-14172.766713
151.936907,-1258.350101,13915.871710,-12717.185267
151.937217,-5477.523971,11399.171507,-1455.581446
151.937526,1924.535449,12065.356855,-2221.676944
151.937836,3404.947333,11251.130318,-3600.648841
151.938146,3701.029710,5255.462188,7967.393179
151.938455,-1036.288319,1332.370696,12487.356617
151.938765,-2738.761985,2738.761985,7354.516781
151.939074,1702.473667,8290.306550,-2604.724693
151.939384,4589.276840,7476.080014,-11568.042020
151.939693,-0.000000,5033.400406,-12257.527968
151.940003,-1924.535449,12509.480420,-4903.011187
151.940312,3182.885551,13989.892304,-2757.943793
151.940622,370.102971,10807.006753,-1532.190996
151.940932,-6587.832884,7846.182985,12180.918418
151.941241,-9474.636058,9696.697840,10801.946522
151.941551,3034.844362,10807.006753,-9729.412825
151.941860,2886.803174,12139.377449,-18309.682402
151.942170,-2442.679609,13471.748144,-8503.660028
151.942479,-2072.576638,15322.262999,-3524.039291
151.942789,1702.473667,11547.212695,-2681.334243
151.943099,1554.432478,10066.800811,6971.469032
151.943408,-3627.009116,4885.359217,10342.289223
151.943718,888.247130,3404.947333,0.000000
151.944027,2442.679609,-2886.803174,-6435.202183
151.944337,370.102971,5403.503377,-6588.421283
151.944646,-2220.617826,6069.688724,-3447.429741
151.944956,-592.164754,13619.789333,1302.362347
151.945265,2146.597232,19097.313304,-536.266849
151.945575,-1776.494261,14582.057057,-2987.772442
151.945885,-2664.741391,14434.015869,-306.438199
151.946194,-1998.556043,5699.585753,-2451.505594
151.946504,3849.070898,7402.059420,-8580.269578
151.946813,-3701.029710,9474.636058,-3524.039291
151.947123,-1628.453072,11769.274478,229.828649
151.947432,4589.276840,7994.224174,-2068.457845
151.947742,296.082377,10658.965565,3370.820191
151.948052,-6217.729913,7254.018232,8810.098227
151.948361,-5773.606348,7772.162391,-2604.724693
151.948671,5329.482782,6735.874072,-15781.567259
151.948980,8364.327145,4737.318029,-11338.213370
151.949290,-2146.597232,9918.759623,0.000000
151.949599,-4293.194464,4737.318029,7967.393179
151.949909,6069.688724,9178.553681,8886.707777
151.950218,2590.720797,13693.809927,6588.421283
151.950528,-2516.700203,9030.512492,1608.800546
151.950838,-3775.050304,15396.283594,-1608.800546
151.951147,3627.009116,10658.965565,-13483.280765
151.951457,3404.947333,11103.089130,-16854.100956
151.951766,-4589.276840,12435.459826,0.000000
151.952076,-7105.977043,9622.677246,2681.334243
151.952385,-5107.421000,11399.171507,766.095498
151.952695,8438.347739,8956.491898,1149.143247
151.953005,5625.565159,1554.432478,-3064.381992
151.953314,-1850.514855,6439.791695,1072.533697
151.953624,-2368.659014,4663.297435,9806.022374
151.953933,1850.514855,1924.535449,10265.679673
151.954243,5181.441594,10732.986159,-3753.867940
151.954552,1554.432478,15470.304188,-2298.286494
151.954862,-7550.100608,17320.819043,4673.182538
151.955171,-2220.617826,13249.686362,-4060.306139
151.955481,4367.215058,15840.407159,-16547.662757
151.955791,-3923.091493,15396.283594,-10112.460574
151.956100,-6217.729913,13915.871710,-153.219100
151.956410,148.041188,11843.295072,-3217.601092
151.956719,6217.729913,8512.368333,-4749.792088
151.957029,-1258.350101,2368.659014,6128.763984
151.957338,-4293.194464,7105.977043,7660.954980
151.957648,1850.514855,2294.638420,1225.752797
151.957957,5921.647536,-222.061783,-3677.258390
151.958267,1702.473667,5625.565159,-3753.867940
151.958577,-1554.432478,11473.192101,-3524.039291
151.958886,-3997.112087,11029.068536,2681.334243
151.959196,-0.000000,13101.645173,3677.258390
151.959505,-814.226536,11029.068536,-6435.202183
151.959815,-4737.318029,20651.745782,-5286.058936
151.960124,-2368.659014,14730.098246,-4903.011187
151.960434,2294.638420,10881.027347,-12717.185267
151.960744,-1406.391290,12879.583391,-10035.851024
151.961053,-5921.647536,16358.551318,2528.115143
151.961363,-1924.535449,11473.192101,2911.162892
151.961672,5995.668130,8660.409521,689.485948
151.961982,2442.679609,3775.050304,4443.353888
151.962291,-666.185348,7105.977043,4290.134789
151.962601,2960.823768,444.123565,-153.219100
151.962910,-1406.391290,4145.153275,-612.876398
151.963220,-0.000000,5699.585753,-1378.971896
151.963530,1110.308913,6883.915261,-4443.353888
151.963839,-2368.659014,10362.883188,842.705048
151.964149,-2960.823768,12657.521608,4979.620737
151.964458,1332.370696,16506.592507,-4060.306139
151.964768,-1258.350101,14359.995275,-7737.564530
151.965077,-4515.256246,10807.006753,-3217.601092
151.965387,3182.885551,15322.262999,-2528.115143
151.965697,1258.350101,11769.274478,-3753.867940
151.966006,-2590.720797,9992.780217,2451.505594
151.966316,-2294.638420,11621.233289,3677.258390
151.966625,-1480.411884,9030.512492,612.876398
151.966935,-740.205942,1850.514855,-1072.533697
151.967244,962.267725,5403.503377,-7201.297681
151.967554,4515.256246,4515.256246,-11031.775171
151.967863,296.082377,2738.761985,-1685.410096
151.968173,-888.247130,9696.697840,9576.193725
151.968483,4589.276840,3256.906145,6511.811733
151.968792,-2516.700203,10436.903782,4136.915689
151.969102,-3404.947333,9252.574275,3983.696590
151.969411,7772.162391,9992.780217,-5975.544884
151.969721,-814.226536,15544.324782,-8580.269578
151.970030,-11769.274478,16654.633695,-4979.620737
151.970340,-1036.288319,19467.416275,-7737.564530
151.970650,8290.306550,15692.365970,-15858.176809
151.970959,3108.864956,11843.295072,-7201.297681
151.971269,-6291.750507,9474.636058,13713.109414
151.971578,-1332.370696,2368.659014,10495.508323
151.971888,6513.812290,2886.803174,1838.629195
151.972197,2886.803174,1924.535449,1378.971896
151.972507,1110.308913,2442.679609,-1225.752797
151.972816,-3182.885551,9992.780217,-3140.991542
151.973126,-0.000000,9918.759623,229.828649
151.973436,2072.576638,15692.365970,-1685.410096
151.973745,2442.679609,16654.633695,-8733.488677
151.974055,-2294.638420,10214.842000,-4443.353888
151.974364,-0.000000,15026.180623,1838.629195
151.974674,-1850.514855,9474.636058,919.314598
151.974983,-74.020594,5329.482782,76.609550
151.975293,2146.597232,8882.471304,2987.772442
151.975603,1998.556043,7179.997637,1685.410096
151.975912,-5403.503377,8068.244768,1915.238745
151.976222,-4071.132681,13545.768739,1608.800546
151.976531,4885.359217,13619.789333,-12793.794817
151.976841,1850.514855,9918.759623,-14096.157163
151.977150,-1184.329507,8586.388927,842.705048
151.977460,-2590.720797,7624.121203,4136.915689
151.977769,3034.844362,6291.750507,-995.924147
151.978079,4145.153275,9178.553681,4673.182538
151.978389,3478.967927,3330.926739,6588.421283
151.978698,-3330.926739,6069.688724,4749.792088
151.979008,-3701.029710,11399.171507,1608.800546
151.979317,5847.626942,13693.809927,-11874.480219
151.979627,2590.720797,13027.624579,-13330.061665
151.979936,-6957.935855,11769.274478,-2451.505594
151.980246,-2590.720797,15766.386565,1225.752797
151.980556,3478.967927,9918.759623,-7048.078582
151.980865,2812.782580,8586.388927,-3064.381992
151.981175,-5625.565159,9252.574275,9422.974625
151.981484,3923.091493,8882.471304,3907.087040
151.981794,2664.741391,7031.956449,-5132.839837
151.982103,1776.494261,9918.759623,-3064.381992
151.982413,1036.288319,8216.285956,-153.219100
151.982722,-2664.741391,8364.327145,-2987.772442
151.983032,-1776.494261,10140.821405,-766.095498
151.983342,666.185348,15618.345376,-1149.143247
151.983651,1924.535449,9622.677246,-6511.811733
151.983961,-518.144159,3108.864956,-2221.676944
151.984270,-148.041188,10510.924376,1762.019645
151.984580,-518.144159,7772.162391,-5515.887586
151.984889,2294.638420,10732.986159,-3294.210641
151.985199,3627.009116,10510.924376,1532.190996
151.985509,592.164754,9030.512492,-3600.648841
151.985818,-2812.782580,9992.780217,0.000000
151.986128,-2738.761985,8882.471304,4519.963438
151.986437,7402.059420,10732.986159,-3830.477490
151.986747,-1184.329507,11399.171507,-4903.011187
151.987056,-4145.153275,13323.706956,-306.438199
151.987366,-2886.803174,15618.345376,-2757.943793
151.987675,7105.977043,11547.212695,-10265.679673
151.987985,1628.453072,7402.059420,-7354.516781
151.988295,-1924.535449,9844.739029,1302.362347
151.988604,-1850.514855,2442.679609,6435.202183
151.988914,-148.041188,518.144159,4136.915689
151.989223,4811.338623,4885.359217,0.000000
151.989533,1184.329507,5033.400406,-1072.533697
151.989842,-3997.112087,9622.677246,1685.410096
151.990152,-148.041188,11769.274478,1838.629195
151.990461,4959.379811,19319.375086,-10112.460574
151.990771,444.123565,18135.045579,-8963.317327
151.991081,-6735.874072,14656.077652,1532.190996
151.991390,888.247130,10807.006753,-3447.429741
151.991700,-2294.638420,8882.471304,-5592.497135
151.992009,-1776.494261,5255.462188,4290.134789
151.992319,2368.659014,9622.677246,3983.696590
151.992628,1702.473667,2220.617826,-4519.963438
151.992938,-1332.370696,5181.441594,3370.820191
151.993248,2220.617826,5477.523971,5592.497135
151.993557,4663.297435,11177.109724,-4366.744339
151.993867,-2664.741391,13249.686362,1455.581446
151.994176,-0.000000,10288.862594,1838.629195
151.994486,4663.297435,8364.327145,-6588.421283
151.994795,-888.247130,8808.450710,-3140.991542
151.995105,-7105.977043,8216.285956,7431.126331
151.995414,-2664.741391,13175.665768,612.876398
151.995724,1110.308913,18061.024985,-10725.336972
151.996034,2516.700203,12953.603985,-9499.584175
151.996343,2516.700203,12065.356855,-4366.744339
151.996653,-1184.329507,5995.668130,-2145.067394
151.996962,-1924.535449,1258.350101,6665.030833
151.997272,-1184.329507,5921.647536,5439.278036
151.997581,-0.000000,2368.659014,-383.047749
151.997891,4959.379811,8882.471304,-1991.848295
151.998201,-0.000000,7254.018232,-1915.238745
151.998510,3552.988522,9178.553681,-4979.620737
151.998820,-1110.308913,14952.160028,842.705048
151.999129,1258.350101,15544.324782,4290.134789
151.999439,3701.029710,11029.068536,-612.876398
151.999748,-5181.441594,11029.068536,1072.533697
152.000058,-3849.070898,11695.253884,1685.410096
152.000367,4885.359217,13175.665768,-10495.508323
152.000677,-0.000000,11843.295072,-11414.822920
152.000987,-2590.720797,12731.542202,4519.963438
152.001296,-2516.700203,11769.274478,3907.087040
152.001606,2516.700203,9844.739029,-4136.915689
152.001915,1332.370696,9326.594869,-1991.848295
152.002225,3552.988522,3775.050304,1762.019645
152.002534,222.061783,-4737.318029,1225.752797
152.002844,-3552.988522,2960.823768,4903.011187
152.003154,2368.659014,5255.462188,4519.963438
152.003463,4219.173869,11399.171507,-2681.334243
152.003773,-444.123565,15544.324782,-5592.497135
152.004082,-2072.576638,16654.633695,-612.876398
152.004392,1998.556043,13619.789333,-8886.707777
152.004701,-592.164754,10658.965565,-7890.783629
152.005011,-2812.782580,11029.068536,-689.485948
152.005320,4515.256246,7105.977043,-1991.848295
152.005630,-2442.679609,5995.668130,3217.601092
152.005940,-4293.194464,6735.874072,12640.575717
152.006249,1702.473667,13249.686362,1608.800546
152.006559,5625.565159,9252.574275,-10342.289223
152.006868,-592.164754,11621.233289,-9806.022374
152.007178,-888.247130,7402.059420,-1991.848295
152.007487,4663.297435,9844.739029,-3294.210641
152.007797,-1110.308913,12435.459826,-612.876398
152.008107,2664.741391,9474.636058,8120.612279
152.008416,3552.988522,5107.421000,3524.039291
152.008726,-3256.906145,5255.462188,76.609550
152.009035,-2220.617826,9104.533087,2451.505594
152.009345,6217.729913,7846.182985,-5745.716235
152.009654,-814.226536,10066.800811,-7737.564530
152.009964,-8660.409521,12879.583391,3983.696590
152.010273,-1036.288319,15914.427753,-5515.887586
152.010583,5477.523971,9770.718434,-18845.949251
152.010893,2442.679609,10362.883188,-3677.258390
152.011202,-3701.029710,4515.256246,10725.336972
152.011512,-1110.308913,1406.391290,4903.011187
152.011821,-518.144159,10214.842000,6511.811733
152.012131,3330.926739,9178.553681,6281.983084
152.012440,4145.153275,10881.027347,-3983.696590
152.012750,-370.102971,12139.377449,-5362.668486
152.013060,-6217.729913,12953.603985,-2374.896044
152.013369,3330.926739,8586.388927,-6741.640382
152.013679,1850.514855,7698.141797,-8350.440928
152.013988,-5255.462188,7846.182985,2298.286494
152.014298,-518.144159,9474.636058,5592.497135
152.014607,444.123565,7105.977043,76.609550
152.014917,-1332.370696,6217.729913,2451.505594
152.015226,444.123565,12731.542202,-1455.581446
152.015536,2294.638420,6883.915261,-5056.230287
152.015846,1110.308913,11547.212695,-3600.648841
152.016155,-1110.308913,13619.789333,5439.278036
152.016465,518.144159,12139.377449,3753.867940
152.016774,-6143.709319,17468.860231,-2604.724693
152.017084,-1554.432478,9474.636058,-2451.505594
152.017393,4219.173869,5699.585753,-4596.572988
152.017703,-3034.844362,3404.947333,-5056.230287
152.018012,-740.205942,9178.553681,-3064.381992
152.018322,-740.205942,10881.027347,3600.648841
152.018632,-148.041188,9030.512492,-153.219100
152.018941,-1036.288319,9030.512492,1838.629195
152.019251,962.267725,13767.830521,-1302.362347
152.019560,4737.318029,3775.050304,-7201.297681
152.019870,-74.020594,5995.668130,0.000000
152.020179,740.205942,12509.480420,2987.772442
152.020489,3330.926739,11917.315666,-4060.306139
152.020799,-1702.473667,14582.057057,536.266849
152.021108,-1924.535449,16432.571912,4673.182538
152.021418,3997.112087,15248.242405,-6052.154434
152.021727,222.061783,9178.553681,-10112.460574
152.022037,-1702.473667,3404.947333,-2681.334243
152.022346,-3108.864956,6069.688724,-2068.457845
152.022656,1554.432478,4885.359217,-1378.971896
152.022965,740.205942,6365.771101,2145.067394
152.023275,1776.494261,9252.574275,6281.983084
152.023585,2072.576638,7624.121203,2604.724693
152.023894,-1628.453072,4367.215058,-1838.629195
152.024204,2368.659014,9770.718434,-612.876398
152.024513,814.226536,10732.986159,-3677.258390
152.024823,-6513.812290,15692.365970,-1762.019645
152.025132,-1258.350101,18579.169144,-995.924147
152.025442,6439.791695,14285.974681,-9806.022374
152.025752,-962.267725,10214.842000,-4903.011187
152.026061,-7105.977043,5477.523971,9422.974625
152.026371,-518.144159,6439.791695,1302.362347
152.026680,666.185348,7179.997637,-7507.735880
152.026990,-518.144159,9548.656652,536.266849
152.027299,148.041188,9400.615463,2068.457845
152.027609,3627.009116,7254.018232,-8503.660028
152.027919,5625.565159,6069.688724,-4826.401637
152.028228,1110.308913,5551.544565,8427.050478
152.028538,-3034.844362,4293.194464,9882.631924
152.028847,-4737.318029,13249.686362,8120.612279
152.029157,2220.617826,16062.468941,-1378.971896
152.029466,6143.709319,12361.439231,-18386.291952
152.029776,-2886.803174,12509.480420,-11491.432470
152.030086,-10066.800811,11843.295072,3524.039291
152.030395,2516.700203,13915.871710,-7354.516781
152.030705,1924.535449,10732.986159,-14172.766713
152.031014,-3330.926739,10584.944971,7354.516781
152.031324,-0.000000,11251.130318,9959.241474
152.031633,3849.070898,1332.370696,-4596.572988
152.031943,1110.308913,2072.576638,-2451.505594
152.032253,-2072.576638,3108.864956,6894.859482
152.032562,2738.761985,3627.009116,612.876398
152.032872,-370.102971,11843.295072,76.609550
152.033181,-2664.741391,16062.468941,1838.629195
152.033491,2294.638420,13397.727550,-7737.564530
152.033800,2664.741391,11769.274478,-8044.002729
152.034110,-6365.771101,8882.471304,-383.047749
152.034420,-2368.659014,5921.647536,-3140.991542
152.034729,296.082377,10510.924376,-7048.078582
152.035039,-666.185348,14285.974681,2221.676944
152.035348,4071.132681,11029.068536,3064.381992
