#time,accel_x,accel_y,accel_z
143.108507,888.247130,10362.883188,-1455.581446
143.108817,740.205942,9326.594869,-1149.143247
143.109126,-0.000000,8956.491898,-1532.190996
143.109436,222.061783,8808.450710,-1608.800546
143.109745,-666.185348,8586.388927,383.047749
143.110055,-74.020594,9548.656652,-1762.019645
143.110364,592.164754,10658.965565,-536.266849
143.110674,592.164754,9400.615463,-766.095498
143.110984,-0.000000,9622.677246,-995.924147
143.111293,-1406.391290,9918.759623,842.705048
143.111603,1110.308913,9400.615463,-2221.676944
143.111912,-962.267725,9104.533087,-1838.629195
143.112222,814.226536,10288.862594,-306.438199
143.112531,370.102971,9844.739029,0.000000
143.112841,-592.164754,8660.409521,-2068.457845
143.113151,296.082377,9400.615463,-1608.800546
143.113460,-0.000000,9030.512492,-1608.800546
143.113770,518.144159,9474.636058,-689.485948
143.114079,2146.597232,7846.182985,919.314598
143.114389,888.247130,8660.409521,689.485948
143.114698,1924.535449,7105.977043,612.876398
143.115008,3997.112087,6735.874072,1455.581446
143.115317,2590.720797,6587.832884,7584.345430
143.115627,2368.659014,6069.688724,8120.612279
143.115937,296.082377,5551.544565,10418.898773
143.116246,6809.894666,9400.615463,7354.516781
143.116556,4071.132681,5847.626942,3907.087040
143.116865,-592.164754,8512.368333,11874.480219
143.117175,-1332.370696,11843.295072,14709.033562
143.117484,1702.473667,10658.965565,7890.783629
143.117794,1406.391290,12065.356855,4213.525239
143.118104,-1776.494261,12361.439231,9729.412825
143.118413,-7179.997637,16358.551318,7737.564530
143.118723,-2442.679609,26425.352129,-2911.162892
143.119032,11621.233289,4885.359217,-2451.505594
143.119342,1110.308913,11473.192101,16164.615008
143.119651,-19023.292709,7772.162391,34550.906960
143.119961,5181.441594,21021.848753,7431.126331
143.120270,814.226536,3627.009116,-3830.477490
143.120580,-74.020594,10214.842000,3140.991542
143.120890,-14211.954086,4737.318029,11797.870669
143.121199,592.164754,12435.459826,-842.705048
143.121509,1702.473667,6217.729913,612.876398
143.121818,-8808.450710,5995.668130,13942.938064
143.122128,6513.812290,6365.771101,15015.471761
143.122437,-6883.915261,-962.267725,13942.938064
143.122747,3923.091493,5699.585753,14862.252661
143.123057,-4145.153275,5329.482782,14172.766713
143.123366,592.164754,6587.832884,995.924147
143.123676,592.164754,9622.677246,2911.162892
143.123985,-0.000000,14656.077652,536.266849
143.124295,3627.009116,11695.253884,-2757.943793
143.124604,962.267725,13619.789333,13330.061665
143.124914,1850.514855,10658.965565,23365.912689
143.125223,962.267725,3478.967927,20531.359346
143.125533,1554.432478,8808.450710,14555.814462
143.125843,-2294.638420,5329.482782,9882.631924
143.126152,3923.091493,13545.768739,-766.095498
143.126462,6439.791695,15470.304188,-6435.202183
143.126771,2368.659014,17987.004391,2604.724693
143.127081,-5699.585753,19171.333898,17850.025103
143.127390,-7920.203579,13397.727550,19765.263848
143.127700,2072.576638,11399.171507,5286.058936
143.128010,4219.173869,7772.162391,-7048.078582
143.128319,3034.844362,7698.141797,-995.924147
143.128629,-148.041188,8956.491898,13023.623466
143.128938,1406.391290,12361.439231,14479.204912
143.129248,296.082377,8438.347739,9959.241474
143.129557,4071.132681,5995.668130,7277.907231
143.129867,444.123565,-0.000000,2298.286494
143.130176,-6957.935855,2368.659014,5056.230287
143.130486,-3849.070898,7031.956449,2834.553343
143.130796,7698.141797,8808.450710,-7660.954980
143.131105,6809.894666,8734.430116,-4903.011187
143.131415,-1850.514855,7105.977043,16317.834107
143.131724,-7698.141797,9252.574275,25817.418283
143.132034,-148.041188,11325.150913,13330.061665
143.132343,5625.565159,9992.780217,-2298.286494
143.132653,-1850.514855,9992.780217,1455.581446
143.132962,-7105.977043,12287.418637,1762.019645
143.133272,-370.102971,13545.768739,-5132.839837
143.133582,8364.327145,15840.407159,-7354.516781
143.133891,4219.173869,11621.233289,8350.440928
143.134201,-5181.441594,7031.956449,26506.904231
143.134510,2368.659014,5329.482782,23595.741338
143.134820,4885.359217,4589.276840,6894.859482
143.135129,-148.041188,4293.194464,6665.030833
143.135439,74.020594,5773.606348,6894.859482
143.135749,5181.441594,4663.297435,-4443.353888
143.136058,592.164754,7994.224174,2451.505594
143.136368,-8882.471304,-1628.453072,18845.949251
143.136677,-9474.636058,14508.036463,15934.786358
143.136987,15618.345376,14878.139434,10112.460574
143.137296,-23612.569550,4663.297435,13713.109414
143.137606,11843.295072,18875.251521,3600.648841
143.137915,1702.473667,370.102971,-13636.499864
143.138225,888.247130,13841.851115,1685.410096
143.138535,-9622.677246,12657.521608,30260.772171
143.138844,1924.535449,15544.324782,11721.261119
143.139154,-74.020594,10807.006753,1838.629195
143.139463,-9326.594869,9844.739029,17620.196454
143.139773,5255.462188,10807.006753,11031.775171
143.140082,1480.411884,4589.276840,-11568.042020
143.140392,222.061783,16136.489536,3217.601092
143.140702,-4293.194464,13323.706956,20837.797546
143.141011,3404.947333,13397.727550,2834.553343
143.141321,7105.977043,11991.336260,2757.943793
143.141630,-6587.832884,10807.006753,23595.741338
143.141940,-2146.597232,10807.006753,23212.693589
143.142249,4219.173869,1258.350101,4213.525239
143.142559,4737.318029,6365.771101,5669.106685
143.142868,-3034.844362,2368.659014,12640.575717
143.143178,7328.038826,5699.585753,2757.943793
143.143488,-1406.391290,9770.718434,9806.022374
143.143797,-6661.853478,13027.624579,22676.426741
143.144107,3108.864956,13693.809927,11951.089769
143.144416,2812.782580,8216.285956,-1302.362347
143.144726,-3775.050304,5625.565159,5822.325785
143.145035,-10584.944971,7698.141797,14249.376263
143.145345,-0.000000,14285.974681,5286.058936
143.145655,1554.432478,12139.377449,459.657299
143.145964,6069.688724,14952.160028,7737.564530
143.146274,-2294.638420,13693.809927,16011.395908
143.146583,-7105.977043,11843.295072,12717.185267
143.146893,-148.041188,13249.686362,5669.106685
143.147202,2368.659014,7698.141797,-2451.505594
143.147512,4589.276840,6957.935855,-4673.182538
143.147821,-7105.977043,6661.853478,6588.421283
143.148131,296.082377,9474.636058,12563.966167
143.148441,-666.185348,6735.874072,11874.480219
143.148750,7698.141797,4589.276840,7507.735880
143.149060,-2072.576638,4663.297435,13636.499864
143.149369,-8808.450710,-0.000000,16700.881856
143.149679,6661.853478,8882.471304,1762.019645
143.149988,9400.615463,7031.956449,-9882.631924
143.150298,2368.659014,10510.924376,4519.963438
143.150607,-4145.153275,13249.686362,20378.140247
143.150917,3701.029710,8216.285956,15628.348159
143.151227,5847.626942,11103.089130,9959.241474
143.151536,-4737.318029,5107.421000,15168.690860
143.151846,-3701.029710,11399.171507,9882.631924
143.152155,666.185348,9992.780217,-9959.241474
143.152465,2442.679609,16876.695478,-16777.491406
143.152774,-1850.514855,14211.954086,842.705048
143.153084,-962.267725,16950.716072,9806.022374
143.153394,5699.585753,11843.295072,5669.106685
143.153703,592.164754,9400.615463,8963.317327
143.154013,-8586.388927,7994.224174,16088.005458
143.154322,-1850.514855,4367.215058,4596.572988
143.154632,9770.718434,3849.070898,-12257.527968
143.154941,6217.729913,6661.853478,-13023.623466
143.155251,-1480.411884,9918.759623,2298.286494
143.155560,-222.061783,4737.318029,9039.926876
143.155870,-0.000000,370.102971,13866.328514
143.156180,296.082377,3701.029710,12104.308868
143.156489,-1332.370696,3701.029710,5439.278036
143.156799,370.102971,3182.885551,-4903.011187
143.157108,2368.659014,13767.830521,-12410.747068
143.157418,-6069.688724,14137.933492,-8427.050478
143.157727,5403.503377,16654.633695,-7048.078582
143.158037,-592.164754,13323.706956,-3217.601092
143.158347,-8290.306550,15322.262999,19535.435199
143.158656,-5995.668130,14582.057057,19918.482948
143.158966,-592.164754,10140.821405,-3370.820191
143.159275,9030.512492,12435.459826,-14479.204912
143.159585,-2590.720797,5255.462188,-1608.800546
143.159894,3775.050304,12879.583391,-536.266849
143.160204,1406.391290,6883.915261,-3064.381992
143.160513,5773.606348,7846.182985,5439.278036
143.160823,-3701.029710,2516.700203,16011.395908
143.161133,-7031.956449,1924.535449,8273.831378
143.161442,10288.862594,2960.823768,-689.485948
143.161752,-3552.988522,-1110.308913,-766.095498
143.162061,5699.585753,11547.212695,4443.353888
143.162371,3701.029710,5699.585753,4903.011187
143.162680,3182.885551,10881.027347,-919.314598
143.162990,-7476.080014,10955.047942,6281.983084
143.163300,-3775.050304,15544.324782,5439.278036
143.163609,518.144159,19171.333898,-5898.935335
143.163919,-7254.018232,13471.748144,-9576.193725
143.164229,1110.308913,17024.736666,-10572.117872
143.164538,-2368.659014,8882.471304,-7048.078582
143.164848,296.082377,15840.407159,-3294.210641
143.165158,-4293.194464,10658.965565,7048.078582
143.165467,-1480.411884,14730.098246,5669.106685
143.165777,10140.821405,11325.150913,-5975.544884
143.166087,-1406.391290,1554.432478,-3677.258390
143.166397,-222.061783,5551.544565,9576.193725
143.166706,740.205942,-3182.885551,919.314598
143.167016,7698.141797,-740.205942,-9193.145976
143.167326,-4959.379811,5477.523971,13483.280765
143.167635,-1924.535449,8068.244768,15015.471761
143.167945,9622.677246,7402.059420,-7277.907231
143.168255,518.144159,11843.295072,-9576.193725
143.168564,-5699.585753,13915.871710,3753.867940
143.168874,-3478.967927,9770.718434,-2911.162892
143.169184,7550.100608,12879.583391,-12487.356617
143.169493,-7772.162391,11251.130318,2298.286494
143.169803,-7920.203579,18949.272115,8197.221829
143.170113,2516.700203,13915.871710,-4519.963438
143.170422,5699.585753,7772.162391,-11338.213370
143.170732,4737.318029,14952.160028,-842.705048
143.171042,-3330.926739,5551.544565,8886.707777
143.171351,2368.659014,2738.761985,3830.477490
143.171661,3701.029710,1998.556043,842.705048
143.171971,-2368.659014,3997.112087,2451.505594
143.172280,4959.379811,6069.688724,-2374.896044
143.172590,-74.020594,4811.338623,-766.095498
143.172900,1850.514855,14137.933492,842.705048
143.173209,2368.659014,10214.842000,383.047749
143.173519,3775.050304,10881.027347,-2757.943793
143.173829,-3552.988522,11843.295072,4136.915689
143.174138,-5921.647536,13841.851115,-1762.019645
143.174448,4811.338623,13989.892304,-11108.384721
143.174758,-2516.700203,14434.015869,-9882.631924
143.175067,-888.247130,18949.272115,0.000000
143.175377,-740.205942,11843.295072,-2834.553343
143.175687,-2072.576638,9696.697840,-6358.592633
143.175996,-3552.988522,3627.009116,4443.353888
143.176306,-2886.803174,3256.906145,5132.839837
143.176616,2146.597232,6809.894666,-5286.058936
143.176926,-888.247130,3182.885551,-5056.230287
143.177235,1628.453072,7476.080014,1225.752797
143.177545,2294.638420,4737.318029,-2145.067394
143.177855,1406.391290,4367.215058,995.924147
143.178164,-5033.400406,6069.688724,11874.480219
143.178474,222.061783,4663.297435,4213.525239
143.178784,4589.276840,6809.894666,-4749.792088
143.179093,-3552.988522,15618.345376,-2834.553343
143.179403,-2442.679609,14730.098246,-4749.792088
143.179713,3923.091493,15766.386565,-12793.794817
143.180022,666.185348,16506.592507,-9269.755526
143.180332,-7402.059420,11843.295072,6511.811733
143.180642,-2368.659014,11991.336260,8197.221829
143.180951,4515.256246,11473.192101,-5975.544884
143.181261,-3404.947333,13693.809927,-4903.011187
143.181571,2072.576638,10807.006753,1302.362347
143.181880,5255.462188,6735.874072,-8733.488677
143.182190,5033.400406,6439.791695,-8427.050478
143.182500,-2072.576638,8660.409521,9652.803275
143.182809,-3404.947333,3182.885551,9806.022374
143.183119,5403.503377,8660.409521,-1072.533697
143.183429,-5403.503377,5995.668130,2451.505594
143.183738,1924.535449,9474.636058,-1915.238745
143.184048,5995.668130,12065.356855,-11721.261119
143.184358,-3849.070898,9104.533087,-8503.660028
143.184667,-592.164754,12509.480420,5132.839837
143.184977,1258.350101,9992.780217,153.219100
143.185287,2886.803174,14211.954086,-5515.887586
143.185596,-10881.027347,10140.821405,8044.002729
143.185906,-592.164754,15026.180623,4366.744339
143.186216,9252.574275,9474.636058,-14249.376263
143.186526,4219.173869,8586.388927,-10648.727422
143.186835,-3256.906145,9178.553681,11414.822920
143.187145,-888.247130,3330.926739,7354.516781
143.187455,7772.162391,7476.080014,-3370.820191
143.187764,-6809.894666,2146.597232,7277.907231
143.188074,-1776.494261,8438.347739,6894.859482
143.188384,5551.544565,6291.750507,-6205.373534
143.188693,-592.164754,10214.842000,-7277.907231
143.189003,1776.494261,11991.336260,8733.488677
143.189313,2146.597232,6291.750507,919.314598
143.189622,5107.421000,15470.304188,-4060.306139
143.189932,-9770.718434,11621.233289,7814.174080
143.190242,-3404.947333,16358.551318,0.000000
143.190551,3997.112087,11473.192101,-14325.985813
143.190861,-1184.329507,16876.695478,-8733.488677
143.191171,-2738.761985,12213.398043,1991.848295
143.191480,-518.144159,5255.462188,-4060.306139
143.191790,3034.844362,10807.006753,-4136.915689
143.192100,-9326.594869,6661.853478,8273.831378
143.192409,2368.659014,9548.656652,536.266849
143.192719,6143.709319,6069.688724,-12410.747068
143.193029,-2442.679609,3849.070898,-229.828649
143.193338,-2442.679609,7254.018232,10035.851024
143.193648,-444.123565,4219.173869,-2757.943793
143.193958,7698.141797,8808.450710,-8963.317327
143.194267,-6439.791695,8290.306550,4749.792088
143.194577,-3552.988522,10732.986159,4749.792088
143.194887,5625.565159,11843.295072,-5515.887586
143.195196,-5551.544565,11103.089130,-3064.381992
143.195506,148.041188,14285.974681,-6128.763984
143.195816,1110.308913,7476.080014,-11644.651570
143.196125,-74.020594,15174.221811,-9806.022374
143.196435,-5255.462188,13471.748144,1302.362347
143.196745,3256.906145,14359.995275,-1378.971896
143.197055,7624.121203,7179.997637,-6511.811733
143.197364,-4959.379811,1406.391290,6281.983084
143.197674,2442.679609,5181.441594,10418.898773
143.197984,2960.823768,1480.411884,-3447.429741
143.198293,3997.112087,9178.553681,-3370.820191
143.198603,-5551.544565,11029.068536,6971.469032
143.198913,5181.441594,10584.944971,-5362.668486
143.199222,7476.080014,12731.542202,-18003.244203
143.199532,-6439.791695,12139.377449,-766.095498
143.199842,-2294.638420,10584.944971,9959.241474
143.200151,2516.700203,7402.059420,-5132.839837
143.200461,5625.565159,9474.636058,-4443.353888
143.200771,-6513.812290,9548.656652,11338.213370
143.201080,-3182.885551,13027.624579,4443.353888
143.201390,1924.535449,13989.892304,-10418.898773
143.201700,-1332.370696,13471.748144,-9652.803275
143.202009,-222.061783,16876.695478,-8197.221829
143.202319,-740.205942,8364.327145,-10572.117872
143.202629,-1036.288319,9992.780217,-2068.457845
143.202938,-6735.874072,5921.647536,9422.974625
143.203248,1702.473667,5033.400406,-1915.238745
143.203558,3997.112087,2220.617826,-2911.162892
143.203867,-6291.750507,3404.947333,7431.126331
143.204177,1036.288319,7402.059420,-1149.143247
143.204487,4663.297435,6143.709319,-11491.432470
143.204796,2220.617826,11547.212695,-2298.286494
143.205106,-4589.276840,9326.594869,6971.469032
143.205416,2812.782580,11769.274478,-3064.381992
143.205725,-1332.370696,10510.924376,-4136.915689
143.206035,-3256.906145,10658.965565,3294.210641
143.206345,370.102971,13841.851115,-1225.752797
143.206655,2368.659014,11103.089130,-6435.202183
143.206964,2516.700203,15026.180623,-8503.660028
143.207274,-3849.070898,11621.233289,76.609550
143.207584,-0.000000,13545.768739,-2757.943793
143.207893,4811.338623,9992.780217,-5362.668486
143.208203,-888.247130,9918.759623,-766.095498
143.208513,444.123565,8216.285956,6511.811733
143.208822,-666.185348,5995.668130,5209.449386
143.209132,6217.729913,10288.862594,-3140.991542
143.209442,-1924.535449,4219.173869,842.705048
143.209751,2516.700203,11399.171507,-4979.620737
143.210061,2146.597232,5921.647536,-4749.792088
143.210371,-4293.194464,11991.336260,1762.019645
143.210680,1406.391290,13841.851115,-612.876398
143.210990,814.226536,4959.379811,-7201.297681
143.211300,-0.000000,9474.636058,-3983.696590
143.211609,-7994.224174,9918.759623,4903.011187
143.211919,3108.864956,11843.295072,-3064.381992
143.212229,6809.894666,10881.027347,-11644.651570
143.212538,-3034.844362,9696.697840,153.219100
143.212848,-8734.430116,13989.892304,8350.440928
143.213158,888.247130,5033.400406,0.000000
143.213467,6883.915261,5995.668130,-12180.918418
143.213777,-6439.791695,8068.244768,-842.705048
143.214087,-7105.977043,8586.388927,5439.278036
143.214396,5329.482782,7179.997637,-5669.106685
143.214706,3256.906145,9844.739029,-8886.707777
143.215016,-962.267725,12435.459826,2068.457845
143.215325,-1628.453072,6291.750507,6588.421283
143.215635,1776.494261,8734.430116,-612.876398
143.215945,2220.617826,10436.903782,-5209.449386
143.216254,-1258.350101,13989.892304,0.000000
143.216564,962.267725,11695.253884,2528.115143
143.216874,-1184.329507,14582.057057,1915.238745
143.217184,1184.329507,12953.603985,-3983.696590
143.217493,-3775.050304,11621.233289,-2834.553343
143.217803,-518.144159,10584.944971,-4596.572988
143.218113,-3182.885551,5477.523971,-3600.648841
143.218422,1702.473667,10584.944971,-5132.839837
143.218732,1998.556043,5773.606348,-3830.477490
143.219042,-5329.482782,4885.359217,4596.572988
143.219351,-3404.947333,8734.430116,7277.907231
143.219661,3849.070898,4589.276840,-2987.772442
143.219971,2812.782580,9474.636058,-8503.660028
143.220280,-5403.503377,8586.388927,1149.143247
143.220590,1998.556043,9400.615463,-612.876398
143.220900,4145.153275,8586.388927,-8273.831378
143.221209,-4441.235652,7550.100608,6435.202183
143.221519,-0.000000,8808.450710,4903.011187
143.221829,3701.029710,8512.368333,-6358.592633
143.222138,1036.288319,11621.233289,-3064.381992
143.222448,-3627.009116,12139.377449,7660.954980
143.222758,4589.276840,11547.212695,-766.095498
143.223067,2368.659014,13175.665768,-11261.603821
143.223377,-4885.359217,11473.192101,-4213.525239
143.223687,-2812.782580,12805.562797,-3370.820191
143.223996,2442.679609,9548.656652,-10725.336972
143.224306,3775.050304,15544.324782,-8273.831378
143.224616,-3923.091493,10510.924376,4903.011187
143.224925,592.164754,7994.224174,4443.353888
143.225235,7402.059420,4885.359217,-4060.306139
143.225545,222.061783,1850.514855,2681.334243
143.225854,1924.535449,4959.379811,6205.373534
143.226164,-1332.370696,3701.029710,-3217.601092
143.226474,2072.576638,6661.853478,-8350.440928
143.226784,1850.514855,9252.574275,-3753.867940
143.227093,1110.308913,9770.718434,-2987.772442
143.227403,-0.000000,12435.459826,-1149.143247
143.227713,-11547.212695,11843.295072,7354.516781
143.228022,3330.926739,15544.324782,-2528.115143
143.228332,1554.432478,10658.965565,-15015.471761
143.228642,-0.000000,13545.768739,-8273.831378
143.228951,-6735.874072,14063.912898,1991.848295
143.229261,1332.370696,12435.459826,-3217.601092
143.229571,8586.388927,8216.285956,-8120.612279
143.229880,-5847.626942,5625.565159,6818.249932
143.230190,-3552.988522,8956.491898,14325.985813
143.230500,4441.235652,2960.823768,-3370.820191
143.230809,5403.503377,6883.915261,-12717.185267
143.231119,-4367.215058,6809.894666,383.047749
143.231429,-518.144159,7402.059420,1455.581446
143.231738,6587.832884,9252.574275,-12563.966167
143.232048,-2368.659014,11251.130318,-1915.238745
143.232358,-1924.535449,14359.995275,9806.022374
143.232667,-592.164754,9474.636058,0.000000
143.232977,3330.926739,13175.665768,-5439.278036
143.233287,-1924.535449,11621.233289,2451.505594
143.233596,-740.205942,12583.501014,-3753.867940
143.233906,8216.285956,12953.603985,-10189.070123
143.234216,-3034.844362,11843.295072,-1991.848295
143.234525,-2812.782580,12139.377449,4903.011187
143.234835,-2368.659014,6661.853478,766.095498
143.235145,592.164754,9400.615463,-5209.449386
143.235454,-3627.009116,3330.926739,76.609550
143.235764,-1110.308913,9474.636058,-2298.286494
143.236074,5995.668130,7920.203579,-8503.660028
143.236383,-2960.823768,4737.318029,-2451.505594
143.236693,-74.020594,9844.739029,8273.831378
143.237003,888.247130,5995.668130,7124.688131
143.237313,5995.668130,10807.006753,-3370.820191
143.237622,-4441.235652,9326.594869,153.219100
143.237932,-444.123565,12361.439231,1608.800546
143.238242,6439.791695,11399.171507,-7967.393179
143.238551,-3701.029710,7402.059420,-7507.735880
143.238861,370.102971,15692.365970,2451.505594
143.239171,-4515.256246,9770.718434,229.828649
143.239480,1998.556043,12287.418637,-7737.564530
143.239790,-3701.029710,13101.645173,-1378.971896
143.240100,370.102971,11399.171507,-2834.553343
143.240409,6291.750507,8660.409521,-9039.926876
143.240719,-1258.350101,5477.523971,2834.553343
143.241029,-2960.823768,8956.491898,13330.061665
143.241338,-518.144159,7179.997637,2145.067394
143.241648,3849.070898,7846.182985,-7431.126331
143.241958,-518.144159,9030.512492,-1608.800546
143.242267,-962.267725,9622.677246,-3600.648841
143.242577,6735.874072,10362.883188,-9652.803275
143.242887,-3627.009116,5625.565159,-2374.896044
143.243196,-888.247130,9992.780217,8427.050478
143.243506,-1850.514855,7846.182985,4826.401637
143.243816,2368.659014,9696.697840,-995.924147
143.244125,-592.164754,10732.986159,-842.705048
143.244435,-0.000000,13175.665768,-6511.811733
143.244745,5329.482782,11695.253884,-8350.440928
143.245054,-7105.977043,10436.903782,-1378.971896
143.245364,-1036.288319,12139.377449,-2528.115143
143.245674,-0.000000,6735.874072,-4596.572988
143.245983,-740.205942,14285.974681,-1685.410096
143.246293,-4219.173869,8734.430116,6205.373534
143.246603,6883.915261,8512.368333,-612.876398
143.246912,3923.091493,7698.141797,-8044.002729
143.247222,-888.247130,2146.597232,536.266849
143.247532,222.061783,4737.318029,6818.249932
143.247842,-888.247130,4219.173869,-2451.505594
143.248151,2368.659014,12287.418637,-3753.867940
143.248461,3627.009116,14137.933492,-459.657299
143.248771,-444.123565,9178.553681,-2681.334243
143.249080,3330.926739,14137.933492,-2374.896044
143.249390,-6735.874072,7328.038826,2528.115143
143.249700,-0.000000,13915.871710,-3753.867940
143.250009,1924.535449,12953.603985,-4979.620737
143.250319,222.061783,14137.933492,-9346.365076
143.250629,-6513.812290,14359.995275,-4366.744339
143.250938,1776.494261,12731.542202,-4979.620737
143.251248,3552.988522,9622.677246,-7660.954980
143.251558,-2886.803174,4663.297435,3217.601092
143.251867,-3701.029710,6513.812290,8963.317327
143.252177,4811.338623,2220.617826,-995.924147
143.252487,5995.668130,4589.276840,-8427.050478
143.252796,1924.535449,5033.400406,153.219100
143.253106,-592.164754,7105.977043,7967.393179
143.253416,4145.153275,9844.739029,0.000000
143.253725,-2516.700203,6143.709319,-3753.867940
143.254035,2146.597232,7402.059420,-919.314598
143.254345,-2738.761985,8956.491898,-1532.190996
143.254654,-3997.112087,15988.448347,-4903.011187
143.254964,-2220.617826,16580.613101,-6588.421283
143.255274,2368.659014,16062.468941,-8273.831378
143.255583,2442.679609,10658.965565,-7584.345430
143.255893,-7031.956449,12953.603985,4979.620737
143.256203,-2590.720797,13027.624579,10342.289223
143.256512,2738.761985,6069.688724,-4826.401637
143.256822,6365.771101,7624.121203,-7354.516781
143.257132,-3034.844362,6809.894666,8580.269578
143.257442,-3404.947333,5477.523971,4903.011187
143.257751,7402.059420,5847.626942,-11721.261119
143.258061,740.205942,4145.153275,-5439.278036
143.258371,-3256.906145,15248.242405,14249.376263
143.258680,1184.329507,4589.276840,2451.505594
143.258990,6217.729913,11547.212695,-6741.640382
143.259300,-3108.864956,14211.954086,3907.087040
143.259609,-3182.885551,9844.739029,6358.592633
143.259919,4589.276840,13323.706956,-3217.601092
143.260229,-3923.091493,9400.615463,-1991.848295
143.260538,2368.659014,16654.633695,1532.190996
143.260848,-2812.782580,13545.768739,-5056.230287
143.261158,1554.432478,14211.954086,-13789.718964
143.261467,-3182.885551,15100.201217,919.314598
143.261777,-4885.359217,12065.356855,1072.533697
143.262087,6587.832884,9400.615463,-3907.087040
143.262396,-1036.288319,1110.308913,612.876398
143.262706,-3997.112087,7328.038826,8044.002729
143.263016,3108.864956,2886.803174,1838.629195
143.263325,6069.688724,3997.112087,-7967.393179
143.263635,-222.061783,5921.647536,153.219100
143.263945,-3330.926739,8586.388927,11414.822920
143.264254,7179.997637,8956.491898,-2145.067394
143.264564,-3627.009116,7920.203579,-2987.772442
143.264874,2664.741391,15396.283594,5132.839837
143.265183,-1850.514855,10066.800811,842.705048
143.265493,-1554.432478,11547.212695,-10342.289223
143.265803,-1406.391290,16728.654289,-4596.572988
143.266113,-2812.782580,11769.274478,-4060.306139
143.266422,2738.761985,11991.336260,-7890.783629
143.266732,-3552.988522,14952.160028,-2987.772442
143.267042,1480.411884,11473.192101,3294.210641
143.267351,3478.967927,8216.285956,76.609550
143.267661,-296.082377,6809.894666,459.657299
143.267971,-1850.514855,4293.194464,9269.755526
143.268280,-1406.391290,6143.709319,5209.449386
143.268590,7328.038826,7624.121203,-9729.412825
143.268900,-2442.679609,4589.276840,-4060.306139
143.269209,1480.411884,8438.347739,6358.592633
143.269519,-0.000000,8216.285956,-1302.362347
143.269829,-888.247130,13915.871710,-6511.811733
143.270139,-1036.288319,11695.253884,2221.676944
143.270448,-3478.967927,7031.956449,2298.286494
143.270758,3775.050304,11769.274478,-3753.867940
143.271068,-7402.059420,11325.150913,-1991.848295
143.271377,3182.885551,10807.006753,-2757.943793
143.271687,2812.782580,10362.883188,-5515.887586
143.271997,-2368.659014,12879.583391,-459.657299
143.272306,-2368.659014,13249.686362,1072.533697
143.272616,-2368.659014,7698.141797,-2221.676944
143.272926,4293.194464,9474.636058,-2451.505594
143.273236,-5403.503377,6513.812290,3370.820191
143.273545,1332.370696,4959.379811,-1072.533697
143.273855,4737.318029,3256.906145,-6128.763984
143.274165,1628.453072,5033.400406,-1838.629195
143.274474,-2294.638420,6809.894666,7277.907231
143.274784,-1406.391290,8068.244768,5286.058936
143.275094,5625.565159,11991.336260,-6435.202183
143.275403,-4441.235652,7698.141797,-306.438199
143.275713,-444.123565,11843.295072,2757.943793
143.276023,-2294.638420,10140.821405,-1915.238745
143.276333,1776.494261,12509.480420,-5515.887586
143.276642,592.164754,13175.665768,-3677.258390
143.276952,-2368.659014,6513.812290,1991.848295
143.277262,-0.000000,13989.892304,76.609550
143.277571,-3997.112087,9622.677246,0.000000
143.277881,2146.597232,12509.480420,-1991.848295
143.278191,1332.370696,5255.462188,-459.657299
143.278500,-2368.659014,10732.986159,-1838.629195
143.278810,370.102971,6661.853478,-2145.067394
143.279120,2368.659014,4145.153275,-3294.210641
143.279429,2738.761985,6291.750507,0.000000
143.279739,-5551.544565,4737.318029,4213.525239
143.280049,3923.091493,7328.038826,5745.716235
143.280359,740.205942,4959.379811,-1378.971896
143.280668,-518.144159,10584.944971,-1608.800546
143.280978,-888.247130,14434.015869,-306.438199
143.281288,592.164754,10658.965565,-4826.401637
143.281597,2146.597232,14137.933492,-5975.544884
143.281907,-4589.276840,11695.253884,2528.115143
143.282217,-3330.926739,8882.471304,4673.182538
143.282526,1110.308913,10510.924376,229.828649
143.282836,-444.123565,12213.398043,-4826.401637
143.283146,444.123565,11843.295072,-4596.572988
143.283456,-1776.494261,9400.615463,-2604.724693
143.283765,3701.029710,10510.924376,-1532.190996
143.284075,-0.000000,2368.659014,1378.971896
143.284385,1332.370696,7624.121203,5209.449386
143.284694,444.123565,2146.597232,4136.915689
143.285004,-3997.112087,6143.709319,3140.991542
143.285314,3404.947333,7994.224174,-1225.752797
143.285623,1776.494261,5699.585753,-8197.221829
143.285933,2368.659014,11177.109724,-5745.716235
143.286243,-3701.029710,11621.233289,3753.867940
143.286552,-1554.432478,16062.468941,383.047749
143.286862,3034.844362,12731.542202,-766.095498
143.287172,-5181.441594,12065.356855,3064.381992
143.287482,-1702.473667,14878.139434,919.314598
143.287791,1628.453072,10955.047942,-7277.907231
143.288101,2368.659014,10288.862594,-8656.879127
143.288411,-2812.782580,8364.327145,-2298.286494
143.288720,-3552.988522,9104.533087,3294.210641
143.289030,5255.462188,5255.462188,2528.115143
143.289340,-5255.462188,9178.553681,2145.067394
143.289649,1480.411884,9400.615463,2834.553343
143.289959,1702.473667,1850.514855,-2757.943793
143.290269,6365.771101,7105.977043,-9959.241474
143.290579,-5699.585753,6439.791695,2068.457845
143.290888,-2590.720797,8882.471304,10955.165621
143.291198,666.185348,10510.924376,-4136.915689
143.291508,3330.926739,12213.398043,-9346.365076
143.291817,888.247130,16506.592507,153.219100
143.292127,-4515.256246,9474.636058,3217.601092
143.292437,3775.050304,10436.903782,-229.828649
143.292746,-518.144159,15026.180623,612.876398
143.293056,-4071.132681,10584.944971,-2451.505594
143.293366,1924.535449,11399.171507,-2604.724693
143.293675,-4441.235652,12731.542202,-7354.516781
143.293985,2664.741391,17468.860231,-9882.631924
143.294295,4219.173869,7550.100608,-4903.011187
143.294605,814.226536,5477.523971,76.609550
143.294914,-5329.482782,5329.482782,10878.556072
143.295224,2220.617826,4663.297435,9806.022374
143.295534,3330.926739,1480.411884,-3217.601092
143.295843,-5107.421000,4885.359217,-1302.362347
143.296153,6069.688724,12657.521608,-612.876398
143.296463,3701.029710,5995.668130,-12027.699319
143.296772,2294.638420,13693.809927,-8963.317327
143.297082,-8512.368333,14952.160028,8733.488677
143.297392,-814.226536,10214.842000,4136.915689
143.297702,5329.482782,8808.450710,-6281.983084
143.298011,-5403.503377,11695.253884,1532.190996
143.298321,3182.885551,10658.965565,2068.457845
143.298631,2442.679609,8216.285956,-8120.612279
143.298940,1480.411884,14878.139434,-4903.011187
143.299250,-7402.059420,13767.830521,5439.278036
143.299560,-1480.411884,13471.748144,-2451.505594
143.299869,4441.235652,13027.624579,-12257.527968
143.300179,814.226536,8068.244768,-4443.353888
143.300489,-1924.535449,7550.100608,5132.839837
143.300798,-888.247130,2960.823768,1762.019645
143.301108,3034.844362,1628.453072,1991.848295
143.301418,-592.164754,3775.050304,6435.202183
143.301728,-3256.906145,5921.647536,3064.381992
143.302037,3701.029710,10362.883188,-3753.867940
143.302347,1554.432478,12287.418637,-4443.353888
143.302657,2294.638420,15174.221811,-9422.974625
143.302966,-2220.617826,10436.903782,-689.485948
143.303276,-2738.761985,9770.718434,5362.668486
143.303586,-2442.679609,9918.759623,1608.800546
143.303895,1110.308913,15396.283594,-5439.278036
143.304205,962.267725,15840.407159,-6894.859482
143.304515,-4441.235652,8216.285956,-3830.477490
143.304825,-2146.597232,17987.004391,-1378.971896
143.305134,2812.782580,11843.295072,-5822.325785
143.305444,1332.370696,6661.853478,-6052.154434
143.305754,-2220.617826,10584.944971,6741.640382
143.306063,-148.041188,3849.070898,7277.907231
143.306373,3478.967927,-3849.070898,-2145.067394
143.306683,-2220.617826,2368.659014,3140.991542
143.306992,-0.000000,7846.182985,6971.469032
143.307302,4737.318029,3552.988522,-5056.230287
143.307612,2368.659014,11399.171507,-5132.839837
143.307921,-7698.141797,12879.583391,4136.915689
143.308231,-4737.318029,12879.583391,-1455.581446
143.308541,6439.791695,15174.221811,-16471.053207
143.308851,-0.000000,12287.418637,-10725.336972
143.309160,-4219.173869,16876.695478,3600.648841
143.309470,1110.308913,11917.315666,2834.553343
143.309780,-296.082377,7476.080014,76.609550
143.310089,-1628.453072,8216.285956,7124.688131
143.310399,-0.000000,7550.100608,0.000000
143.310709,3478.967927,9252.574275,-9882.631924
143.311018,-3108.864956,10436.903782,-5439.278036
143.311328,-296.082377,12583.501014,-1915.238745
143.311638,4811.338623,6957.935855,-6052.154434
143.311948,1036.288319,4219.173869,-3140.991542
143.312257,-5699.585753,3552.988522,7201.297681
143.312567,-0.000000,6439.791695,3447.429741
143.312877,9474.636058,3701.029710,-2757.943793
143.313186,-6291.750507,7624.121203,5439.278036
143.313496,-1702.473667,14952.160028,9193.145976
143.313806,5699.585753,8956.491898,-7660.954980
143.314115,1924.535449,13767.830521,-12563.966167
143.314425,-5329.482782,20577.725188,-1455.581446
143.314735,-4293.194464,14952.160028,-5056.230287
143.315045,2590.720797,12583.501014,-12410.747068
143.315354,-3404.947333,15396.283594,-76.609550
143.315664,-3923.091493,8216.285956,4596.572988
143.315974,4441.235652,2590.720797,-3907.087040
143.316283,4589.276840,4885.359217,-3370.820191
143.316593,-3701.029710,8438.347739,6818.249932
143.316903,-74.020594,6587.832884,7354.516781
143.317212,6069.688724,1850.514855,-4979.620737
143.317522,-888.247130,8142.265362,76.609550
143.317832,296.082377,13101.645173,2068.457845
143.318141,3627.009116,5255.462188,-8273.831378
143.318451,1924.535449,9400.615463,-5515.887586
143.318761,-7105.977043,10658.965565,10265.679673
143.319071,-2294.638420,13693.809927,5898.935335
143.319380,2886.803174,15026.180623,-12487.356617
143.319690,-1110.308913,14878.139434,-7124.688131
143.320000,-148.041188,17616.901420,-3370.820191
143.320309,-444.123565,9918.759623,-4673.182538
143.320619,-1036.288319,10881.027347,995.924147
143.320929,-2812.782580,9770.718434,4443.353888
143.321238,1184.329507,8512.368333,-1762.019645
143.321548,962.267725,7105.977043,-1532.190996
143.321858,-3108.864956,5551.544565,1225.752797
143.322168,1480.411884,5847.626942,-689.485948
143.322477,5773.606348,4293.194464,-6588.421283
143.322787,-4293.194464,4811.338623,-2757.943793
143.323097,-4737.318029,8364.327145,5975.544884
143.323406,4737.318029,7254.018232,-1608.800546
143.323716,962.267725,9992.780217,-8733.488677
143.324026,-2960.823768,12287.418637,8197.221829
143.324335,1702.473667,13471.748144,842.705048
143.324645,3034.844362,6439.791695,-9806.022374
143.324955,3627.009116,16876.695478,-2145.067394
143.325264,-8290.306550,12139.377449,6281.983084
143.325574,-3108.864956,9474.636058,1532.190996
143.325884,3478.967927,13693.809927,-8963.317327
143.326194,518.144159,8216.285956,-7737.564530
143.326503,-2738.761985,12435.459826,-2834.553343
143.326813,-2664.741391,8142.265362,-2451.505594
143.327123,2960.823768,6957.935855,-3600.648841
143.327432,-296.082377,7031.956449,4366.744339
143.327742,-666.185348,6217.729913,4826.401637
143.328052,1776.494261,5403.503377,-689.485948
143.328361,1924.535449,3034.844362,0.000000
143.328671,-222.061783,9622.677246,0.000000
143.328981,1480.411884,7254.018232,-4290.134789
143.329291,1036.288319,9548.656652,-3294.210641
143.329600,-3997.112087,11547.212695,1225.752797
143.329910,3108.864956,11103.089130,-1302.362347
143.330220,-0.000000,9474.636058,-6588.421283
143.330529,-6365.771101,14137.933492,2145.067394
143.330839,-5921.647536,15470.304188,3370.820191
143.331149,3775.050304,10214.842000,-12180.918418
143.331458,1332.370696,7994.224174,-11261.603821
143.331768,-4515.256246,13249.686362,4136.915689
143.332078,-888.247130,8660.409521,3907.087040
143.332387,4071.132681,7179.997637,-3600.648841
143.332697,-2368.659014,10362.883188,3294.210641
143.333007,-1924.535449,6587.832884,7507.735880
143.333317,4737.318029,4219.173869,-7967.393179
143.333626,2886.803174,7179.997637,-8350.440928
143.333936,-3404.947333,9770.718434,4136.915689
143.334246,-0.000000,9474.636058,2681.334243
143.334555,1480.411884,10510.924376,-9652.803275
143.334865,-1184.329507,13989.892304,-2221.676944
143.335175,-1036.288319,12805.562797,-1685.410096
143.335484,6069.688724,11843.295072,-3983.696590
143.335794,-1924.535449,9030.512492,2834.553343
143.336104,-5699.585753,11177.109724,8120.612279
143.336414,4219.173869,11251.130318,-3753.867940
143.336723,1036.288319,7328.038826,-7201.297681
143.337033,-4737.318029,13989.892304,2451.505594
143.337343,740.205942,10807.006753,-1838.629195
143.337652,4811.338623,7846.182985,-11951.089769
143.337962,-3923.091493,8438.347739,383.047749
143.338272,-3108.864956,5995.668130,9652.803275
143.338581,4589.276840,5033.400406,-3217.601092
143.338891,1850.514855,7179.997637,-4596.572988
143.339201,-4515.256246,5995.668130,5669.106685
143.339510,2664.741391,8142.265362,-1378.971896
143.339820,2664.741391,11843.295072,-10878.556072
143.340130,-370.102971,9992.780217,-383.047749
143.340440,-666.185348,11991.336260,6281.983084
143.340749,2516.700203,10881.027347,459.657299
143.341059,-2368.659014,11473.192101,1149.143247
143.341369,-2442.679609,10362.883188,3600.648841
143.341678,2516.700203,12805.562797,-8886.707777
143.341988,2146.597232,9770.718434,-14096.157163
143.342298,-5921.647536,8586.388927,1302.362347
143.342607,-3997.112087,11769.274478,8120.612279
143.342917,5107.421000,9992.780217,-5209.449386
143.343227,2146.597232,8734.430116,-4673.182538
143.343537,-5403.503377,8882.471304,7354.516781
143.343846,-370.102971,7254.018232,4519.963438
143.344156,4811.338623,3108.864956,-5898.935335
143.344466,1110.308913,6957.935855,-2451.505594
143.344775,-0.000000,7402.059420,4213.525239
143.345085,222.061783,5181.441594,-306.438199
143.345395,296.082377,10807.006753,-1991.848295
143.345704,-4811.338623,12509.480420,2604.724693
143.346014,-592.164754,13841.851115,-5439.278036
143.346324,2960.823768,12435.459826,-12717.185267
143.346633,-1258.350101,11399.171507,-4290.134789
143.346943,-4663.297435,12361.439231,4366.744339
143.347253,3404.947333,8586.388927,-2451.505594
143.347563,1184.329507,8586.388927,-1072.533697
143.347872,-4885.359217,10362.883188,5975.544884
143.348182,-296.082377,10436.903782,76.609550
143.348492,7846.182985,10066.800811,-11414.822920
143.348801,222.061783,6365.771101,-5822.325785
143.349111,-4145.153275,9400.615463,8197.221829
143.349421,3701.029710,6365.771101,1991.848295
143.349730,2516.700203,5921.647536,-2528.115143
143.350040,-2516.700203,7624.121203,0.000000
143.350350,-3256.906145,5329.482782,3677.258390
143.350660,4515.256246,11103.089130,-5209.449386
143.350969,3256.906145,11991.336260,-7660.954980
143.351279,444.123565,13027.624579,-4366.744339
143.351589,666.185348,9992.780217,2221.676944
143.351898,-1998.556043,9474.636058,3294.210641
143.352208,-2072.576638,13101.645173,1378.971896
143.352518,3627.009116,11251.130318,-3064.381992
143.352827,4219.173869,11177.109724,-8886.707777
143.353137,-1850.514855,8364.327145,-2987.772442
143.353447,-3997.112087,7624.121203,4749.792088
143.353757,814.226536,7105.977043,2451.505594
143.354066,2072.576638,8586.388927,-4136.915689
143.354376,-3256.906145,8956.491898,-2911.162892
143.354686,-6439.791695,7105.977043,3217.601092
143.354995,3701.029710,6439.791695,-4749.792088
143.355305,6069.688724,7772.162391,-10878.556072
143.355615,1702.473667,8808.450710,-229.828649
143.355924,-4145.153275,6809.894666,12180.918418
143.356234,444.123565,10436.903782,4749.792088
143.356544,5625.565159,10140.821405,-4673.182538
143.356853,-444.123565,10140.821405,3064.381992
143.357163,-666.185348,13101.645173,-2221.676944
143.357473,-814.226536,10362.883188,-6818.249932
143.357783,-370.102971,12139.377449,-4519.963438
143.358092,-962.267725,11769.274478,0.000000
143.358402,-0.000000,11547.212695,-7124.688131
143.358712,-1998.556043,11399.171507,-1915.238745
143.359021,-518.144159,11769.274478,2451.505594
143.359331,5329.482782,7254.018232,-7124.688131
143.359641,1036.288319,5995.668130,-1608.800546
143.359950,-5181.441594,9252.574275,11797.870669
143.360260,2368.659014,4071.132681,5898.935335
143.360570,7402.059420,7328.038826,-7814.174080
143.360880,-2812.782580,7624.121203,229.828649
143.361189,-9252.574275,10807.006753,11568.042020
143.361499,5329.482782,9918.759623,-6741.640382
143.361809,2368.659014,10436.903782,-17850.025103
143.362118,-2072.576638,17098.757260,-842.705048
143.362428,2664.741391,10510.924376,2757.943793
143.362738,-1850.514855,6217.729913,-3830.477490
143.363047,-6069.688724,12287.418637,6281.983084
143.363357,2146.597232,12213.398043,4213.525239
143.363667,4885.359217,9474.636058,-12717.185267
143.363976,1554.432478,5995.668130,-3064.381992
143.364286,-4071.132681,9548.656652,8580.269578
143.364596,962.267725,6291.750507,0.000000
143.364905,6661.853478,7994.224174,-6511.811733
143.365215,-6143.709319,7772.162391,7890.783629
143.365524,-2664.741391,9474.636058,3830.477490
143.365834,8734.430116,4219.173869,-10265.679673
143.366144,1702.473667,6735.874072,-8580.269578
143.366453,-5329.482782,9104.533087,2911.162892
143.366763,4367.215058,11843.295072,1302.362347
143.367072,2886.803174,12287.418637,-4903.011187
143.367382,-1776.494261,12731.542202,2221.676944
143.367691,-74.020594,12509.480420,2528.115143
143.368001,1628.453072,8586.388927,-1838.629195
143.368311,1850.514855,11473.192101,-3294.210641
143.368620,-4959.379811,10732.986159,1225.752797
143.368930,444.123565,10955.047942,-2987.772442
143.369239,-814.226536,9474.636058,-4596.572988
143.369549,-1554.432478,13323.706956,-3524.039291
143.369859,-1998.556043,11399.171507,-3753.867940
143.370168,518.144159,6513.812290,-2451.505594
143.370478,-666.185348,8956.491898,2528.115143
143.370787,296.082377,4145.153275,2221.676944
143.371097,3923.091493,4811.338623,-1915.238745
143.371407,-2146.597232,6661.853478,919.314598
143.371716,-0.000000,8512.368333,3907.087040
143.372026,1924.535449,13175.665768,383.047749
143.372335,6809.894666,11843.295072,-6741.640382
143.372645,-370.102971,10362.883188,-2451.505594
143.372954,-2960.823768,11473.192101,5362.668486
143.373264,1924.535449,11325.150913,-153.219100
143.373574,-1628.453072,9030.512492,-7507.735880
143.373883,-1184.329507,9696.697840,-1991.848295
143.374193,-1110.308913,11177.109724,-1608.800546
143.374502,4515.256246,11473.192101,-9499.584175
143.374812,-3034.844362,11103.089130,-1762.019645
143.375122,-444.123565,10436.903782,6281.983084
143.375431,2294.638420,11695.253884,-2834.553343
143.375741,2664.741391,5847.626942,-1302.362347
143.376050,-3182.885551,4145.153275,8273.831378
143.376360,3182.885551,8364.327145,2145.067394
143.376669,4145.153275,3627.009116,-7814.174080
143.376979,-5181.441594,6883.915261,1302.362347
143.377289,-1776.494261,8586.388927,5286.058936
143.377598,3404.947333,11769.274478,-6818.249932
143.377908,1406.391290,10584.944971,-7507.735880
143.378217,-5255.462188,11843.295072,3830.477490
143.378527,-0.000000,10955.047942,229.828649
143.378837,1924.535449,11325.150913,-5745.716235
143.379146,-3256.906145,8734.430116,1608.800546
143.379456,-1628.453072,7772.162391,3830.477490
143.379765,5403.503377,9770.718434,-612.876398
143.380075,-2220.617826,9622.677246,-1532.190996
143.380384,-1702.473667,11769.274478,2604.724693
143.380694,-814.226536,8216.285956,-2911.162892
143.381004,3256.906145,8660.409521,-5286.058936
143.381313,518.144159,7920.203579,2757.943793
143.381623,-1628.453072,7402.059420,0.000000
143.381932,2442.679609,6439.791695,-5056.230287
143.382242,-518.144159,4663.297435,-995.924147
143.382552,-3627.009116,8142.265362,3294.210641
143.382861,1036.288319,10066.800811,-2987.772442
143.383171,6217.729913,9474.636058,-6588.421283
143.383480,962.267725,11473.192101,2451.505594
143.383790,-2886.803174,12879.583391,8350.440928
143.384099,1480.411884,9992.780217,-2451.505594
143.384409,-0.000000,10140.821405,-4826.401637
143.384719,-1480.411884,9030.512492,-1838.629195
143.385028,-1628.453072,11621.233289,-6128.763984
143.385338,3627.009116,12139.377449,-9193.145976
143.385647,-2220.617826,7476.080014,-76.609550
143.385957,-3256.906145,12805.562797,5592.497135
143.386267,-0.000000,6513.812290,766.095498
143.386576,-592.164754,6439.791695,-1608.800546
143.386886,-148.041188,6809.894666,2298.286494
143.387195,2812.782580,4071.132681,-2834.553343
143.387505,3330.926739,5181.441594,-1838.629195
143.387814,-0.000000,9326.594869,2604.724693
143.388124,-0.000000,8290.306550,3370.820191
143.388434,2294.638420,9696.697840,766.095498
143.388743,-2442.679609,8808.450710,766.095498
143.389053,296.082377,11473.192101,-2681.334243
143.389362,2738.761985,10732.986159,-8656.879127
143.389672,3034.844362,8068.244768,-5898.935335
143.389982,-4959.379811,10807.006753,5286.058936
143.390291,-6143.709319,10436.903782,6588.421283
143.390601,4515.256246,13767.830521,-6128.763984
143.390910,-148.041188,10362.883188,-9499.584175
143.391220,2294.638420,10436.903782,-3140.991542
143.391529,-814.226536,10288.862594,-1149.143247
143.391839,4737.318029,7105.977043,-4903.011187
143.392149,-1554.432478,5699.585753,4213.525239
143.392458,-3552.988522,5773.606348,11184.994271
143.392768,1628.453072,3108.864956,2068.457845
143.393077,1036.288319,5403.503377,-6511.811733
143.393387,-1628.453072,6661.853478,-4903.011187
143.393697,-1110.308913,9622.677246,-4366.744339
143.394006,4071.132681,7105.977043,-5669.106685
143.394316,-3478.967927,12361.439231,-1302.362347
143.394625,-1406.391290,12139.377449,3064.381992
143.394935,2072.576638,9918.759623,1072.533697
143.395245,-2442.679609,9030.512492,0.000000
143.395554,370.102971,11029.068536,0.000000
143.395864,2960.823768,10732.986159,-6358.592633
143.396173,2294.638420,7698.141797,-4366.744339
143.396483,-4737.318029,12879.583391,6205.373534
143.396792,-4145.153275,15100.201217,3370.820191
143.397102,1850.514855,10362.883188,-8120.612279
143.397412,222.061783,10362.883188,-6358.592633
143.397721,-2886.803174,6809.894666,-459.657299
143.398031,-0.000000,6809.894666,-5898.935335
143.398340,5255.462188,1850.514855,-6588.421283
143.398650,-3034.844362,8290.306550,6052.154434
143.398960,370.102971,7772.162391,10265.679673
143.399269,4367.215058,9844.739029,-1455.581446
143.399579,-2516.700203,4219.173869,306.438199
143.399888,-1036.288319,8586.388927,1455.581446
143.400198,3478.967927,8364.327145,-9576.193725
143.400507,5477.523971,7254.018232,-9652.803275
143.400817,-4145.153275,15248.242405,3983.696590
143.401127,-9622.677246,13249.686362,6358.592633
143.401436,3701.029710,13767.830521,-3600.648841
143.401746,-1554.432478,11621.233289,-9652.803275
143.402055,-5181.441594,9326.594869,-5132.839837
143.402365,1184.329507,9844.739029,-6665.030833
143.402675,3923.091493,3923.091493,-7431.126331
143.402984,1850.514855,9548.656652,3140.991542
143.403294,222.061783,7402.059420,11644.651570
143.403603,1850.514855,6957.935855,4826.401637
143.403913,-0.000000,2368.659014,3983.696590
143.404222,296.082377,6143.709319,3524.039291
143.404532,1998.556043,7624.121203,-10878.556072
143.404842,3923.091493,9548.656652,-12487.356617
143.405151,-2664.741391,11547.212695,-689.485948
143.405461,-5625.565159,12065.356855,4213.525239
143.405770,3108.864956,12953.603985,-1532.190996
143.406080,-2738.761985,9844.739029,2757.943793
143.406390,-4293.194464,13471.748144,2911.162892
143.406699,2812.782580,10807.006753,-9269.755526
143.407009,7476.080014,6513.812290,-12027.699319
143.407318,-2516.700203,10658.965565,3370.820191
143.407628,-4145.153275,13027.624579,8886.707777
143.407937,3552.988522,11251.130318,-1225.752797
143.408247,-1998.556043,7105.977043,-1302.362347
143.408557,-1110.308913,6735.874072,4903.011187
143.408866,-2072.576638,4737.318029,-5898.935335
143.409176,2664.741391,3552.988522,-11721.261119
143.409485,-3404.947333,8290.306550,1072.533697
143.409795,-3182.885551,5699.585753,2374.896044
143.410105,6883.915261,10584.944971,-4136.915689
143.410414,-6143.709319,8438.347739,3524.039291
143.410724,444.123565,11029.068536,5056.230287
143.411033,6809.894666,6809.894666,-4060.306139
143.411343,-0.000000,7328.038826,-1302.362347
143.411652,-5181.441594,13693.809927,8963.317327
143.411962,-2442.679609,10807.006753,3370.820191
143.412272,3997.112087,13619.789333,-10572.117872
143.412581,-3775.050304,15248.242405,-8733.488677
143.412891,-3478.967927,11399.171507,-2604.724693
143.413200,1924.535449,11547.212695,-12027.699319
143.413510,518.144159,10510.924376,-9346.365076
143.413820,-1850.514855,7698.141797,7737.564530
143.414129,1184.329507,6291.750507,7967.393179
143.414439,5699.585753,6291.750507,2681.334243
143.414748,-444.123565,1184.329507,8427.050478
143.415058,-2590.720797,6957.935855,4443.353888
143.415368,3849.070898,5847.626942,-11491.432470
143.415677,9770.718434,5921.647536,-13483.280765
143.415987,-3182.885551,10214.842000,-2451.505594
143.416296,-4811.338623,15100.201217,2987.772442
143.416606,1480.411884,17246.798449,0.000000
143.416915,-4515.256246,12435.459826,2451.505594
143.417225,1036.288319,11917.315666,0.000000
143.417535,2146.597232,9622.677246,-7507.735880
143.417844,3256.906145,6883.915261,-9806.022374
143.418154,-5551.544565,11399.171507,383.047749
143.418463,-1480.411884,11029.068536,4596.572988
143.418773,3849.070898,9400.615463,-1225.752797
143.419083,-1776.494261,10288.862594,-2298.286494
143.419392,-3997.112087,8438.347739,2451.505594
143.419702,2738.761985,6883.915261,-3907.087040
143.420011,4219.173869,4293.194464,-8886.707777
143.420321,-888.247130,2812.782580,-1149.143247
143.420630,-2442.679609,5847.626942,4443.353888
143.420940,4885.359217,9400.615463,-1378.971896
143.421250,-1258.350101,7920.203579,1991.848295
143.421559,-74.020594,10214.842000,7201.297681
143.421869,-296.082377,11991.336260,-689.485948
143.422178,-0.000000,15026.180623,-9806.022374
143.422488,-2886.803174,12213.398043,-6128.763984
143.422798,-2738.761985,15100.201217,-8197.221829
143.423107,4071.132681,15174.221811,-13023.623466
143.423417,-1850.514855,11917.315666,-2834.553343
143.423726,-7550.100608,10214.842000,6971.469032
143.424036,4441.235652,6291.750507,1149.143247
143.424345,2886.803174,4737.318029,-1149.143247
143.424655,-1480.411884,5847.626942,7431.126331
143.424965,2368.659014,5847.626942,229.828649
143.425274,5255.462188,5329.482782,-9806.022374
143.425584,-3701.029710,7920.203579,536.266849
143.425893,-74.020594,10955.047942,995.924147
143.426203,3775.050304,8808.450710,-9116.536426
143.426513,5033.400406,9548.656652,-3140.991542
143.426822,-5329.482782,9400.615463,15245.300410
143.427132,-5477.523971,12213.398043,5898.935335
143.427441,1554.432478,14804.118840,-5286.058936
143.427751,1554.432478,13619.789333,-7814.174080
143.428060,3182.885551,10362.883188,-7660.954980
143.428370,1184.329507,6735.874072,-1532.190996
143.428680,-3775.050304,14137.933492,76.609550
143.428989,-7772.162391,11991.336260,7814.174080
143.429299,2738.761985,11769.274478,3370.820191
143.429608,4589.276840,6513.812290,-2834.553343
143.429918,-1924.535449,5921.647536,-2068.457845
143.430228,-1850.514855,5921.647536,2374.896044
143.430537,1258.350101,5329.482782,-4903.011187
143.430847,2664.741391,7624.121203,-4136.915689
143.431156,-7254.018232,6143.709319,5362.668486
143.431466,1258.350101,6883.915261,766.095498
143.431775,4071.132681,5477.523971,-5898.935335
143.432085,-2664.741391,9030.512492,3983.696590
143.432395,-1480.411884,12879.583391,4136.915689
143.432704,5477.523971,10584.944971,-7048.078582
143.433014,370.102971,14508.036463,-3064.381992
143.433323,-4663.297435,14730.098246,4290.134789
143.433633,-2442.679609,12731.542202,-3447.429741
143.433943,2664.741391,10881.027347,-12027.699319
143.434252,-2738.761985,10436.903782,-7431.126331
143.434562,-6143.709319,7402.059420,229.828649
143.434871,2590.720797,10066.800811,-3294.210641
143.435181,4959.379811,7550.100608,-612.876398
143.435490,-2812.782580,10807.006753,8656.879127
143.435800,1628.453072,3627.009116,4060.306139
143.436110,2294.638420,592.164754,-1378.971896
143.436419,-222.061783,3108.864956,1532.190996
143.436729,-2442.679609,7772.162391,-536.266849
143.437038,1628.453072,9918.759623,-7354.516781
143.437348,1554.432478,11473.192101,-6741.640382
143.437658,-1776.494261,14656.077652,-842.705048
143.437967,-3775.050304,14211.954086,-153.219100
143.438277,-2738.761985,13545.768739,-1378.971896
143.438586,-296.082377,13619.789333,-5286.058936
143.438896,3775.050304,9918.759623,-6588.421283
143.439206,2442.679609,6587.832884,-6511.811733
143.439515,-2738.761985,6661.853478,4366.744339
143.439825,-2886.803174,12361.439231,11184.994271
143.440134,-444.123565,12879.583391,383.047749
143.440444,2220.617826,6143.709319,-8197.221829
143.440753,-444.123565,7254.018232,-4673.182538
143.441063,-2146.597232,3997.112087,-7890.783629
143.441373,-1258.350101,7179.997637,-7354.516781
143.441682,1110.308913,10214.842000,-3677.258390
143.441992,-1850.514855,6587.832884,4136.915689
143.442301,-888.247130,13027.624579,5362.668486
143.442611,4515.256246,10807.006753,2911.162892
143.442921,-148.041188,9992.780217,-4903.011187
143.443230,1332.370696,11917.315666,-6435.202183
143.443540,2516.700203,7254.018232,-2987.772442
143.443849,-1258.350101,7994.224174,0.000000
143.444159,-6069.688724,11621.233289,2528.115143
143.444468,-3552.988522,11843.295072,2834.553343
143.444778,-0.000000,9918.759623,-4519.963438
143.445088,-1036.288319,12805.562797,-9729.412825
143.445397,-1480.411884,12287.418637,-15015.471761
143.445707,-0.000000,11991.336260,-8656.879127
143.446016,2664.741391,8660.409521,-2757.943793
143.446326,-1406.391290,7031.956449,7660.954980
143.446636,-4515.256246,6513.812290,8197.221829
143.446945,592.164754,7698.141797,612.876398
143.447255,6439.791695,5403.503377,-3677.258390
143.447564,-0.000000,5699.585753,-3983.696590
143.447874,2294.638420,8068.244768,-689.485948
143.448183,-148.041188,13619.789333,-1378.971896
143.448493,-4441.235652,14508.036463,919.314598
143.448803,1184.329507,13471.748144,2604.724693
143.449112,-814.226536,12435.459826,-4443.353888
143.449422,-518.144159,9622.677246,-6971.469032
143.449731,-2516.700203,10732.986159,-7967.393179
143.450041,5329.482782,9030.512492,-8580.269578
143.450351,1850.514855,10436.903782,-4366.744339
143.450660,-3627.009116,11769.274478,9576.193725
143.450970,-2220.617826,12583.501014,6358.592633
143.451279,4737.318029,4737.318029,0.000000
143.451589,-1628.453072,3627.009116,5745.716235
143.451898,-2960.823768,7254.018232,3370.820191
143.452208,3775.050304,4663.297435,-12027.699319
143.452518,2146.597232,5181.441594,-9806.022374
143.452827,-4071.132681,12435.459826,4749.792088
143.453137,-3701.029710,11103.089130,3524.039291
143.453446,5921.647536,10955.047942,-5669.106685
143.453756,-1184.329507,10214.842000,-689.485948
143.454066,-0.000000,4663.297435,1455.581446
143.454375,2738.761985,4663.297435,536.266849
143.454685,-3034.844362,11325.150913,306.438199
143.454994,740.205942,12731.542202,2451.505594
143.455304,2886.803174,16654.633695,-2451.505594
143.455613,444.123565,13471.748144,-4213.525239
143.455923,-5329.482782,9770.718434,-1915.238745
143.456233,-1480.411884,14211.954086,-4826.401637
143.456542,6143.709319,7254.018232,-14402.595362
143.456852,-1184.329507,2368.659014,-3370.820191
143.457161,-4145.153275,10436.903782,12563.966167
143.457471,2886.803174,1480.411884,919.314598
143.457781,5255.462188,4293.194464,-3524.039291
143.458090,-4811.338623,6439.791695,9269.755526
143.458400,-4737.318029,6661.853478,1685.410096
143.458709,11177.109724,12509.480420,-13942.938064
143.459019,740.205942,12731.542202,-11644.651570
143.459329,-4589.276840,16506.592507,1532.190996
143.459638,444.123565,13249.686362,-1225.752797
143.459948,148.041188,11473.192101,-1302.362347
143.460257,296.082377,7772.162391,2528.115143
143.460567,-1702.473667,7402.059420,-1991.848295
143.460876,4589.276840,9474.636058,-6818.249932
143.461186,-3182.885551,9474.636058,0.000000
143.461496,-0.000000,14063.912898,0.000000
143.461805,3552.988522,11843.295072,-7431.126331
143.462115,-3997.112087,7179.997637,-1302.362347
143.462424,-0.000000,11251.130318,5132.839837
143.462734,2294.638420,2738.761985,-6281.983084
143.463044,6365.771101,3330.926739,-8886.707777
143.463353,-5847.626942,5847.626942,9269.755526
143.463663,-1258.350101,7105.977043,12257.527968
143.463972,5921.647536,11843.295072,-3677.258390
143.464282,-518.144159,12065.356855,-6435.202183
143.464591,-3775.050304,10362.883188,3753.867940
143.464901,-2368.659014,13767.830521,-8886.707777
143.465211,5773.606348,10436.903782,-18539.511052
143.465520,-3478.967927,14508.036463,-3677.258390
143.465830,-2368.659014,13027.624579,5822.325785
143.466139,4737.318029,8438.347739,536.266849
143.466449,370.102971,8734.430116,5056.230287
143.466758,74.020594,7994.224174,12563.966167
143.467068,-1036.288319,3775.050304,-2298.286494
143.467377,4959.379811,5329.482782,-8503.660028
143.467687,-4589.276840,7328.038826,-1608.800546
143.467996,-2368.659014,11177.109724,-2987.772442
143.468306,4219.173869,12213.398043,-8350.440928
143.468616,148.041188,11177.109724,842.705048
143.468925,-4145.153275,8882.471304,7354.516781
143.469235,-1036.288319,6809.894666,-2221.676944
143.469544,3775.050304,5329.482782,-5745.716235
143.469854,-296.082377,8216.285956,766.095498
143.470163,-518.144159,14211.954086,-1149.143247
143.470473,4071.132681,13397.727550,-4749.792088
143.470782,-0.000000,11029.068536,995.924147
143.471092,-962.267725,9252.574275,7584.345430
143.471401,-2664.741391,9030.512492,-459.657299
143.471711,2442.679609,8734.430116,-7814.174080
143.472020,666.185348,7179.997637,-5209.449386
143.472330,-2294.638420,9030.512492,-1532.190996
143.472639,-0.000000,14137.933492,-4673.182538
143.472949,-0.000000,10807.006753,-383.047749
143.473258,-666.185348,9326.594869,7048.078582
143.473568,-2072.576638,9548.656652,3217.601092
143.473877,2590.720797,5995.668130,-3983.696590
143.474187,814.226536,4145.153275,-5056.230287
143.474496,-3775.050304,8660.409521,0.000000
143.474806,4737.318029,11695.253884,-612.876398
143.475116,1924.535449,9548.656652,842.705048
143.475425,-1702.473667,14878.139434,2221.676944
143.475735,-518.144159,10436.903782,1838.629195
143.476044,3330.926739,8068.244768,-6818.249932
143.476354,-518.144159,11325.150913,-7201.297681
143.476663,-5255.462188,9770.718434,-1225.752797
143.476973,-0.000000,11695.253884,-4826.401637
143.477282,1628.453072,14063.912898,-5669.106685
143.477592,1924.535449,9178.553681,3830.477490
143.477901,-2516.700203,7402.059420,6665.030833
143.478211,2590.720797,4737.318029,-1838.629195
143.478520,1998.556043,5403.503377,-4443.353888
143.478830,-4959.379811,6883.915261,5209.449386
143.479139,1110.308913,12287.418637,0.000000
143.479449,3923.091493,6365.771101,-6665.030833
143.479758,-1554.432478,13397.727550,995.924147
143.480068,-6143.709319,8956.491898,3524.039291
143.480377,4959.379811,5551.544565,-3447.429741
143.480687,1850.514855,9844.739029,-7201.297681
143.480996,-3775.050304,10732.986159,3524.039291
143.481306,2886.803174,14804.118840,2911.162892
143.481615,2220.617826,10140.821405,-4596.572988
143.481925,2516.700203,13915.871710,2374.896044
143.482235,-2146.597232,10140.821405,689.485948
143.482544,3256.906145,8068.244768,-7048.078582
143.482854,-3552.988522,9844.739029,1149.143247
143.483163,-5625.565159,12805.562797,6588.421283
143.483473,2590.720797,16950.716072,-10495.508323
143.483782,6143.709319,6439.791695,-14785.643111
143.484092,-222.061783,5847.626942,3830.477490
143.484401,-5033.400406,5107.421000,7967.393179
143.484711,5773.606348,5699.585753,-1915.238745
143.485020,444.123565,5625.565159,2681.334243
143.485330,-4145.153275,5995.668130,7814.174080
143.485639,5995.668130,5551.544565,-4749.792088
143.485949,-222.061783,8142.265362,-9193.145976
143.486258,-2590.720797,14211.954086,-1072.533697
143.486568,444.123565,11621.233289,-4903.011187
143.486877,3182.885551,11547.212695,-6128.763984
143.487187,-2960.823768,14582.057057,3140.991542
143.487496,-1332.370696,14359.995275,4826.401637
143.487806,4589.276840,7179.997637,-3294.210641
143.488115,-296.082377,5033.400406,-1225.752797
143.488425,-5551.544565,11029.068536,3907.087040
143.488734,-444.123565,4293.194464,-5056.230287
143.489044,4219.173869,7846.182985,-9499.584175
143.489354,-2738.761985,11695.253884,2834.553343
143.489663,-740.205942,13693.809927,4136.915689
143.489973,3701.029710,9178.553681,-4903.011187
143.490282,-74.020594,5033.400406,1685.410096
143.490592,-4441.235652,6661.853478,6205.373534
143.490901,1258.350101,5255.462188,-2757.943793
143.491211,3627.009116,9622.677246,-2451.505594
143.491520,-2886.803174,10732.986159,2757.943793
143.491830,1184.329507,13175.665768,1225.752797
143.492139,3849.070898,12583.501014,-4519.963438
143.492449,-4219.173869,12509.480420,1608.800546
143.492758,-2886.803174,11769.274478,-153.219100
143.493068,-0.000000,9918.759623,-10189.070123
143.493377,4515.256246,8438.347739,-7584.345430
143.493687,444.123565,10362.883188,4366.744339
143.493996,-1406.391290,7031.956449,4060.306139
143.494306,2886.803174,11251.130318,689.485948
143.494615,-3256.906145,5625.565159,3677.258390
143.494925,1850.514855,10140.821405,2528.115143
143.495234,222.061783,5847.626942,-8503.660028
143.495544,2886.803174,5921.647536,-6894.859482
143.495853,-4367.215058,6587.832884,0.000000
143.496163,-296.082377,9178.553681,1838.629195
143.496473,962.267725,12139.377449,1685.410096
143.496782,1184.329507,8290.306550,1378.971896
143.497092,-1628.453072,9474.636058,1608.800546
143.497401,5847.626942,7846.182985,-4443.353888
143.497711,148.041188,8956.491898,-2528.115143
143.498020,-3478.967927,9474.636058,3140.991542
143.498330,-2516.700203,14063.912898,2911.162892
143.498639,2072.576638,16802.674883,-6052.154434
143.498949,-0.000000,14434.015869,-6358.592633
143.499258,2072.576638,10881.027347,-5975.544884
143.499568,-2812.782580,7920.203579,-9882.631924
143.499877,518.144159,8586.388927,-689.485948
143.500187,1184.329507,10140.821405,6741.640382
143.500496,-740.205942,5699.585753,5056.230287
143.500806,4885.359217,11473.192101,2298.286494
143.501115,-592.164754,9548.656652,1532.190996
143.501425,1850.514855,4737.318029,-3524.039291
143.501734,4367.215058,740.205942,-6435.202183
143.502044,74.020594,4663.297435,-1302.362347
143.502353,-2812.782580,8512.368333,4749.792088
143.502663,-7624.121203,11251.130318,9499.584175
143.502973,3627.009116,20355.663405,536.266849
143.503282,-888.247130,13397.727550,-8273.831378
143.503592,-0.000000,11843.295072,-9193.145976
143.503901,-3923.091493,10807.006753,-10801.946522
143.504211,-814.226536,13471.748144,-15704.957709
143.504520,-0.000000,15470.304188,-4060.306139
143.504830,-1258.350101,17987.004391,9269.755526
143.505139,3182.885551,13693.809927,3294.210641
143.505449,4737.318029,5551.544565,1378.971896
143.505758,1184.329507,2220.617826,9269.755526
143.506068,1184.329507,-5699.585753,-1762.019645
143.506377,2960.823768,2220.617826,-7507.735880
143.506687,-4515.256246,9474.636058,-76.609550
143.506996,-1110.308913,12139.377449,-1685.410096
143.507306,4885.359217,17468.860231,-6894.859482
143.507615,-2442.679609,10066.800811,-5209.449386
143.507925,-7105.977043,7105.977043,536.266849
143.508234,-1110.308913,5403.503377,-919.314598
143.508544,5995.668130,7624.121203,-10342.289223
143.508853,-666.185348,9326.594869,689.485948
143.509163,-2590.720797,18949.272115,12180.918418
143.509472,6069.688724,12583.501014,1149.143247
143.509782,-888.247130,13915.871710,-1685.410096
143.510092,-5033.400406,12805.562797,2451.505594
143.510401,814.226536,6883.915261,-11338.213370
143.510711,962.267725,3923.091493,-17696.806004
143.511020,-5699.585753,7105.977043,229.828649
143.511330,-1480.411884,11917.315666,2911.162892
143.511639,3034.844362,7402.059420,-1225.752797
143.511949,-2886.803174,7328.038826,10035.851024
143.512258,-2368.659014,7179.997637,11108.384721
143.512568,6291.750507,-444.123565,-4443.353888
143.512877,9030.512492,6143.709319,-9959.241474
143.513187,-3256.906145,7254.018232,689.485948
143.513496,-4589.276840,11695.253884,4903.011187
143.513806,3182.885551,15026.180623,1838.629195
143.514115,1776.494261,13249.686362,2451.505594
143.514425,-4219.173869,13471.748144,3677.258390
143.514734,-3701.029710,10066.800811,-1532.190996
143.515044,3108.864956,10288.862594,-12180.918418
143.515353,-7105.977043,11917.315666,-9193.145976
143.515663,-4145.153275,19171.333898,-5515.887586
143.515972,5033.400406,15840.407159,-8273.831378
143.516282,-1184.329507,14285.974681,-306.438199
143.516591,-740.205942,10732.986159,11951.089769
143.516901,5773.606348,2664.741391,1915.238745
143.517211,5329.482782,518.144159,-1991.848295
143.517520,222.061783,3034.844362,6971.469032
143.517830,370.102971,4145.153275,3830.477490
143.518139,5551.544565,6217.729913,-1838.629195
143.518449,-3923.091493,11843.295072,1915.238745
143.518758,-2146.597232,12213.398043,-383.047749
143.519068,1628.453072,10510.924376,-14325.985813
143.519377,1702.473667,7550.100608,-11797.870669
143.519687,-6735.874072,6809.894666,1225.752797
143.519996,-2072.576638,10066.800811,-229.828649
143.520306,3256.906145,10066.800811,-5745.716235
143.520615,-2812.782580,14211.954086,7277.907231
143.520925,1628.453072,15026.180623,7660.954980
143.521234,4737.318029,9696.697840,-7660.954980
143.521544,4219.173869,9770.718434,-4366.744339
143.521853,-6661.853478,4811.338623,6588.421283
143.522163,-7031.956449,10955.047942,-306.438199
143.522472,-444.123565,15914.427753,-8503.660028
143.522782,5181.441594,6439.791695,-8963.317327
143.523091,-518.144159,8808.450710,-4519.963438
143.523401,-3256.906145,6291.750507,76.609550
143.523710,-148.041188,6513.812290,5669.106685
143.524020,592.164754,8290.306550,2834.553343
143.524330,2368.659014,9178.553681,-1455.581446
143.524639,7179.997637,13693.809927,689.485948
143.524949,-5181.441594,8956.491898,3753.867940
143.525258,-0.000000,10881.027347,-459.657299
143.525568,1850.514855,10807.006753,-11797.870669
143.525877,-518.144159,13323.706956,-12027.699319
143.526187,-2442.679609,13323.706956,0.000000
143.526496,-1776.494261,15618.345376,-2834.553343
143.526806,-888.247130,11177.109724,-3064.381992
143.527115,-0.000000,13249.686362,5132.839837
143.527425,-2072.576638,4589.276840,4596.572988
143.527734,1184.329507,-2664.741391,-7048.078582
143.528044,1702.473667,4589.276840,-3294.210641
143.528353,-3478.967927,3330.926739,3524.039291
143.528663,-1554.432478,12213.398043,76.609550
143.528972,-0.000000,14878.139434,-5286.058936
143.529282,2368.659014,11103.089130,-2374.896044
143.529591,3627.009116,9326.594869,0.000000
143.529901,148.041188,8808.450710,-3600.648841
143.530210,740.205942,8512.368333,1149.143247
143.530520,-4441.235652,8882.471304,6511.811733
143.530830,-1554.432478,9030.512492,-2911.162892
143.531139,3256.906145,12509.480420,-4213.525239
143.531449,-3775.050304,11621.233289,-2757.943793
143.531758,-3552.988522,15396.283594,-995.924147
143.532068,6439.791695,15100.201217,-9882.631924
143.532377,2146.597232,10510.924376,-7354.516781
143.532687,-4885.359217,8216.285956,7737.564530
143.532996,2368.659014,7328.038826,7584.345430
143.533306,5551.544565,8216.285956,-1072.533697
143.533615,-0.000000,10807.006753,3600.648841
143.533925,-4737.318029,4367.215058,5056.230287
143.534234,-0.000000,2442.679609,-6511.811733
143.534544,592.164754,6069.688724,-8733.488677
143.534853,-4885.359217,13323.706956,383.047749
143.535163,3330.926739,12065.356855,-3677.258390
143.535472,3256.906145,7402.059420,-7201.297681
143.535782,-4367.215058,13323.706956,6665.030833
143.536091,-444.123565,7105.977043,7048.078582
143.536401,5255.462188,5699.585753,-5669.106685
143.536710,1850.514855,9548.656652,153.219100
143.537020,-7920.203579,9474.636058,10342.289223
143.537329,-2442.679609,13693.809927,-1608.800546
143.537639,4811.338623,15396.283594,-14479.204912
143.537949,-2812.782580,13693.809927,-6205.373534
143.538258,592.164754,11103.089130,-2528.115143
143.538568,1480.411884,6957.935855,-4979.620737
143.538877,-0.000000,9992.780217,1225.752797
143.539187,-2516.700203,7179.997637,9346.365076
143.539496,4293.194464,3627.009116,2374.896044
143.539806,4663.297435,6365.771101,-2681.334243
143.540115,-1332.370696,9548.656652,5132.839837
143.540425,-1258.350101,6809.894666,842.705048
143.540734,7328.038826,6217.729913,-9039.926876
143.541044,-3775.050304,11029.068536,0.000000
143.541353,-10066.800811,9474.636058,6281.983084
143.541663,2886.803174,12435.459826,-7890.783629
143.541972,7402.059420,12139.377449,-14632.424012
143.542282,-7402.059420,11621.233289,3140.991542
143.542591,-3108.864956,12731.542202,4673.182538
143.542901,4737.318029,9770.718434,-10189.070123
143.543210,1702.473667,12953.603985,-3830.477490
143.543520,-5403.503377,12583.501014,11261.603821
143.543829,1850.514855,6587.832884,-383.047749
143.544139,1776.494261,5699.585753,-7737.564530
143.544448,-3256.906145,10214.842000,3294.210641
143.544758,-0.000000,3478.967927,-2221.676944
143.545068,5329.482782,4885.359217,-12257.527968
143.545377,-370.102971,14730.098246,-612.876398
143.545687,-5107.421000,9178.553681,8656.879127
143.545996,2738.761985,9696.697840,-2145.067394
143.546306,7328.038826,7846.182985,-4673.182538
143.546615,-7328.038826,11029.068536,4136.915689
143.546925,-1998.556043,8660.409521,995.924147
143.547234,7994.224174,5033.400406,-10955.165621
143.547544,-370.102971,10955.047942,-4366.744339
143.547853,-4589.276840,8808.450710,9576.193725
143.548163,-10510.924376,15914.427753,-1072.533697
143.548472,1628.453072,17098.757260,-8733.488677
143.548782,2664.741391,13841.851115,-5439.278036
143.549091,296.082377,13915.871710,-11108.384721
143.549401,-1406.391290,6291.750507,-9576.193725
143.549710,-3701.029710,12435.459826,6894.859482
143.550020,-3478.967927,7179.997637,5669.106685
143.550329,222.061783,6883.915261,-3907.087040
143.550639,4071.132681,8586.388927,1225.752797
143.550948,-222.061783,6513.812290,2834.553343
143.551258,3923.091493,5921.647536,-7814.174080
143.551567,4145.153275,3478.967927,-5669.106685
143.551877,-1332.370696,5255.462188,6971.469032
143.552187,-3034.844362,10066.800811,9729.412825
143.552496,-2368.659014,11991.336260,-1302.362347
143.552806,4441.235652,13471.748144,-3830.477490
143.553115,-3701.029710,7476.080014,-4443.353888
143.553425,-1332.370696,8290.306550,-9269.755526
143.553734,-5699.585753,10732.986159,-12563.966167
143.554044,2738.761985,11399.171507,-8886.707777
143.554353,-0.000000,14804.118840,2374.896044
143.554663,-3849.070898,18209.066173,8044.002729
143.554972,888.247130,14878.139434,6128.763984
143.555282,7550.100608,9104.533087,-1378.971896
143.555591,1406.391290,1850.514855,-4519.963438
143.555901,518.144159,-2294.638420,-766.095498
143.556210,-3182.885551,3478.967927,3600.648841
143.556520,-1924.535449,6957.935855,1608.800546
143.556829,814.226536,13545.768739,-1762.019645
143.557139,3923.091493,12435.459826,229.828649
143.557448,-962.267725,9622.677246,1225.752797
143.557758,-4145.153275,8586.388927,1072.533697
143.558067,-1184.329507,7105.977043,-2987.772442
143.558377,4589.276840,10288.862594,-10572.117872
143.558687,888.247130,13397.727550,-3370.820191
143.558996,-3404.947333,15692.365970,3907.087040
143.559306,-222.061783,14508.036463,4519.963438
143.559615,3404.947333,19171.333898,1455.581446
143.559925,222.061783,10881.027347,-995.924147
143.560234,-4219.173869,7031.956449,-2451.505594
143.560544,2886.803174,9696.697840,-9652.803275
143.560853,-2960.823768,5403.503377,-7660.954980
143.561163,1554.432478,7402.059420,-1838.629195
143.561472,740.205942,6439.791695,-995.924147
143.561782,-2590.720797,12065.356855,1455.581446
143.562091,370.102971,6883.915261,8044.002729
143.562401,5181.441594,814.226536,-1838.629195
143.562710,3478.967927,3182.885551,-2604.724693
143.563020,-4885.359217,7772.162391,7814.174080
143.563329,-2960.823768,7772.162391,2068.457845
143.563639,5107.421000,11843.295072,-11797.870669
143.563948,592.164754,10510.924376,-5898.935335
143.564258,-2072.576638,17172.777854,612.876398
143.564567,-3923.091493,13175.665768,-8120.612279
143.564877,3923.091493,14952.160028,-10342.289223
143.565186,-3552.988522,6883.915261,3677.258390
143.565496,-3330.926739,8956.491898,2451.505594
143.565806,3330.926739,10732.986159,-3753.867940
143.566115,-2368.659014,8882.471304,1149.143247
143.566425,296.082377,6143.709319,0.000000
143.566734,2960.823768,4737.318029,-10725.336972
143.567044,-1110.308913,8586.388927,-4826.401637
143.567353,-2738.761985,11695.253884,6128.763984
143.567663,3478.967927,7105.977043,-1991.848295
143.567973,6291.750507,8290.306550,-6435.202183
143.568282,-5329.482782,6957.935855,9116.536426
143.568592,-3552.988522,7105.977043,10342.289223
143.568901,-592.164754,3034.844362,-4903.011187
143.569211,5921.647536,11029.068536,-9269.755526
143.569520,-5847.626942,12657.521608,-7507.735880
143.569830,-5625.565159,13693.809927,-10648.727422
143.570140,814.226536,14211.954086,-7124.688131
143.570449,-3849.070898,17764.942608,383.047749
143.570759,1480.411884,13545.768739,-1302.362347
143.571068,2590.720797,7772.162391,-536.266849
143.571378,222.061783,6513.812290,3524.039291
143.571687,-1258.350101,5847.626942,5439.278036
143.571997,3478.967927,6143.709319,-4290.134789
143.572306,-296.082377,5921.647536,-6588.421283
143.572616,-4885.359217,10362.883188,1302.362347
143.572926,1850.514855,8142.265362,-1685.410096
143.573235,1480.411884,10288.862594,-8273.831378
143.573545,3701.029710,8512.368333,-2451.505594
143.573854,-370.102971,4145.153275,1838.629195
143.574164,-74.020594,4737.318029,229.828649
143.574473,1110.308913,7179.997637,0.000000
143.574783,-2812.782580,14656.077652,3524.039291
143.575093,592.164754,12065.356855,-2068.457845
143.575402,1110.308913,14211.954086,-10265.679673
143.575712,1628.453072,14878.139434,-4903.011187
143.576021,-2516.700203,7994.224174,-919.314598
143.576331,3034.844362,10732.986159,-2757.943793
143.576640,-592.164754,12139.377449,612.876398
143.576950,-2368.659014,7846.182985,8120.612279
143.577260,-222.061783,7328.038826,4213.525239
143.577569,7254.018232,4811.338623,-4979.620737
143.577879,148.041188,9622.677246,-1378.971896
143.578188,-7402.059420,9548.656652,6358.592633
143.578498,-3330.926739,13397.727550,919.314598
143.578807,5477.523971,10807.006753,-8503.660028
143.579117,1184.329507,9400.615463,-3907.087040
143.579426,-2072.576638,12435.459826,-1225.752797
143.579736,-962.267725,7994.224174,-1225.752797
143.580046,3552.988522,12213.398043,76.609550
143.580355,1406.391290,6883.915261,2221.676944
143.580665,-1406.391290,12657.521608,2911.162892
143.580974,1554.432478,13471.748144,-6435.202183
143.581284,-2516.700203,7698.141797,-2528.115143
143.581593,-74.020594,7994.224174,-4366.744339
143.581903,-666.185348,6143.709319,-4826.401637
143.582213,222.061783,6809.894666,-3983.696590
143.582522,-2368.659014,7179.997637,1685.410096
143.582832,2960.823768,7105.977043,306.438199
143.583141,1554.432478,7920.203579,-459.657299
143.583451,-222.061783,7254.018232,2528.115143
143.583760,444.123565,7476.080014,3370.820191
143.584070,3849.070898,9252.574275,-1608.800546
143.584380,-148.041188,10658.965565,-459.657299
143.584689,-2960.823768,13101.645173,1455.581446
143.584999,888.247130,11547.212695,-6358.592633
143.585308,4663.297435,10510.924376,-10418.898773
143.585618,-1924.535449,10510.924376,1149.143247
143.585927,-4293.194464,11991.336260,-1072.533697
143.586237,4737.318029,12287.418637,-8733.488677
143.586546,1110.308913,6883.915261,-1991.848295
143.586856,-3330.926739,9104.533087,9269.755526
143.587166,2516.700203,10362.883188,0.000000
143.587475,1332.370696,6513.812290,-6128.763984
143.587785,-3923.091493,8142.265362,4290.134789
143.588094,-3849.070898,7550.100608,2451.505594
143.588404,5329.482782,9400.615463,-9346.365076
143.588713,1776.494261,10955.047942,-4903.011187
143.589023,-4219.173869,6883.915261,5439.278036
143.589333,-0.000000,10140.821405,-229.828649
143.589642,3034.844362,9844.739029,-4903.011187
143.589952,-2886.803174,13915.871710,2834.553343
143.590261,740.205942,9030.512492,-3600.648841
143.590571,3034.844362,8734.430116,-6358.592633
143.590880,-1184.329507,13027.624579,383.047749
143.591190,-9548.656652,9400.615463,1455.581446
143.591500,2590.720797,11991.336260,-8886.707777
143.591809,2812.782580,11843.295072,-11644.651570
143.592119,518.144159,11399.171507,1762.019645
143.592428,1036.288319,10066.800811,4213.525239
143.592738,5921.647536,4737.318029,-612.876398
143.593047,2368.659014,8142.265362,8886.707777
143.593357,-5329.482782,7476.080014,10418.898773
143.593666,2590.720797,4737.318029,-3600.648841
143.593976,4737.318029,13101.645173,-7660.954980
143.594286,-3849.070898,7994.224174,-2145.067394
143.594595,-3849.070898,11769.274478,-3447.429741
143.594905,-1406.391290,15914.427753,-7277.907231
143.595214,4811.338623,14582.057057,-1302.362347
143.595524,-370.102971,9770.718434,3983.696590
143.595833,-1702.473667,8586.388927,4673.182538
143.596143,1036.288319,7105.977043,1838.629195
143.596453,814.226536,9622.677246,-842.705048
143.596762,-2590.720797,7698.141797,-2987.772442
143.597072,1110.308913,11029.068536,-1532.190996
143.597381,4293.194464,13175.665768,-5286.058936
143.597691,-0.000000,12287.418637,-3753.867940
143.598000,-4885.359217,6883.915261,919.314598
143.598310,-962.267725,3701.029710,2145.067394
143.598620,1258.350101,4663.297435,76.609550
143.598929,1628.453072,7031.956449,-1225.752797
143.599239,2368.659014,7920.203579,2528.115143
143.599548,2072.576638,11177.109724,-536.266849
143.599858,-4293.194464,10214.842000,1378.971896
143.600167,1924.535449,10881.027347,-2374.896044
143.600477,-1924.535449,7698.141797,-3524.039291
143.600786,-3849.070898,11177.109724,1532.190996
143.601096,1184.329507,15840.407159,-1225.752797
143.601406,1332.370696,9696.697840,-9193.145976
143.601715,1406.391290,8882.471304,-2451.505594
143.602025,-3182.885551,7624.121203,7584.345430
143.602334,-148.041188,8438.347739,459.657299
143.602644,518.144159,12139.377449,-3370.820191
143.602953,-518.144159,9622.677246,3753.867940
143.603263,1628.453072,9178.553681,-2834.553343
143.603573,2886.803174,10140.821405,-9959.241474
143.603882,518.144159,8438.347739,-1149.143247
143.604192,-2738.761985,5551.544565,3907.087040
143.604501,3404.947333,8882.471304,995.924147
143.604811,1924.535449,7105.977043,1762.019645
143.605120,-1998.556043,8660.409521,4136.915689
143.605430,592.164754,9400.615463,-2757.943793
143.605740,2146.597232,9474.636058,-5362.668486
143.606049,2664.741391,9696.697840,-4060.306139
143.606359,-5329.482782,8290.306550,76.609550
143.606668,-2368.659014,14730.098246,-1378.971896
143.606978,-5625.565159,10214.842000,-1455.581446
143.607287,3330.926739,13767.830521,-4979.620737
143.607597,1406.391290,5329.482782,-6818.249932
143.607906,666.185348,6809.894666,1302.362347
143.608216,-740.205942,8660.409521,3753.867940
143.608526,-2960.823768,9992.780217,919.314598
143.608835,592.164754,14137.933492,153.219100
143.609145,3997.112087,11325.150913,-4903.011187
143.609454,-1332.370696,10510.924376,-6511.811733
143.609764,1480.411884,6883.915261,-4443.353888
143.610073,1702.473667,5625.565159,-2221.676944
143.610383,-1184.329507,8660.409521,3447.429741
143.610693,-222.061783,6217.729913,6511.811733
143.611002,3034.844362,12583.501014,76.609550
143.611312,6439.791695,10584.944971,-2451.505594
143.611621,-3478.967927,5921.647536,3524.039291
143.611931,-6587.832884,9992.780217,459.657299
143.612240,2886.803174,13989.892304,-13330.061665
143.612550,3627.009116,16136.489536,-11874.480219
143.612860,-2368.659014,17394.839637,-842.705048
143.613169,-666.185348,9474.636058,1072.533697
143.613479,3775.050304,10140.821405,-1532.190996
143.613788,-1036.288319,5773.606348,4979.620737
143.614098,-5921.647536,4737.318029,7201.297681
143.614407,1850.514855,8808.450710,229.828649
143.614717,6291.750507,9992.780217,-9729.412825
143.615026,-1406.391290,9622.677246,-7737.564530
143.615336,-5329.482782,7105.977043,-3677.258390
143.615646,1998.556043,9474.636058,-4673.182538
143.615955,518.144159,8290.306550,-6128.763984
143.616265,2812.782580,6069.688724,2221.676944
143.616574,2960.823768,6587.832884,6281.983084
143.616884,2812.782580,4515.256246,1991.848295
143.617193,-2664.741391,7698.141797,6818.249932
143.617503,-3849.070898,9474.636058,3370.820191
143.617813,2294.638420,10288.862594,-5515.887586
143.618122,-2590.720797,14359.995275,-9269.755526
143.618432,-4737.318029,18949.272115,-10801.946522
143.618741,666.185348,16136.489536,-12410.747068
143.619051,3478.967927,10584.944971,-6358.592633
143.619360,-6439.791695,10510.924376,7354.516781
143.619670,-962.267725,5699.585753,14325.985813
143.619980,6587.832884,4811.338623,3753.867940
143.620289,-3330.926739,4219.173869,2834.553343
143.620599,-3034.844362,7698.141797,2145.067394
143.620908,6809.894666,9178.553681,-10418.898773
143.621218,1924.535449,14211.954086,-14096.157163
143.621527,-9474.636058,10584.944971,-919.314598
143.621837,-1258.350101,14063.912898,3370.820191
143.622146,9474.636058,9400.615463,-8656.879127
143.622456,444.123565,6883.915261,-3983.696590
143.622766,-1406.391290,5995.668130,9729.412825
143.623075,3627.009116,148.041188,2068.457845
143.623385,5329.482782,7550.100608,459.657299
143.623694,-5921.647536,11325.150913,9806.022374
143.624004,-2368.659014,16136.489536,995.924147
143.624313,2590.720797,12509.480420,-11874.480219
143.624623,-0.000000,10732.986159,-10801.946522
143.624933,-9104.533087,11325.150913,-7890.783629
143.625242,3701.029710,13841.851115,-9882.631924
143.625552,1554.432478,13323.706956,-4060.306139
143.625861,-222.061783,10955.047942,2451.505594
143.626171,-1924.535449,5403.503377,6894.859482
143.626480,5699.585753,7402.059420,4903.011187
143.626790,592.164754,8660.409521,2681.334243
143.627100,740.205942,6587.832884,0.000000
143.627409,370.102971,9400.615463,-1302.362347
143.627719,-2368.659014,8142.265362,-2451.505594
143.628028,-1554.432478,11991.336260,-10725.336972
143.628338,-1332.370696,8438.347739,-8810.098227
143.628647,3775.050304,11473.192101,-4519.963438
143.628957,-1258.350101,9474.636058,-1991.848295
143.629266,-5255.462188,7254.018232,2604.724693
143.629576,4145.153275,10140.821405,919.314598
143.629886,1110.308913,6587.832884,-1149.143247
143.630195,-370.102971,10436.903782,2681.334243
143.630505,-3034.844362,9178.553681,5132.839837
143.630814,3997.112087,11621.233289,-4060.306139
143.631124,1110.308913,12065.356855,-6511.811733
143.631433,-370.102971,8364.327145,-2374.896044
143.631743,222.061783,9992.780217,-1378.971896
143.632053,-2146.597232,10140.821405,-2221.676944
143.632362,-3552.988522,11991.336260,536.266849
143.632672,-888.247130,8808.450710,-2451.505594
143.632981,7105.977043,8364.327145,-8427.050478
143.633291,-1184.329507,9178.553681,-536.266849
143.633600,-4515.256246,10658.965565,8427.050478
143.633910,-0.000000,8068.244768,-1149.143247
143.634220,6587.832884,7105.977043,-3907.087040
143.634529,-2886.803174,9770.718434,2145.067394
143.634839,-5773.606348,9622.677246,3677.258390
143.635148,6365.771101,10436.903782,-9422.974625
143.635458,5181.441594,7105.977043,-13406.671215
143.635767,-10955.047942,9252.574275,2451.505594
143.636077,-2146.597232,10955.047942,6511.811733
143.636386,4071.132681,6291.750507,-7967.393179
143.636696,3478.967927,5699.585753,-7354.516781
143.637006,-7698.141797,7698.141797,9039.926876
143.637315,-2220.617826,7031.956449,2145.067394
143.637625,2294.638420,6809.894666,-7814.174080
143.637934,2146.597232,8438.347739,-5362.668486
143.638244,-296.082377,10955.047942,-2681.334243
143.638553,-4145.153275,13767.830521,3370.820191
143.638863,666.185348,15470.304188,4749.792088
143.639173,2368.659014,11843.295072,-5669.106685
143.639482,2146.597232,6291.750507,-10418.898773
143.639792,-6143.709319,6661.853478,2451.505594
143.640101,-5403.503377,8512.368333,1608.800546
143.640411,5403.503377,7105.977043,-10035.851024
143.640720,5181.441594,10732.986159,-4826.401637
143.641030,-3701.029710,11695.253884,10801.946522
143.641340,-4959.379811,6513.812290,6435.202183
143.641649,6513.812290,7550.100608,-1838.629195
143.641959,2220.617826,5921.647536,-1991.848295
143.642268,-3775.050304,8734.430116,2451.505594
143.642578,666.185348,13841.851115,-1225.752797
143.642887,1628.453072,10510.924376,-10648.727422
143.643197,-2738.761985,10881.027347,-5515.887586
143.643507,-4885.359217,10362.883188,3753.867940
143.643816,5625.565159,7846.182985,-766.095498
143.644126,-1702.473667,9918.759623,-1915.238745
143.644435,1702.473667,12065.356855,1149.143247
143.644745,1776.494261,7772.162391,306.438199
143.645054,-888.247130,8734.430116,995.924147
143.645364,-6217.729913,7031.956449,7584.345430
143.645673,-518.144159,9474.636058,-2451.505594
143.645983,5255.462188,10658.965565,-14709.033562
143.646293,3182.885551,10658.965565,-5209.449386
143.646602,-8216.285956,9770.718434,612.876398
143.646912,-222.061783,7698.141797,-229.828649
143.647221,6217.729913,10955.047942,-3140.991542
143.647531,1850.514855,7550.100608,2221.676944
143.647840,-9030.512492,5625.565159,8273.831378
143.648150,-2516.700203,7846.182985,3064.381992
143.648460,5921.647536,10436.903782,-8580.269578
143.648769,1184.329507,9326.594869,-11031.775171
143.649079,-0.000000,11695.253884,-612.876398
143.649388,-2590.720797,11399.171507,3677.258390
143.649698,-3775.050304,9474.636058,2221.676944
143.650007,2146.597232,9252.574275,-995.924147
143.650317,3997.112087,6735.874072,-4979.620737
143.650627,-1110.308913,6365.771101,-3907.087040
143.650936,-7105.977043,7179.997637,3830.477490
143.651246,3849.070898,13471.748144,-4443.353888
143.651555,2072.576638,12657.521608,-7660.954980
143.651865,-3108.864956,14804.118840,76.609550
143.652174,-6513.812290,12287.418637,-1915.238745
143.652484,5033.400406,11769.274478,-13253.452115
143.652793,4737.318029,4737.318029,-9499.584175
143.653103,-1332.370696,7031.956449,3983.696590
143.653413,-1332.370696,2812.782580,4290.134789
143.653722,1110.308913,8734.430116,3140.991542
143.654032,-3923.091493,12583.501014,1532.190996
143.654341,-296.082377,11695.253884,-8427.050478
143.654651,3108.864956,13323.706956,-19458.825649
143.654960,-1998.556043,15248.242405,-17160.539155
143.655270,-8438.347739,13175.665768,-10189.070123
143.655580,-814.226536,11325.150913,-10955.165621
143.655889,4219.173869,9326.594869,-9806.022374
143.656199,-1924.535449,6661.853478,1838.629195
143.656508,-2368.659014,6069.688724,8350.440928
143.656818,6513.812290,3404.947333,-3600.648841
143.657127,3997.112087,3997.112087,-14402.595362
143.657437,296.082377,6069.688724,-12257.527968
143.657747,-5107.421000,9104.533087,-9806.022374
143.658056,2220.617826,14285.974681,-11644.651570
143.658366,3182.885551,14952.160028,-11491.432470
143.658675,1628.453072,11843.295072,-8427.050478
143.658985,-4367.215058,2812.782580,-3677.258390
143.659294,-3849.070898,6957.935855,-1149.143247
143.659604,6217.729913,1554.432478,-10342.289223
143.659913,2516.700203,8956.491898,-17696.806004
143.660223,1110.308913,11547.212695,-7431.126331
143.660533,-2294.638420,17542.880825,-4290.134789
143.660842,2590.720797,11843.295072,-12640.575717
143.661152,-2146.597232,11177.109724,-9576.193725
143.661461,-5181.441594,7550.100608,-3447.429741
143.661771,-1702.473667,6957.935855,-11568.042020
143.662080,-0.000000,6291.750507,-16241.224558
143.662390,1332.370696,9104.533087,-12563.966167
143.662700,-4663.297435,9178.553681,-8044.002729
143.663009,370.102971,11843.295072,-10648.727422
143.663319,-2368.659014,7179.997637,-10495.508323
143.663628,2738.761985,8290.306550,-9039.926876
143.663938,-4145.153275,6957.935855,-6971.469032
143.664247,-1628.453072,8660.409521,-7354.516781
143.664557,-0.000000,8438.347739,-12334.137518
143.664867,3923.091493,9474.636058,-14785.643111
143.665176,-1628.453072,9918.759623,-9806.022374
143.665486,-3627.009116,10510.924376,-5669.106685
143.665795,888.247130,14063.912898,-14019.547613
143.666105,8142.265362,9252.574275,-16930.710506
143.666414,-1628.453072,8808.450710,-8886.707777
143.666724,-6069.688724,4441.235652,-6741.640382
143.667033,-3701.029710,8216.285956,-5898.935335
143.667343,3330.926739,7179.997637,-17160.539155
143.667656,2072.576638,7920.203579,-17007.320056
143.667965,740.205942,12657.521608,-8580.269578
143.668275,-1702.473667,13101.645173,-7737.564530
143.668585,3256.906145,14804.118840,-13100.233016
143.668894,6291.750507,9252.574275,-14019.547613
143.669204,-0.000000,7846.182985,-8120.612279
143.669513,222.061783,3627.009116,0.000000
143.669823,1332.370696,3997.112087,-1072.533697
143.670132,-740.205942,8216.285956,-5592.497135
143.670442,-296.082377,8068.244768,-10495.508323
143.670752,-3701.029710,14211.954086,-15781.567259
143.671061,-2072.576638,13767.830521,-18692.730151
143.671371,-0.000000,18357.107362,-17850.025103
143.671680,-1628.453072,14804.118840,-16547.662757
143.671990,-2294.638420,9474.636058,-12027.699319
143.672300,-3478.967927,6513.812290,-9422.974625
143.672609,2368.659014,6069.688724,-5975.544884
143.672919,7846.182985,6439.791695,-6894.859482
143.673228,888.247130,4219.173869,-1149.143247
143.673538,-2368.659014,5033.400406,2451.505594
143.673847,-3034.844362,7179.997637,-8503.660028
143.674157,-0.000000,11621.233289,-17926.634653
143.674467,-1332.370696,14211.954086,-19612.044749
143.674776,-2738.761985,13915.871710,-17696.806004
143.675086,-1850.514855,12139.377449,-14325.985813
143.675395,-518.144159,10510.924376,-10112.460574
143.675705,962.267725,8956.491898,-5975.544884
143.676015,-1110.308913,10362.883188,-1608.800546
143.676324,-1184.329507,10510.924376,-1225.752797
143.676634,2368.659014,11917.315666,-5745.716235
143.676943,5773.606348,10510.924376,-17466.977354
143.677253,518.144159,10881.027347,-13483.280765
143.677562,-4811.338623,12139.377449,-5975.544884
143.677872,-0.000000,11843.295072,-7967.393179
143.678182,1998.556043,12213.398043,-11031.775171
143.678491,-2516.700203,9844.739029,-9499.584175
143.678801,-3108.864956,8142.265362,-8503.660028
143.679110,2960.823768,7624.121203,-15781.567259
143.679420,3552.988522,7550.100608,-18386.291952
143.679730,-592.164754,8142.265362,-8886.707777
143.680039,-370.102971,9918.759623,-2834.553343
143.680349,4737.318029,9474.636058,-6588.421283
143.680658,3478.967927,9178.553681,-6971.469032
143.680968,-0.000000,5403.503377,-3907.087040
143.681278,-1628.453072,6587.832884,-6665.030833
143.681587,-1554.432478,10658.965565,-14709.033562
143.681897,1110.308913,15174.221811,-19765.263848
143.682206,-1258.350101,14582.057057,-18539.511052
143.682516,-4737.318029,13545.768739,-9806.022374
143.682825,-3552.988522,12065.356855,-6511.811733
143.683135,-0.000000,8068.244768,-10418.898773
143.683445,814.226536,5551.544565,-11568.042020
143.683754,-148.041188,2886.803174,-6358.592633
143.684064,-3256.906145,5699.585753,-3907.087040
143.684373,1776.494261,10362.883188,-9959.241474
143.684683,3627.009116,13693.809927,-16471.053207
143.684993,666.185348,13989.892304,-14325.985813
143.685302,592.164754,12287.418637,-7048.078582
143.685612,2738.761985,9178.553681,-10495.508323
143.685921,2072.576638,4219.173869,-10342.289223
143.686231,444.123565,962.267725,-5669.106685
143.686540,-1258.350101,222.061783,-2451.505594
143.686850,-1998.556043,4145.153275,-3983.696590
143.687160,-0.000000,9178.553681,-9193.145976
143.687469,444.123565,15840.407159,-14402.595362
143.687779,-592.164754,16728.654289,-15934.786358
143.688088,-888.247130,19911.539840,-14172.766713
143.688398,-222.061783,15322.262999,-15934.786358
143.688708,-1332.370696,10140.821405,-13866.328514
143.689017,-1776.494261,7105.977043,-7814.174080
143.689327,-888.247130,7476.080014,-3677.258390
143.689636,1184.329507,5033.400406,-5209.449386
143.689946,2886.803174,7328.038826,-10265.679673
143.690256,1258.350101,7179.997637,-13406.671215
143.690565,148.041188,9178.553681,-12793.794817
143.690875,1036.288319,10584.944971,-10878.556072
143.691184,2146.597232,8956.491898,-12410.747068
143.691494,740.205942,6957.935855,-9806.022374
143.691803,-296.082377,4071.132681,-5592.497135
143.692113,-0.000000,1480.411884,-6511.811733
143.692423,-222.061783,5329.482782,-11031.775171
143.692732,-222.061783,10436.903782,-6894.859482
143.693042,-740.205942,13323.706956,-7201.297681
143.693351,-814.226536,17246.798449,-12027.699319
143.693661,518.144159,16506.592507,-13559.890315
143.693971,-888.247130,14063.912898,-13636.499864
143.694280,-1406.391290,11251.130318,-14249.376263
143.694590,-1036.288319,8438.347739,-11491.432470
143.694899,370.102971,8216.285956,-8350.440928
143.695209,-1036.288319,7031.956449,-3600.648841
143.695518,1850.514855,9252.574275,-4290.134789
143.695828,1998.556043,7772.162391,-6435.202183
143.696138,1480.411884,7476.080014,-7967.393179
143.696447,2664.741391,6513.812290,-8963.317327
143.696757,3849.070898,8512.368333,-9882.631924
143.697066,-1184.329507,7179.997637,-4596.572988
143.697376,666.185348,8290.306550,-3370.820191
143.697686,2960.823768,9474.636058,-6435.202183
143.697995,1406.391290,9178.553681,-7124.688131
143.698305,-296.082377,11769.274478,-2757.943793
143.698614,-1702.473667,11843.295072,-3140.991542
143.698924,-962.267725,11769.274478,-8886.707777
143.699234,-4441.235652,10510.924376,-9882.631924
143.699543,-5329.482782,11917.315666,-8810.098227
143.699853,-2960.823768,10140.821405,-13330.061665
143.700162,-3108.864956,12657.521608,-13253.452115
143.700472,-1924.535449,13397.727550,-10725.336972
143.700781,-222.061783,12805.562797,-11797.870669
143.701091,1036.288319,11769.274478,-10955.165621
143.701401,-1110.308913,11251.130318,-7737.564530
143.701710,-296.082377,10732.986159,-9576.193725
143.702020,222.061783,10807.006753,-13253.452115
143.702329,-1184.329507,10436.903782,-14325.985813
143.702639,-1702.473667,8216.285956,-15475.129060
143.702949,1628.453072,7624.121203,-17773.415554
143.703258,2368.659014,7031.956449,-15015.471761
143.703568,1776.494261,7550.100608,-7431.126331
143.703877,3552.988522,6513.812290,-4213.525239
143.704187,10140.821405,7624.121203,-4749.792088
143.704496,-6587.832884,5403.503377,0.000000
143.704806,-518.144159,7105.977043,-7584.345430
143.705116,-4367.215058,8512.368333,-22369.988542
143.705425,-1924.535449,12065.356855,-24744.884585
143.705735,-518.144159,19319.375086,-20684.578446
143.706044,-4589.276840,18209.066173,-19305.606550
143.706354,8586.388927,18283.086767,-22753.036291
143.706664,-0.000000,12435.459826,-11797.870669
143.706973,1036.288319,9622.677246,-5056.230287
143.707283,1480.411884,3404.947333,-4136.915689
143.707592,17764.942608,-6809.894666,-11338.213370
143.707902,-33605.349767,-1998.556043,-995.924147
143.708211,15988.448347,23316.487173,-2451.505594
143.708521,13619.789333,17172.777854,-22369.988542
143.708831,11917.315666,7698.141797,-26966.561530
143.709140,-21910.095883,3552.988522,-9193.145976
143.709450,-12065.356855,13323.706956,-7660.954980
143.709759,5551.544565,16876.695478,-20071.702048
143.710069,-0.000000,7179.997637,-18539.511052
143.710379,148.041188,11917.315666,-13176.842566
143.710688,-7105.977043,2664.741391,-10572.117872
143.710998,-5255.462188,14137.933492,-10418.898773
143.711307,3330.926739,14952.160028,-9499.584175
143.711617,6735.874072,13397.727550,-19075.777900
143.711927,-2146.597232,7402.059420,-6971.469032
143.712236,-8142.265362,6291.750507,4749.792088
143.712546,814.226536,3775.050304,-14938.862211
143.712855,1480.411884,2294.638420,-28728.581175
143.713165,3256.906145,8734.430116,-14709.033562
143.713474,-6957.935855,6883.915261,-5132.839837
143.713784,3256.906145,10288.862594,-10955.165621
143.714094,6587.832884,8438.347739,-9806.022374
143.714403,4293.194464,5329.482782,-7967.393179
143.714713,-3997.112087,2738.761985,2987.772442
143.715022,-3923.091493,6661.853478,2068.457845
143.715332,2738.761985,9918.759623,-13789.718964
143.715642,6957.935855,16210.510130,-26200.466032
143.715951,-2960.823768,15914.427753,-17926.634653
143.716261,222.061783,19541.436869,-10342.289223
143.716570,4589.276840,18949.272115,-11031.775171
143.716880,3108.864956,16136.489536,-7660.954980
143.717189,-2368.659014,8660.409521,153.219100
143.717499,-1110.308913,4367.215058,-1378.971896
143.717809,2516.700203,5773.606348,-10878.556072
143.718118,2812.782580,3701.029710,-13866.328514
143.718428,3256.906145,9326.594869,-14938.862211
143.718737,-296.082377,9992.780217,-7201.297681
143.719047,-3552.988522,17024.736666,-1378.971896
143.719357,370.102971,12657.521608,-3217.601092
143.719666,1406.391290,13767.830521,-8963.317327
143.719976,-74.020594,8290.306550,-8580.269578
143.720285,-5625.565159,4071.132681,-8733.488677
143.720595,-2960.823768,3923.091493,-11644.651570
143.720905,-1554.432478,10732.986159,-8810.098227
143.721214,-1184.329507,14211.954086,-7660.954980
143.721524,-3849.070898,16136.489536,-7277.907231
143.721833,-0.000000,15174.221811,-9882.631924
143.722143,3256.906145,10362.883188,-8886.707777
143.722452,-3330.926739,5107.421000,-5898.935335
143.722762,-3849.070898,3627.009116,-6894.859482
143.723072,-5477.523971,3775.050304,-9116.536426
143.723381,3478.967927,11991.336260,-11644.651570
143.723691,5107.421000,10732.986159,-16547.662757
143.724000,-1036.288319,16358.551318,-12640.575717
143.724310,-518.144159,15174.221811,-6205.373534
143.724620,-74.020594,7254.018232,-13483.280765
143.724929,-0.000000,8216.285956,-14325.985813
143.725239,962.267725,6809.894666,-12104.308868
143.725548,-3552.988522,3997.112087,-5362.668486
143.725858,-1036.288319,8882.471304,-3753.867940
143.726167,-962.267725,12657.521608,-13023.623466
143.726477,3330.926739,15840.407159,-21527.283494
143.726787,3256.906145,13175.665768,-18999.168350
143.727096,-7031.956449,12805.562797,-12640.575717
143.727406,-0.000000,17394.839637,-14172.766713
143.727715,3034.844362,8660.409521,-18692.730151
143.728025,444.123565,8068.244768,-14402.595362
143.728335,1036.288319,2368.659014,-5975.544884
143.728644,-1628.453072,5773.606348,-919.314598
143.728954,1924.535449,6439.791695,-5592.497135
143.729263,6957.935855,10807.006753,-15168.690860
143.729573,4071.132681,11695.253884,-16241.224558
143.729882,-5773.606348,10362.883188,-10878.556072
143.730192,-5551.544565,10807.006753,-10418.898773
143.730502,-2738.761985,10732.986159,-20148.311597
143.730811,2812.782580,11029.068536,-21374.064394
143.731121,-7476.080014,2368.659014,-7431.126331
143.731430,-4293.194464,7254.018232,0.000000
143.731740,-2294.638420,10658.965565,-6894.859482
143.732050,9178.553681,13323.706956,-16317.834107
143.732359,-8142.265362,14285.974681,-10725.336972
143.732669,-2368.659014,11251.130318,-9116.536426
143.732978,-4441.235652,14359.995275,-17926.634653
143.733288,9474.636058,13545.768739,-24361.836836
143.733598,888.247130,12583.501014,-16088.005458
143.733907,1776.494261,2368.659014,-1378.971896
143.734217,-3256.906145,5107.421000,1225.752797
143.734526,6217.729913,296.082377,-4213.525239
143.734836,3775.050304,2738.761985,-8120.612279
143.735145,2442.679609,-1924.535449,-7507.735880
143.735455,-3552.988522,8734.430116,-1455.581446
143.735765,4441.235652,4811.338623,-8120.612279
143.736074,3330.926739,10584.944971,-12180.918418
143.736384,-1998.556043,12287.418637,-459.657299
143.736693,-2442.679609,9696.697840,3907.087040
143.737003,-4219.173869,6513.812290,-4519.963438
143.737313,-2294.638420,9844.739029,-6894.859482
143.737622,2812.782580,9992.780217,-5439.278036
143.737932,814.226536,12657.521608,-4519.963438
143.738241,148.041188,12509.480420,842.705048
143.738551,-6957.935855,15766.386565,2834.553343
143.738860,3701.029710,14878.139434,-2604.724693
143.739170,2294.638420,11991.336260,-8120.612279
143.739480,-1110.308913,15988.448347,-1149.143247
143.739789,-4145.153275,12361.439231,2911.162892
143.740099,1702.473667,13767.830521,-8580.269578
143.740408,3552.988522,10436.903782,-10418.898773
143.740718,-2590.720797,11843.295072,0.000000
143.741028,-4737.318029,13027.624579,3753.867940
143.741337,1110.308913,14730.098246,842.705048
143.741647,3108.864956,11029.068536,-2681.334243
143.741956,814.226536,5477.523971,-459.657299
143.742266,-1998.556043,5847.626942,5132.839837
143.742576,-1258.350101,5921.647536,2911.162892
143.742885,-1036.288319,6143.709319,-229.828649
143.743195,-3182.885551,8438.347739,-153.219100
143.743504,2072.576638,12287.418637,-1991.848295
143.743814,-6735.874072,11991.336260,-2145.067394
143.744123,-3256.906145,12879.583391,-4826.401637
143.744433,6143.709319,9252.574275,-10955.165621
143.744743,3627.009116,6883.915261,-5669.106685
143.745052,-518.144159,6513.812290,8350.440928
143.745362,-1406.391290,7105.977043,13253.452115
143.745671,6957.935855,8290.306550,-919.314598
143.745981,4515.256246,8290.306550,-2451.505594
143.746291,-148.041188,10732.986159,919.314598
143.746600,-1184.329507,8734.430116,-919.314598
143.746910,2590.720797,13471.748144,-5975.544884
143.747219,2960.823768,13175.665768,-3370.820191
143.747529,-3034.844362,8438.347739,-1455.581446
143.747838,-2294.638420,11843.295072,536.266849
143.748148,-814.226536,10881.027347,-766.095498
143.748458,-1776.494261,10436.903782,-1915.238745
143.748767,3330.926739,7402.059420,-4366.744339
143.749077,-5921.647536,11917.315666,-2374.896044
143.749386,-4885.359217,17468.860231,-2528.115143
143.749696,-0.000000,11251.130318,-4596.572988
143.750006,6513.812290,18135.045579,-6741.640382
143.750315,592.164754,11547.212695,-6281.983084
143.750625,-6587.832884,8216.285956,-1685.410096
143.750934,-888.247130,3775.050304,-3064.381992
143.751244,5255.462188,6735.874072,-7354.516781
143.751553,-222.061783,8586.388927,919.314598
143.751863,-3404.947333,5625.565159,7431.126331
143.752173,-0.000000,2960.823768,-1532.190996
143.752482,1554.432478,7550.100608,-6818.249932
143.752792,-2072.576638,3552.988522,689.485948
143.753101,-7402.059420,4959.379811,-153.219100
143.753411,-0.000000,7105.977043,-5975.544884
143.753721,4219.173869,11547.212695,-3524.039291
143.754030,814.226536,5847.626942,-3753.867940
143.754340,-2516.700203,9326.594869,612.876398
143.754649,-2442.679609,11991.336260,3064.381992
143.754959,5329.482782,11769.274478,-6818.249932
143.755269,3627.009116,6365.771101,-5515.887586
143.755578,-814.226536,10732.986159,-1072.533697
143.755888,-2072.576638,10066.800811,2911.162892
143.756197,370.102971,13471.748144,-5975.544884
143.756507,7772.162391,15026.180623,-11951.089769
143.756816,296.082377,11399.171507,-5745.716235
143.757126,-2664.741391,7254.018232,4060.306139
143.757436,1702.473667,9474.636058,-459.657299
143.757745,5033.400406,9548.656652,-5515.887586
143.758055,592.164754,6661.853478,-1302.362347
143.758364,-4737.318029,3256.906145,7660.954980
143.758674,-740.205942,10732.986159,306.438199
143.758984,9696.697840,5699.585753,-4673.182538
143.759293,-1110.308913,8734.430116,-1149.143247
143.759603,-5551.544565,10510.924376,8120.612279
143.759912,-4811.338623,10658.965565,5745.716235
143.760222,4219.173869,11399.171507,-4519.963438
143.760531,-370.102971,9474.636058,-5669.106685
143.760841,-2220.617826,12583.501014,-1762.019645
143.761151,-3034.844362,8882.471304,1072.533697
143.761460,-518.144159,9770.718434,-1378.971896
143.761770,1480.411884,11325.150913,1302.362347
143.762079,1406.391290,12361.439231,2757.943793
143.762389,-5699.585753,10140.821405,9729.412825
143.762699,-4663.297435,13027.624579,1378.971896
143.763008,5921.647536,9400.615463,-13636.499864
143.763318,3478.967927,7254.018232,-11261.603821
143.763627,-3627.009116,5255.462188,7354.516781
143.763937,-4811.338623,7179.997637,7967.393179
143.764247,4145.153275,8438.347739,3294.210641
143.764556,3478.967927,4219.173869,6588.421283
143.764866,-3552.988522,2886.803174,5669.106685
143.765175,666.185348,8808.450710,-4290.134789
143.765485,3775.050304,5403.503377,-7354.516781
143.765794,-3701.029710,8438.347739,-2451.505594
143.766104,-888.247130,10140.821405,-1608.800546
143.766414,2664.741391,14804.118840,76.609550
143.766723,-2368.659014,15026.180623,3753.867940
143.767033,-740.205942,10732.986159,4903.011187
143.767342,1184.329507,14804.118840,76.609550
143.767652,-888.247130,10362.883188,-4749.792088
143.767961,-2664.741391,11177.109724,-4979.620737
143.768271,4663.297435,11103.089130,-10265.679673
143.768581,1184.329507,14508.036463,-6435.202183
143.768890,-3997.112087,12879.583391,6435.202183
143.769200,-962.267725,11991.336260,6511.811733
143.769509,8882.471304,5699.585753,-7890.783629
143.769819,1702.473667,-814.226536,-1838.629195
143.770128,-6957.935855,3256.906145,13866.328514
143.770438,814.226536,4811.338623,2604.724693
143.770747,2146.597232,8438.347739,-9039.926876
143.771057,3034.844362,12361.439231,-3217.601092
143.771367,-1776.494261,9178.553681,-1149.143247
143.771676,296.082377,11473.192101,-4136.915689
143.771986,-2220.617826,12731.542202,-1378.971896
143.772295,-6143.709319,11103.089130,1991.848295
143.772605,-0.000000,11325.150913,-4443.353888
143.772914,-3849.070898,11695.253884,-1762.019645
143.773224,-1998.556043,17838.963202,-2911.162892
143.773534,2664.741391,10510.924376,-12180.918418
143.773843,-0.000000,12879.583391,-11491.432470
143.774153,-4219.173869,13323.706956,76.609550
143.774462,-1776.494261,5921.647536,3370.820191
143.774772,9178.553681,7179.997637,-4290.134789
143.775081,-0.000000,4293.194464,-536.266849
143.775391,-2146.597232,1332.370696,8886.707777
143.775700,518.144159,-888.247130,1532.190996
143.776010,7105.977043,1702.473667,-5975.544884
143.776320,814.226536,7994.224174,612.876398
143.776629,-1332.370696,6735.874072,3064.381992
143.776939,-666.185348,12879.583391,76.609550
143.777248,370.102971,15026.180623,-1378.971896
143.777558,-370.102971,12139.377449,-1455.581446
143.777867,-4515.256246,12879.583391,-6052.154434
143.778177,-1406.391290,15840.407159,-6894.859482
143.778486,-4515.256246,18505.148550,-5745.716235
143.778796,2220.617826,16358.551318,-8350.440928
143.779106,3849.070898,15544.324782,-6894.859482
143.779415,296.082377,13841.851115,-2068.457845
143.779725,-1406.391290,7476.080014,8044.002729
143.780034,2146.597232,814.226536,4136.915689
143.780344,4589.276840,-370.102971,3447.429741
143.780653,-2220.617826,2072.576638,8273.831378
143.780963,-1554.432478,6365.771101,5898.935335
143.781273,3256.906145,3923.091493,-4596.572988
143.781582,-3552.988522,9474.636058,-1685.410096
143.781892,-4589.276840,9918.759623,-1225.752797
143.782201,-2664.741391,15914.427753,-7354.516781
143.782511,2886.803174,14285.974681,-7584.345430
143.782820,-4293.194464,12657.521608,689.485948
143.783130,1110.308913,9252.574275,459.657299
143.783439,1184.329507,7179.997637,0.000000
143.783749,-0.000000,10584.944971,5592.497135
143.784059,-3330.926739,10510.924376,5822.325785
143.784368,2960.823768,12953.603985,-4136.915689
143.784678,1850.514855,13249.686362,-7431.126331
143.784987,-888.247130,9474.636058,-1685.410096
143.785297,-2590.720797,8808.450710,-5822.325785
143.785606,7698.141797,5773.606348,-8656.879127
143.785916,1258.350101,3256.906145,-689.485948
143.786226,-3552.988522,1184.329507,12487.356617
143.786535,-592.164754,7698.141797,8197.221829
143.786845,7105.977043,5033.400406,1149.143247
143.787154,4219.173869,6587.832884,3753.867940
143.787464,-5625.565159,7031.956449,4979.620737
143.787773,148.041188,16432.571912,-3447.429741
143.788083,-3997.112087,15174.221811,-10265.679673
143.788392,-0.000000,17838.963202,-5286.058936
143.788702,-3182.885551,16728.654289,-8350.440928
143.789012,-296.082377,18135.045579,-9652.803275
143.789321,-3404.947333,9252.574275,-3140.991542
143.789631,-962.267725,7624.121203,76.609550
143.789940,4071.132681,5921.647536,2681.334243
143.790250,-740.205942,4071.132681,7048.078582
143.790559,148.041188,2738.761985,8733.488677
143.790869,4737.318029,2516.700203,306.438199
143.791178,518.144159,3034.844362,-3753.867940
143.791488,-4219.173869,6069.688724,1225.752797
143.791798,2368.659014,8068.244768,-3753.867940
143.792107,5921.647536,7624.121203,-11797.870669
143.792417,1480.411884,8216.285956,2221.676944
143.792726,-9030.512492,10658.965565,14172.766713
143.793036,-6365.771101,9104.533087,7354.516781
143.793345,4737.318029,9844.739029,-1378.971896
143.793655,666.185348,14285.974681,-3294.210641
143.793965,-5181.441594,11843.295072,-7660.954980
143.794274,-3701.029710,16136.489536,-8580.269578
143.794584,1480.411884,18209.066173,-7814.174080
143.794893,3627.009116,14508.036463,-6894.859482
143.795203,-4589.276840,13915.871710,3830.477490
143.795512,1184.329507,11177.109724,7890.783629
143.795822,5921.647536,2368.659014,612.876398
143.796131,6365.771101,148.041188,-2604.724693
143.796441,3256.906145,2294.638420,4060.306139
143.796751,-3775.050304,5921.647536,5286.058936
143.797060,4367.215058,6143.709319,-153.219100
143.797370,4441.235652,7994.224174,-3983.696590
143.797679,-2220.617826,9770.718434,76.609550
143.797989,-6957.935855,13397.727550,919.314598
143.798298,-888.247130,11473.192101,-5439.278036
143.798608,6069.688724,13175.665768,-14479.204912
143.798917,-4293.194464,12435.459826,-4443.353888
143.799227,-6587.832884,16580.613101,4136.915689
143.799537,-1184.329507,15100.201217,-1762.019645
143.799846,2960.823768,12139.377449,-3677.258390
143.800156,-3256.906145,9178.553681,5286.058936
143.800465,-4589.276840,6439.791695,4290.134789
143.800775,6587.832884,8216.285956,-9806.022374
143.801084,7624.121203,2146.597232,-12027.699319
143.801394,148.041188,5921.647536,766.095498
143.801704,-1258.350101,518.144159,10112.460574
143.802013,3034.844362,5699.585753,9346.365076
143.802323,592.164754,7920.203579,5056.230287
143.802632,-2738.761985,6365.771101,3753.867940
143.802942,-2220.617826,13397.727550,-1991.848295
143.803251,-1258.350101,14804.118840,-9959.241474
143.803561,1554.432478,17690.922014,-17313.758255
143.803870,-962.267725,14211.954086,-9116.536426
143.804180,-5255.462188,23094.425390,1455.581446
143.804490,-2072.576638,12657.521608,5515.887586
143.804799,6069.688724,9992.780217,1302.362347
143.805109,5773.606348,7550.100608,2987.772442
143.805418,-1480.411884,1850.514855,8963.317327
143.805728,-5847.626942,6143.709319,9116.536426
143.806037,2442.679609,9178.553681,-7507.735880
143.806347,10436.903782,10658.965565,-19075.777900
143.806657,666.185348,10362.883188,-9039.926876
143.806966,-4293.194464,6661.853478,3830.477490
143.807276,1184.329507,6883.915261,5898.935335
143.807585,2738.761985,7179.997637,3447.429741
143.807895,-592.164754,2960.823768,3907.087040
143.808204,-1628.453072,8438.347739,5669.106685
143.808514,2220.617826,7772.162391,0.000000
143.808823,-2590.720797,9844.739029,-5439.278036
143.809133,-1850.514855,18653.189738,-6128.763984
143.809443,-370.102971,18061.024985,-9269.755526
143.809752,-4145.153275,15692.365970,-5132.839837
143.810062,-2590.720797,16062.468941,689.485948
143.810371,518.144159,10881.027347,-3907.087040
143.810681,1406.391290,4293.194464,-6971.469032
143.810990,-3923.091493,2812.782580,2987.772442
143.811300,-74.020594,3478.967927,4903.011187
143.811609,4293.194464,6291.750507,-689.485948
143.811919,2072.576638,6883.915261,1685.410096
143.812229,2516.700203,10510.924376,-842.705048
143.812538,3256.906145,9844.739029,-4903.011187
143.812848,1702.473667,6143.709319,-2451.505594
143.813157,444.123565,4885.359217,995.924147
143.813467,-1110.308913,8364.327145,-1532.190996
143.813776,7698.141797,9548.656652,-612.876398
143.814086,-4959.379811,8808.450710,2911.162892
143.814396,-3849.070898,12435.459826,5669.106685
143.814705,-4145.153275,14063.912898,995.924147
143.815015,-0.000000,18949.272115,-7890.783629
143.815324,370.102971,16062.468941,-10725.336972
143.815634,592.164754,13619.789333,-9346.365076
143.815943,370.102971,11843.295072,-2145.067394
143.816253,-3997.112087,6809.894666,6588.421283
143.816562,-3108.864956,5921.647536,7660.954980
143.816872,4071.132681,5699.585753,-612.876398
143.817182,3923.091493,4885.359217,0.000000
143.817491,-962.267725,6069.688724,3294.210641
143.817801,1998.556043,7179.997637,-1915.238745
143.818110,222.061783,7550.100608,-3983.696590
143.818420,-1776.494261,11177.109724,-1072.533697
143.818729,-1184.329507,9696.697840,-4136.915689
143.819039,1628.453072,6291.750507,-5669.106685
143.819349,-74.020594,7031.956449,0.000000
143.819658,-2812.782580,6735.874072,2604.724693
143.819968,-2886.803174,10066.800811,459.657299
143.820277,-444.123565,10066.800811,-995.924147
143.820587,-2738.761985,13027.624579,-1991.848295
143.820896,-444.123565,11769.274478,-5056.230287
143.821206,2368.659014,12139.377449,-6588.421283
143.821515,-4441.235652,11769.274478,-1915.238745
143.821825,-5181.441594,9326.594869,2298.286494
143.822135,2072.576638,8512.368333,-4366.744339
143.822444,3627.009116,7328.038826,-5822.325785
143.822754,-1998.556043,5847.626942,2068.457845
143.823063,-1480.411884,8068.244768,4136.915689
143.823373,7031.956449,7550.100608,-3830.477490
143.823682,4145.153275,6439.791695,-1915.238745
143.823992,-888.247130,7920.203579,4136.915689
143.824301,-1554.432478,10362.883188,1072.533697
143.824611,4663.297435,9992.780217,-3600.648841
143.824921,1258.350101,10584.944971,-5286.058936
143.825230,-4441.235652,11177.109724,-4903.011187
143.825540,-444.123565,11399.171507,-4290.134789
143.825849,-1036.288319,11399.171507,-2298.286494
143.826159,-1036.288319,11177.109724,153.219100
143.826468,-518.144159,13175.665768,1532.190996
143.826778,-1480.411884,8808.450710,1225.752797
143.827088,-2368.659014,11251.130318,76.609550
143.827397,-2886.803174,10881.027347,-6128.763984
143.827707,2664.741391,8438.347739,-12487.356617
143.828016,3034.844362,5403.503377,-11568.042020
143.828326,-2294.638420,6365.771101,76.609550
143.828635,-4367.215058,5181.441594,8350.440928
143.828945,5033.400406,6661.853478,3753.867940
143.829254,4367.215058,2812.782580,-153.219100
143.829564,2812.782580,4145.153275,-2757.943793
143.829874,-1850.514855,5403.503377,-1072.533697
143.830183,2442.679609,7772.162391,-6358.592633
143.830493,222.061783,11251.130318,-6205.373534
143.830802,-518.144159,10288.862594,1608.800546
143.831112,-1332.370696,14730.098246,153.219100
143.831421,-4589.276840,11695.253884,1685.410096
143.831731,-3997.112087,14952.160028,-766.095498
143.832041,1850.514855,12731.542202,-11184.994271
143.832350,-1702.473667,12509.480420,-12717.185267
143.832660,-5699.585753,11769.274478,306.438199
143.832969,2368.659014,13249.686362,-2987.772442
143.833279,9622.677246,8808.450710,-10035.851024
143.833588,-5107.421000,5329.482782,7048.078582
143.833898,-4219.173869,4959.379811,16624.272307
143.834207,7328.038826,3775.050304,-4366.744339
143.834517,8956.491898,-814.226536,-9882.631924
143.834827,518.144159,5699.585753,4136.915689
143.835136,-5625.565159,4293.194464,8963.317327
143.835446,1850.514855,13767.830521,-3753.867940
143.835755,4219.173869,16506.592507,-3677.258390
143.836065,-592.164754,11991.336260,-1685.410096
143.836374,-4885.359217,13989.892304,-2221.676944
143.836684,-5181.441594,13323.706956,-4366.744339
143.836993,2664.741391,14952.160028,-7507.735880
143.837303,1702.473667,10066.800811,-9422.974625
143.837613,-3108.864956,12435.459826,-919.314598
143.837922,-8660.409521,9622.677246,13406.671215
143.838232,3627.009116,11251.130318,536.266849
143.838541,7402.059420,6661.853478,-12563.966167
143.838851,-740.205942,6513.812290,-3294.210641
143.839160,-4071.132681,5477.523971,5209.449386
143.839470,1184.329507,-1924.535449,-76.609550
143.839780,7328.038826,4663.297435,612.876398
143.840089,-814.226536,5773.606348,8886.707777
143.840399,-1924.535449,3849.070898,5439.278036
143.840708,1036.288319,7846.182985,612.876398
143.841018,-444.123565,9770.718434,-2068.457845
143.841327,-1924.535449,13323.706956,-7354.516781
143.841637,-2368.659014,19393.395680,-9576.193725
143.841946,2664.741391,17468.860231,-9116.536426
143.842256,-7254.018232,17320.819043,-7354.516781
143.842566,-4811.338623,15026.180623,1838.629195
143.842875,2960.823768,13471.748144,-3907.087040
143.843185,2738.761985,8068.244768,-4136.915689
143.843494,-0.000000,7920.203579,459.657299
143.843804,-4441.235652,3256.906145,1991.848295
143.844113,3627.009116,6143.709319,0.000000
143.844423,2442.679609,6217.729913,0.000000
143.844732,3404.947333,4145.153275,-306.438199
143.845042,-0.000000,2960.823768,2221.676944
143.845352,-1554.432478,5255.462188,2757.943793
143.845661,518.144159,5329.482782,-1072.533697
143.845971,-296.082377,7031.956449,-3677.258390
143.846280,-1480.411884,14063.912898,-4903.011187
143.846590,-6735.874072,17024.736666,-4136.915689
143.846899,1998.556043,17468.860231,-6511.811733
143.847209,3256.906145,14434.015869,-7201.297681
143.847519,-1332.370696,12139.377449,-1302.362347
143.847828,-1998.556043,10732.986159,5592.497135
143.848138,-1480.411884,6661.853478,1302.362347
143.848447,518.144159,7254.018232,-995.924147
143.848757,-1998.556043,7920.203579,-459.657299
143.849066,666.185348,5773.606348,-4979.620737
143.849376,1258.350101,6883.915261,-12027.699319
143.849685,-592.164754,9844.739029,-3677.258390
143.849995,962.267725,8068.244768,3983.696590
143.850305,-6291.750507,8512.368333,2221.676944
143.850614,5255.462188,8882.471304,-5515.887586
143.850924,3923.091493,8808.450710,-2451.505594
143.851233,-2368.659014,444.123565,-536.266849
143.851543,2738.761985,6069.688724,4903.011187
143.851852,3330.926739,12139.377449,-1225.752797
143.852162,518.144159,13545.768739,-2604.724693
143.852472,-4219.173869,11695.253884,4443.353888
143.852781,2294.638420,16062.468941,-6741.640382
143.853091,1332.370696,10732.986159,-12563.966167
143.853400,-2664.741391,9696.697840,-4979.620737
143.853710,-222.061783,10288.862594,-1455.581446
143.854019,-4959.379811,8438.347739,-1149.143247
143.854329,-1258.350101,11547.212695,995.924147
143.854638,5329.482782,8586.388927,-3064.381992
143.854948,5255.462188,8438.347739,-5822.325785
143.855258,-4737.318029,8142.265362,4826.401637
143.855567,740.205942,11695.253884,4979.620737
143.855877,7105.977043,6883.915261,-7814.174080
143.856186,5477.523971,5033.400406,-5669.106685
143.856496,-2146.597232,7624.121203,8120.612279
143.856805,-4737.318029,7179.997637,4979.620737
143.857115,5403.503377,11399.171507,-6971.469032
143.857424,-444.123565,9918.759623,-6665.030833
143.857734,-3034.844362,10362.883188,153.219100
143.858044,2220.617826,14211.954086,-4213.525239
143.858353,1850.514855,12731.542202,-7048.078582
143.858663,444.123565,12953.603985,1455.581446
143.858972,-6735.874072,10288.862594,5669.106685
143.859282,-740.205942,10584.944971,76.609550
143.859591,1776.494261,11325.150913,-612.876398
143.859901,5033.400406,7698.141797,-3983.696590
143.860211,-1628.453072,9474.636058,-7660.954980
143.860520,-4145.153275,11547.212695,153.219100
143.860830,2220.617826,8068.244768,3524.039291
143.861139,-74.020594,8956.491898,-7584.345430
143.861449,5329.482782,4737.318029,-5898.935335
143.861758,222.061783,2886.803174,4136.915689
143.862068,-3552.988522,2516.700203,2834.553343
143.862377,5625.565159,2220.617826,1225.752797
143.862687,1924.535449,5995.668130,1225.752797
143.862997,-2960.823768,8068.244768,5209.449386
143.863306,-3182.885551,14804.118840,3447.429741
143.863616,5625.565159,19689.478057,-7201.297681
143.863925,-296.082377,15692.365970,-11491.432470
143.864235,-1776.494261,17468.860231,-5209.449386
143.864544,-740.205942,14804.118840,-2451.505594
143.864854,-6217.729913,10362.883188,0.000000
143.865164,-1110.308913,11843.295072,306.438199
143.865473,3627.009116,8808.450710,-3983.696590
143.865783,2442.679609,3701.029710,-919.314598
143.866092,-4515.256246,1850.514855,9039.926876
143.866402,1776.494261,2368.659014,1838.629195
143.866711,7179.997637,6291.750507,-3830.477490
143.867021,962.267725,4293.194464,3830.477490
143.867330,-4737.318029,7254.018232,8733.488677
143.867640,-0.000000,11769.274478,842.705048
143.867950,2812.782580,12583.501014,-7967.393179
143.868259,-3256.906145,11843.295072,-4136.915689
143.868569,-3034.844362,18209.066173,-6281.983084
143.868878,1776.494261,17172.777854,-12027.699319
143.869188,-0.000000,14211.954086,-3217.601092
143.869497,740.205942,12287.418637,2987.772442
143.869806,-3478.967927,11473.192101,1225.752797
143.870116,222.061783,7105.977043,2451.505594
143.870425,-1110.308913,2146.597232,2145.067394
143.870735,-1184.329507,3997.112087,-9576.193725
143.871044,3256.906145,5403.503377,-9806.022374
143.871354,-518.144159,7994.224174,-6128.763984
143.871663,4589.276840,8512.368333,-4136.915689
143.871973,2960.823768,5921.647536,995.924147
143.872282,1184.329507,10510.924376,12563.966167
143.872592,-4663.297435,2368.659014,9959.241474
143.872901,1184.329507,4737.318029,-766.095498
143.873210,5551.544565,9400.615463,-7967.393179
143.873520,-4145.153275,8956.491898,-6435.202183
143.873829,-2590.720797,17690.922014,-6894.859482
143.874139,888.247130,17394.839637,-10955.165621
143.874448,3923.091493,19911.539840,-7660.954980
143.874758,-3182.885551,16136.489536,3447.429741
143.875067,-4367.215058,10732.986159,3294.210641
143.875377,2960.823768,5699.585753,-4136.915689
143.875686,6439.791695,2960.823768,-2528.115143
143.875995,-518.144159,1036.288319,4979.620737
143.876305,-4737.318029,6291.750507,8503.660028
143.876614,4219.173869,11399.171507,1225.752797
143.876924,4885.359217,10140.821405,-6511.811733
143.877233,296.082377,9474.636058,-2987.772442
143.877543,-1184.329507,9252.574275,-1378.971896
143.877852,-5995.668130,8216.285956,-3447.429741
143.878162,1702.473667,12731.542202,-6052.154434
