#time,accel_x,accel_y,accel_z
147.184620,-592.164754,9030.512492,-995.924147
147.184930,370.102971,10362.883188,-459.657299
147.185240,296.082377,9770.718434,-689.485948
147.185550,148.041188,9326.594869,-536.266849
147.185860,-1184.329507,9252.574275,-842.705048
147.186170,-0.000000,9030.512492,-1838.629195
147.186480,-74.020594,9326.594869,-842.705048
147.186790,-518.144159,9326.594869,-1149.143247
147.187100,888.247130,9548.656652,-1991.848295
147.187410,-444.123565,9918.759623,995.924147
147.187719,-814.226536,9178.553681,-612.876398
147.188029,296.082377,9548.656652,0.000000
147.188339,148.041188,9400.615463,-612.876398
147.188649,444.123565,9104.533087,-842.705048
147.188959,-1480.411884,9696.697840,-1149.143247
147.189269,-74.020594,9474.636058,-1532.190996
147.189579,962.267725,10066.800811,-306.438199
147.189889,148.041188,7846.182985,229.828649
147.190199,-74.020594,7254.018232,0.000000
147.190508,2368.659014,7105.977043,689.485948
147.190818,6217.729913,7105.977043,1302.362347
147.191128,1628.453072,7105.977043,9346.365076
147.191438,-1332.370696,6439.791695,12410.747068
147.191748,3552.988522,8364.327145,11031.775171
147.192058,7698.141797,8660.409521,2604.724693
147.192368,3404.947333,6587.832884,3217.601092
147.192678,-2886.803174,8956.491898,12947.013916
147.192988,-0.000000,11621.233289,11414.822920
147.193298,1184.329507,11177.109724,4749.792088
147.193607,-444.123565,13027.624579,7584.345430
147.193917,-1110.308913,12435.459826,11874.480219
147.194227,-14508.036463,14359.995275,9116.536426
147.194537,29090.093521,18949.272115,-6971.469032
147.194847,-14730.098246,7846.182985,3447.429741
147.195157,-5773.606348,15544.324782,22140.159892
147.195467,-16358.551318,8956.491898,26277.075581
147.195777,5995.668130,12361.439231,76.609550
147.196087,9252.574275,13323.706956,-3983.696590
147.196396,-14063.912898,8216.285956,11568.042020
147.196706,-3256.906145,11843.295072,7967.393179
147.197016,-888.247130,4885.359217,-306.438199
147.197326,-2072.576638,9548.656652,2145.067394
147.197636,-3775.050304,5033.400406,16547.662757
147.197946,2146.597232,3627.009116,11568.042020
147.198256,-3627.009116,3330.926739,13406.671215
147.198566,-0.000000,4293.194464,18769.339701
147.198876,-2294.638420,9030.512492,8963.317327
147.199185,-3330.926739,3627.009116,2604.724693
147.199495,2516.700203,14211.954086,2528.115143
147.199805,1776.494261,11547.212695,-3600.648841
147.200115,3330.926739,14434.015869,-842.705048
147.200425,-1258.350101,12805.562797,20301.530697
147.200735,740.205942,8290.306550,24821.494135
147.201045,2442.679609,5847.626942,17160.539155
147.201355,592.164754,4737.318029,12104.308868
147.201665,-1702.473667,8660.409521,6818.249932
147.201975,5329.482782,12065.356855,-4290.134789
147.202284,5329.482782,18357.107362,-7584.345430
147.202594,1332.370696,17542.880825,7890.783629
147.202904,-6661.853478,16062.468941,18692.730151
147.203214,-4367.215058,12435.459826,14479.204912
147.203524,3627.009116,10732.986159,2374.896044
147.203834,3552.988522,7105.977043,-5286.058936
147.204144,962.267725,5847.626942,1149.143247
147.204454,-0.000000,12583.501014,17773.415554
147.204764,-666.185348,10584.944971,15475.129060
147.205073,2812.782580,7476.080014,8427.050478
147.205383,3330.926739,5329.482782,4903.011187
147.205693,-3701.029710,1628.453072,4826.401637
147.206003,-10658.965565,3182.885551,7737.564530
147.206313,-592.164754,8734.430116,-1302.362347
147.206623,8734.430116,9030.512492,-9116.536426
147.206933,4737.318029,7994.224174,2374.896044
147.207243,-6439.791695,7254.018232,23748.960438
147.207553,-5181.441594,9252.574275,21603.893044
147.207863,3034.844362,9474.636058,6971.469032
147.208172,4219.173869,10066.800811,-2528.115143
147.208482,-3330.926739,11547.212695,612.876398
147.208792,-5107.421000,12879.583391,-1532.190996
147.209102,2442.679609,14508.036463,-7890.783629
147.209412,7550.100608,13545.768739,-1991.848295
147.209722,-592.164754,9400.615463,17083.929605
147.210032,-2960.823768,5403.503377,28039.095227
147.210342,3552.988522,4737.318029,16854.100956
147.210652,3256.906145,3108.864956,5515.887586
147.210961,-2516.700203,4885.359217,7660.954980
147.211271,2886.803174,5477.523971,1838.629195
147.211581,7254.018232,5773.606348,-5362.668486
147.211891,-3849.070898,17024.736666,11721.261119
147.212201,10732.986159,19171.333898,19612.044749
147.212511,7476.080014,6291.750507,17543.586904
147.212821,-5033.400406,8290.306550,9422.974625
147.213131,-3701.029710,13249.686362,12257.527968
147.213441,10140.821405,11177.109724,-9499.584175
147.213750,4959.379811,12435.459826,-11568.042020
147.214060,-11251.130318,14582.057057,23365.912689
147.214370,5625.565159,19097.313304,20607.968896
147.214680,370.102971,9104.533087,2298.286494
147.214990,-6217.729913,13989.892304,10418.898773
147.215300,-3256.906145,7254.018232,18999.168350
147.215610,2886.803174,8290.306550,-3677.258390
147.215920,4515.256246,13323.706956,-7507.735880
147.216230,-2960.823768,13101.645173,13713.109414
147.216540,740.205942,17987.004391,12180.918418
147.216849,1850.514855,8734.430116,2145.067394
147.217159,3775.050304,10955.047942,7354.516781
147.217469,-7031.956449,9844.739029,24285.227287
147.217779,1702.473667,4515.256246,15628.348159
147.218089,3552.988522,3256.906145,7277.907231
147.218399,1850.514855,5403.503377,12717.185267
147.218709,2664.741391,-2220.617826,10112.460574
147.219019,3775.050304,5699.585753,2451.505594
147.219329,-3330.926739,12213.398043,13713.109414
147.219638,-5847.626942,10658.965565,17390.367805
147.219948,3330.926739,13249.686362,5362.668486
147.220258,-740.205942,6291.750507,0.000000
147.220568,-8364.327145,7402.059420,11491.432470
147.220878,-5255.462188,8216.285956,16164.615008
147.221188,592.164754,10881.027347,2681.334243
147.221498,1480.411884,11547.212695,1149.143247
147.221808,2442.679609,15988.448347,10418.898773
147.222118,-4219.173869,15470.304188,12180.918418
147.222428,-1628.453072,11473.192101,7431.126331
147.222737,-2664.741391,11991.336260,5898.935335
147.223047,2294.638420,11029.068536,229.828649
147.223357,2812.782580,7846.182985,-919.314598
147.223667,-4441.235652,5403.503377,5515.887586
147.223977,2146.597232,8882.471304,10265.679673
147.224287,444.123565,3330.926739,9039.926876
147.224597,5921.647536,4885.359217,9193.145976
147.224907,-6587.832884,2590.720797,18003.244203
147.225217,-3108.864956,2664.741391,12563.966167
147.225526,7031.956449,10510.924376,-6128.763984
147.225836,6291.750507,7328.038826,-6358.592633
147.226146,-3182.885551,10288.862594,13330.061665
147.226456,-1850.514855,12435.459826,17466.977354
147.226766,4663.297435,7920.203579,8273.831378
147.227076,4663.297435,7772.162391,8733.488677
147.227386,-6291.750507,4515.256246,19688.654299
147.227696,-3256.906145,13767.830521,5515.887586
147.228006,7105.977043,10732.986159,-12257.527968
147.228315,4367.215058,16136.489536,-8197.221829
147.228625,-5921.647536,14063.912898,12947.013916
147.228935,-592.164754,14656.077652,16011.395908
147.229245,6291.750507,10807.006753,6894.859482
147.229555,222.061783,7031.956449,10955.165621
147.229865,-5921.647536,12139.377449,14555.814462
147.230175,2960.823768,9622.677246,-2374.896044
147.230485,12731.542202,9622.677246,-14479.204912
147.230795,-666.185348,7105.977043,-306.438199
147.231105,-6957.935855,10732.986159,14709.033562
147.231414,1258.350101,4737.318029,15168.690860
147.231724,-888.247130,6957.935855,11184.994271
147.232034,296.082377,9252.574275,4596.572988
147.232344,-5181.441594,4589.276840,842.705048
147.232654,5921.647536,10214.842000,-5132.839837
147.232964,-7624.121203,6439.791695,-2681.334243
147.233274,5329.482782,14952.160028,-3753.867940
147.233584,-2812.782580,7550.100608,3524.039291
147.233894,-5403.503377,11917.315666,11184.994271
147.234203,-7698.141797,13619.789333,14325.985813
147.234513,-4737.318029,12583.501014,-9039.926876
147.234823,5921.647536,14137.933492,-17696.806004
147.235133,-74.020594,7402.059420,-9346.365076
147.235443,2368.659014,13545.768739,2068.457845
147.235753,1776.494261,7031.956449,5822.325785
147.236063,592.164754,3182.885551,11797.870669
147.236373,1184.329507,5255.462188,19075.777900
147.236683,-1850.514855,-296.082377,4979.620737
147.236993,9474.636058,5033.400406,-7201.297681
147.237302,-4293.194464,1480.411884,4903.011187
147.237612,518.144159,9474.636058,6128.763984
147.237922,6217.729913,11325.150913,-2911.162892
147.238232,2294.638420,7994.224174,-229.828649
147.238542,-3552.988522,15174.221811,10035.851024
147.238852,-5995.668130,11769.274478,7048.078582
147.239162,2664.741391,15618.345376,-5515.887586
147.239471,740.205942,16654.633695,-5822.325785
147.239781,3849.070898,15322.262999,-5056.230287
147.240090,2146.597232,11621.233289,2221.676944
147.240400,-10362.883188,10214.842000,9039.926876
147.240710,296.082377,14137.933492,4060.306139
147.241019,4589.276840,9474.636058,-7890.783629
147.241329,3182.885551,9770.718434,-7431.126331
147.241639,-888.247130,9326.594869,6818.249932
147.241948,-592.164754,7846.182985,4290.134789
147.242258,4811.338623,592.164754,-3753.867940
147.242567,-1924.535449,-148.041188,4519.963438
147.242877,-7179.997637,6365.771101,15092.081311
147.243187,2072.576638,8068.244768,5056.230287
147.243496,1554.432478,15174.221811,-12563.966167
147.243806,592.164754,16136.489536,-3830.477490
147.244116,962.267725,11325.150913,-995.924147
147.244425,518.144159,7920.203579,-4443.353888
147.244735,-7994.224174,13323.706956,2374.896044
147.245045,-2072.576638,13027.624579,6818.249932
147.245354,5847.626942,8660.409521,-5975.544884
147.245664,3330.926739,9918.759623,-2834.553343
147.245973,-3923.091493,7698.141797,12717.185267
147.246283,6217.729913,4737.318029,-459.657299
147.246593,3923.091493,-888.247130,-7737.564530
147.246902,-2960.823768,4145.153275,10418.898773
147.247212,1702.473667,5033.400406,12487.356617
147.247522,4811.338623,4811.338623,-4673.182538
147.247831,2442.679609,13693.809927,-6435.202183
147.248141,-1036.288319,16580.613101,7890.783629
147.248451,1184.329507,12139.377449,3830.477490
147.248760,740.205942,14730.098246,-7507.735880
147.249070,-2960.823768,14211.954086,-3140.991542
147.249379,5699.585753,15766.386565,-5592.497135
147.249689,1776.494261,14508.036463,-9959.241474
147.249999,-6957.935855,17542.880825,3140.991542
147.250308,2812.782580,8364.327145,7660.954980
147.250618,2368.659014,2886.803174,-5286.058936
147.250928,-3182.885551,8068.244768,-1455.581446
147.251237,-7994.224174,3701.029710,9959.241474
147.251547,5699.585753,3775.050304,-6205.373534
147.251856,4071.132681,8808.450710,-17620.196454
147.252166,-2368.659014,8882.471304,2221.676944
147.252476,-962.267725,4885.359217,7584.345430
147.252785,-2886.803174,2072.576638,-2987.772442
147.253095,-6513.812290,4885.359217,3447.429741
147.253405,-1406.391290,4885.359217,7354.516781
147.253714,2368.659014,8364.327145,-10801.946522
147.254024,-1184.329507,12805.562797,-12257.527968
147.254334,444.123565,18431.127956,-3677.258390
147.254643,1258.350101,9622.677246,-5286.058936
147.254953,-4367.215058,9400.615463,459.657299
147.255262,-4959.379811,15470.304188,11031.775171
147.255572,3775.050304,5329.482782,-3753.867940
147.255882,4219.173869,5181.441594,-13483.280765
147.256191,-8512.368333,9326.594869,7507.735880
147.256501,2886.803174,7402.059420,766.095498
147.256811,11251.130318,5921.647536,-15015.471761
147.257120,-1258.350101,11103.089130,0.000000
147.257430,-4737.318029,7772.162391,14402.595362
147.257740,-888.247130,9770.718434,2221.676944
147.258049,2738.761985,12509.480420,-8963.317327
147.258359,4293.194464,13323.706956,-4903.011187
147.258668,-2812.782580,10510.924376,-5132.839837
147.258978,-3256.906145,10214.842000,-2451.505594
147.259288,592.164754,13693.809927,4673.182538
147.259597,4811.338623,13027.624579,-5515.887586
147.259907,-6365.771101,11103.089130,-8580.269578
147.260217,-5477.523971,12139.377449,2987.772442
147.260526,5181.441594,9474.636058,-6052.154434
147.260836,740.205942,5773.606348,-13866.328514
147.261145,-1110.308913,9474.636058,7814.174080
147.261455,-3997.112087,3330.926739,13176.842566
147.261765,5329.482782,1776.494261,-7660.954980
147.262074,3256.906145,8956.491898,-1532.190996
147.262384,-2516.700203,8438.347739,11721.261119
147.262694,8290.306550,6883.915261,-5975.544884
147.263003,-148.041188,6809.894666,-6665.030833
147.263313,-4367.215058,7846.182985,12334.137518
147.263623,1702.473667,7624.121203,4290.134789
147.263932,1110.308913,8290.306550,-7201.297681
147.264242,-2368.659014,19467.416275,-2987.772442
147.264551,-1406.391290,15322.262999,-8580.269578
147.264861,5699.585753,14952.160028,-12104.308868
147.265171,-7328.038826,16802.674883,5898.935335
147.265480,-1332.370696,11547.212695,8273.831378
147.265790,9622.677246,7698.141797,-11338.213370
147.266100,-1924.535449,5255.462188,-2681.334243
147.266409,-3775.050304,7698.141797,14709.033562
147.266719,3997.112087,5773.606348,2911.162892
147.267029,7994.224174,9770.718434,-8044.002729
147.267338,1480.411884,7179.997637,536.266849
147.267648,-4145.153275,3552.988522,3140.991542
147.267957,-5403.503377,7550.100608,-2374.896044
147.268267,1184.329507,11177.109724,-6511.811733
147.268577,4885.359217,11621.233289,-9269.755526
147.268886,-3552.988522,11325.150913,-2528.115143
147.269196,-5921.647536,12731.542202,4596.572988
147.269506,814.226536,10362.883188,0.000000
147.269815,2294.638420,14508.036463,-8886.707777
147.270125,-5699.585753,11325.150913,-3217.601092
147.270435,-1110.308913,10658.965565,76.609550
147.270744,6291.750507,11103.089130,-15551.738609
147.271054,-7402.059420,2960.823768,-7814.174080
147.271363,-2368.659014,10214.842000,11184.994271
147.271673,962.267725,2886.803174,-1685.410096
147.271983,3923.091493,1998.556043,-9499.584175
147.272292,-5995.668130,7254.018232,8580.269578
147.272602,-1776.494261,5773.606348,6435.202183
147.272912,8956.491898,7179.997637,-15321.909960
147.273221,-814.226536,9474.636058,-5209.449386
147.273531,-2960.823768,10807.006753,9806.022374
147.273840,4737.318029,8586.388927,-3217.601092
147.274150,1184.329507,10881.027347,-3064.381992
147.274460,-3627.009116,15988.448347,6741.640382
147.274769,2886.803174,13767.830521,-9729.412825
147.275079,6883.915261,14730.098246,-19152.387450
147.275389,-4219.173869,16136.489536,2145.067394
147.275698,-1850.514855,11251.130318,7660.954980
147.276008,4737.318029,8882.471304,-7201.297681
147.276318,-4293.194464,7105.977043,459.657299
147.276627,-2368.659014,5847.626942,4366.744339
147.276937,6957.935855,5181.441594,-10955.165621
147.277246,1406.391290,7105.977043,-3907.087040
147.277556,-0.000000,9770.718434,6128.763984
147.277866,888.247130,4367.215058,4213.525239
147.278175,1036.288319,4663.297435,0.000000
147.278485,-4663.297435,8882.471304,2834.553343
147.278795,-2960.823768,6883.915261,-2528.115143
147.279104,6661.853478,10807.006753,-11721.261119
147.279414,-148.041188,13841.851115,-8350.440928
147.279724,-5921.647536,14730.098246,3217.601092
147.280033,-666.185348,10510.924376,689.485948
147.280343,-2368.659014,10658.965565,-6665.030833
147.280652,-4293.194464,10214.842000,-1838.629195
147.280962,2368.659014,13249.686362,-1762.019645
147.281272,1110.308913,9030.512492,-6741.640382
147.281581,1924.535449,7846.182985,-3830.477490
147.281891,740.205942,5921.647536,8044.002729
147.282201,2368.659014,5477.523971,2987.772442
147.282510,-2738.761985,6291.750507,2374.896044
147.282820,-1332.370696,9178.553681,3524.039291
147.283129,8956.491898,12657.521608,-5669.106685
147.283439,-2294.638420,9326.594869,-3753.867940
147.283749,2368.659014,13545.768739,-1378.971896
147.284058,-1998.556043,10955.047942,-1762.019645
147.284368,-2146.597232,8438.347739,-2451.505594
147.284678,592.164754,10807.006753,-3140.991542
147.284987,-1332.370696,13027.624579,-2757.943793
147.285297,4515.256246,13989.892304,-5669.106685
147.285607,-4663.297435,13323.706956,-1225.752797
147.285916,-5107.421000,10288.862594,5286.058936
147.286226,10584.944971,6957.935855,-5515.887586
147.286535,-5255.462188,666.185348,-7048.078582
147.286845,-6365.771101,7920.203579,9806.022374
147.287155,2368.659014,6365.771101,3983.696590
147.287464,5551.544565,3404.947333,-13713.109414
147.287774,-370.102971,12953.603985,-995.924147
147.288084,-6809.894666,8438.347739,10112.460574
147.288393,296.082377,9178.553681,-4519.963438
147.288703,1258.350101,9622.677246,-8427.050478
147.289013,-2738.761985,7254.018232,0.000000
147.289322,-3701.029710,8808.450710,-766.095498
147.289632,-1776.494261,13471.748144,-3983.696590
147.289941,3775.050304,13471.748144,-689.485948
147.290251,2886.803174,13471.748144,153.219100
147.290561,-5255.462188,10584.944971,-2451.505594
147.290870,-2368.659014,9474.636058,1838.629195
147.291180,5033.400406,13249.686362,-2528.115143
147.291490,1850.514855,10881.027347,-13406.671215
147.291799,-4441.235652,7254.018232,-306.438199
147.292109,-666.185348,7994.224174,7277.907231
147.292418,5921.647536,2960.823768,-7737.564530
147.292728,-3997.112087,7476.080014,-2911.162892
147.293038,-4589.276840,11325.150913,14325.985813
147.293347,6587.832884,5921.647536,-4290.134789
147.293657,3478.967927,7920.203579,-9039.926876
147.293967,-2368.659014,12213.398043,8580.269578
147.294276,-518.144159,7698.141797,1149.143247
147.294586,-1184.329507,8142.265362,-13559.890315
147.294896,-4367.215058,14137.933492,-2451.505594
147.295205,-2294.638420,13027.624579,-383.047749
147.295515,5699.585753,12361.439231,-17313.758255
147.295824,-2220.617826,15692.365970,-7277.907231
147.296134,-5255.462188,13323.706956,12257.527968
147.296444,7624.121203,5107.421000,-4903.011187
147.296753,-5625.565159,-1036.288319,-4903.011187
147.297063,-1628.453072,6661.853478,8044.002729
147.297373,7031.956449,3701.029710,-7890.783629
147.297682,3997.112087,4589.276840,-13253.452115
147.297992,-3182.885551,10436.903782,10572.117872
147.298302,-2072.576638,6439.791695,9806.022374
147.298611,4441.235652,9400.615463,-9729.412825
147.298921,-5477.523971,12953.603985,-1455.581446
147.299230,1480.411884,11991.336260,1225.752797
147.299540,9992.780217,13175.665768,-18309.682402
147.299850,-4219.173869,8438.347739,-4366.744339
147.300159,-5551.544565,12805.562797,13483.280765
147.300469,1258.350101,11917.315666,-3370.820191
147.300779,1924.535449,9622.677246,-15398.519510
147.301088,-3330.926739,18209.066173,3294.210641
147.301398,-1702.473667,9918.759623,-1762.019645
147.301708,7550.100608,6365.771101,-15092.081311
147.302017,-4737.318029,8068.244768,2145.067394
147.302327,-9992.780217,3034.844362,12334.137518
147.302636,5477.523971,4811.338623,-6894.859482
147.302946,4145.153275,1702.473667,-9576.193725
147.303256,-666.185348,9326.594869,1915.238745
147.303565,-148.041188,9622.677246,6588.421283
147.303875,-2590.720797,7846.182985,3830.477490
147.304185,3701.029710,9474.636058,-2757.943793
147.304494,-2072.576638,7846.182985,-11261.603821
147.304804,-6661.853478,7920.203579,-3294.210641
147.305113,-7920.203579,15322.262999,1532.190996
147.305423,4959.379811,17764.942608,-10189.070123
147.305733,13027.624579,17468.860231,-16394.443657
147.306042,-9104.533087,11843.295072,4519.963438
147.306352,-6809.894666,11769.274478,15551.738609
147.306662,6513.812290,4367.215058,-3830.477490
147.306971,-0.000000,5699.585753,-9039.926876
147.307281,-5403.503377,12953.603985,7967.393179
147.307591,1406.391290,4441.235652,-459.657299
147.307900,7105.977043,6217.729913,-15704.957709
147.308210,962.267725,12879.583391,-2068.457845
147.308519,-4811.338623,7031.956449,11184.994271
147.308829,1258.350101,8438.347739,2604.724693
147.309139,-3034.844362,9696.697840,1378.971896
147.309448,-222.061783,11251.130318,1149.143247
147.309758,6365.771101,8734.430116,-12257.527968
147.310068,-5255.462188,7550.100608,-6435.202183
147.310377,-0.000000,16284.530724,7277.907231
147.310687,1850.514855,13027.624579,-3907.087040
147.310997,3627.009116,11621.233289,-8656.879127
147.311306,-7772.162391,14730.098246,7737.564530
147.311616,-2590.720797,14359.995275,4519.963438
147.311925,9696.697840,6957.935855,-18845.949251
147.312235,-4293.194464,11991.336260,-2911.162892
147.312545,-6661.853478,8216.285956,12180.918418
147.312854,8364.327145,3775.050304,-9576.193725
147.313164,3478.967927,3256.906145,-11184.994271
147.313474,2072.576638,11177.109724,9882.631924
147.313783,222.061783,3997.112087,9806.022374
147.314093,-3478.967927,6735.874072,4519.963438
147.314402,-518.144159,11917.315666,5515.887586
147.314712,4071.132681,7254.018232,-11874.480219
147.315022,296.082377,10807.006753,-21067.626195
147.315331,-4219.173869,16728.654289,-4673.182538
147.315641,888.247130,18505.148550,-1762.019645
147.315951,9030.512492,13323.706956,-10265.679673
147.316260,-10881.027347,13101.645173,12947.013916
147.316570,-10140.821405,9548.656652,14172.766713
147.316880,8956.491898,3775.050304,-15015.471761
147.317189,5181.441594,7994.224174,-19382.216099
147.317499,-8364.327145,9104.533087,4673.182538
147.317808,5033.400406,9992.780217,1762.019645
147.318118,7994.224174,3997.112087,-9576.193725
147.318428,-3923.091493,7402.059420,7354.516781
147.318737,-4663.297435,1184.329507,14632.424012
147.319047,-1776.494261,-0.000000,842.705048
147.319357,1036.288319,10288.862594,-995.924147
147.319666,4811.338623,10807.006753,-10801.946522
147.319976,-0.000000,8882.471304,-18079.853753
147.320286,-4219.173869,13767.830521,1378.971896
147.320595,814.226536,17690.922014,1838.629195
147.320905,5847.626942,12657.521608,-9959.241474
147.321214,-370.102971,13767.830521,1072.533697
147.321524,-9696.697840,10510.924376,15781.567259
147.321834,5033.400406,5033.400406,-2604.724693
147.322143,6069.688724,6069.688724,-14402.595362
147.322453,-5403.503377,7772.162391,842.705048
147.322763,-1850.514855,7254.018232,2451.505594
147.323072,5477.523971,5847.626942,-6741.640382
147.323382,-3849.070898,8660.409521,-842.705048
147.323691,-370.102971,8512.368333,2145.067394
147.324001,1332.370696,6661.853478,-5132.839837
147.324311,-2590.720797,8290.306550,-2145.067394
147.324620,-1554.432478,6883.915261,3140.991542
147.324930,8364.327145,5847.626942,-2528.115143
147.325240,-2960.823768,12213.398043,536.266849
147.325549,-6735.874072,16876.695478,8427.050478
147.325859,5773.606348,8882.471304,-6511.811733
147.326169,6069.688724,12583.501014,-19995.092498
147.326478,-6069.688724,10140.821405,-1838.629195
147.326788,-9622.677246,11177.109724,11874.480219
147.327097,4663.297435,10510.924376,-4060.306139
147.327407,1702.473667,8882.471304,-10572.117872
147.327717,-6587.832884,9918.759623,8733.488677
147.328026,-4737.318029,6365.771101,6358.592633
147.328336,11251.130318,6957.935855,-15015.471761
147.328646,3330.926739,5773.606348,-10418.898773
147.328955,-10807.006753,4959.379811,11108.384721
147.329265,1406.391290,7624.121203,6052.154434
147.329575,4071.132681,8216.285956,-4903.011187
147.329884,-1258.350101,11621.233289,3370.820191
147.330194,-1776.494261,9992.780217,6511.811733
147.330503,296.082377,7624.121203,-3753.867940
147.330813,2368.659014,12287.418637,-7354.516781
147.331123,296.082377,9474.636058,-4136.915689
147.331432,-0.000000,15470.304188,-2451.505594
147.331742,-4737.318029,17172.777854,-2298.286494
147.332052,-1628.453072,13397.727550,-3064.381992
147.332361,5921.647536,14952.160028,-3983.696590
147.332671,-1924.535449,5329.482782,-919.314598
147.332980,-2664.741391,8438.347739,7048.078582
147.333290,6069.688724,8512.368333,-306.438199
147.333600,7994.224174,3478.967927,-9576.193725
147.333909,2812.782580,3182.885551,4213.525239
147.334219,-7402.059420,5107.421000,22446.598091
147.334529,222.061783,9696.697840,13330.061665
147.334838,296.082377,11399.171507,-6588.421283
147.335148,4959.379811,14434.015869,-11644.651570
147.335458,592.164754,12435.459826,-11031.775171
147.335767,-4737.318029,13989.892304,-9346.365076
147.336077,2886.803174,15396.283594,-2911.162892
147.336386,-814.226536,13915.871710,842.705048
147.336696,-296.082377,7994.224174,6281.983084
147.337006,-5255.462188,8808.450710,11491.432470
147.337315,518.144159,6735.874072,2374.896044
147.337625,8216.285956,7328.038826,-9193.145976
147.337935,888.247130,9178.553681,-3217.601092
147.338244,-3256.906145,9844.739029,4519.963438
147.338554,2738.761985,7254.018232,-2757.943793
147.338864,1110.308913,3775.050304,-4519.963438
147.339173,-5107.421000,8586.388927,4519.963438
147.339483,-1776.494261,7254.018232,8120.612279
147.339792,2368.659014,7179.997637,-1838.629195
147.340102,7624.121203,14804.118840,-10648.727422
147.340412,-2146.597232,8808.450710,-1685.410096
147.340721,-1702.473667,9548.656652,2604.724693
147.341031,-518.144159,15618.345376,-306.438199
147.341340,3997.112087,15026.180623,-4749.792088
147.341650,1406.391290,13027.624579,0.000000
147.341960,-4663.297435,8808.450710,2221.676944
147.342269,-1998.556043,8956.491898,689.485948
147.342579,6735.874072,10510.924376,-5056.230287
147.342888,-1998.556043,10362.883188,-3983.696590
147.343198,-3182.885551,10288.862594,-229.828649
147.343507,3330.926739,7846.182985,-1762.019645
147.343817,-1480.411884,5699.585753,-5822.325785
147.344126,666.185348,5477.523971,-536.266849
147.344436,-296.082377,1628.453072,5592.497135
147.344745,1480.411884,5699.585753,1608.800546
147.345055,-5033.400406,8290.306550,6894.859482
147.345364,1406.391290,9622.677246,7584.345430
147.345674,1554.432478,9474.636058,-5975.544884
147.345983,-1924.535449,12509.480420,-7048.078582
147.346293,2664.741391,17616.901420,-2987.772442
147.346602,814.226536,11769.274478,-11797.870669
147.346912,-1924.535449,12805.562797,-7660.954980
147.347221,-8438.347739,13249.686362,9652.803275
147.347531,-222.061783,13693.809927,536.266849
147.347840,4885.359217,7772.162391,-13636.499864
147.348150,1924.535449,5551.544565,-536.266849
147.348459,-814.226536,5847.626942,8044.002729
147.348769,2960.823768,3775.050304,-2528.115143
147.349078,6143.709319,3256.906145,2987.772442
147.349388,-2738.761985,7179.997637,14938.862211
147.349697,-2368.659014,7772.162391,5362.668486
147.350007,-1258.350101,7846.182985,-4213.525239
147.350317,962.267725,14508.036463,-5745.716235
147.350626,1850.514855,11325.150913,-11338.213370
147.350936,370.102971,9844.739029,-7890.783629
147.351245,-5033.400406,14211.954086,2451.505594
147.351555,-3330.926739,14211.954086,2987.772442
147.351864,3923.091493,12213.398043,-1762.019645
147.352174,-3182.885551,13027.624579,3217.601092
147.352483,-296.082377,13397.727550,0.000000
147.352793,7105.977043,7402.059420,-8120.612279
147.353102,-296.082377,3256.906145,-2834.553343
147.353412,-2886.803174,7105.977043,8886.707777
147.353721,592.164754,7550.100608,2298.286494
147.354031,4959.379811,3923.091493,-7737.564530
147.354340,740.205942,6513.812290,-229.828649
147.354650,-666.185348,6143.709319,6894.859482
147.354959,-888.247130,3849.070898,5822.325785
147.355269,-2368.659014,8216.285956,5822.325785
147.355578,5625.565159,11843.295072,-3677.258390
147.355888,-2516.700203,12657.521608,-14938.862211
147.356197,-6735.874072,17912.983796,0.000000
147.356507,-0.000000,17987.004391,-3140.991542
147.356816,9030.512492,18431.127956,-16930.710506
147.357126,-222.061783,14359.995275,-6205.373534
147.357435,-9918.759623,11177.109724,14938.862211
147.357745,-740.205942,6587.832884,9346.365076
147.358054,8734.430116,6957.935855,-10572.117872
147.358364,666.185348,5625.565159,-4749.792088
147.358673,-1554.432478,5477.523971,5209.449386
147.358983,3552.988522,2442.679609,689.485948
147.359293,-2886.803174,2442.679609,1225.752797
147.359602,-3478.967927,10732.986159,4673.182538
147.359912,2146.597232,3478.967927,-6128.763984
147.360221,-592.164754,7476.080014,-11797.870669
147.360531,2738.761985,16210.510130,-766.095498
147.360840,-74.020594,11547.212695,689.485948
147.361150,3627.009116,8216.285956,995.924147
147.361459,-5477.523971,14582.057057,11261.603821
147.361769,-3404.947333,11843.295072,7201.297681
147.362078,1554.432478,13471.748144,-9652.803275
147.362388,-2516.700203,17690.922014,-11414.822920
147.362697,-3034.844362,13693.809927,-6281.983084
147.363007,4737.318029,10658.965565,-7814.174080
147.363316,962.267725,6883.915261,-8580.269578
147.363626,-6365.771101,8586.388927,10878.556072
147.363935,-3256.906145,2886.803174,13713.109414
147.364245,7402.059420,2368.659014,-6588.421283
147.364554,7105.977043,2738.761985,-4366.744339
147.364864,-3108.864956,5329.482782,9806.022374
147.365173,-370.102971,2516.700203,6358.592633
147.365483,-3108.864956,10288.862594,459.657299
147.365792,1554.432478,13323.706956,-6281.983084
147.366102,444.123565,9918.759623,-9882.631924
147.366411,-740.205942,15766.386565,-9193.145976
147.366721,-1258.350101,16062.468941,-2068.457845
147.367030,4885.359217,12805.562797,-2221.676944
147.367340,-5329.482782,11917.315666,1991.848295
147.367649,-5551.544565,16876.695478,7967.393179
147.367959,-2294.638420,8142.265362,-1685.410096
147.368269,8364.327145,7920.203579,-14709.033562
147.368578,3256.906145,10658.965565,-10955.165621
147.368888,-444.123565,7328.038826,5592.497135
147.369197,3552.988522,8882.471304,7201.297681
147.369507,-1924.535449,3182.885551,5439.278036
147.369816,1406.391290,4219.173869,11644.651570
147.370126,2960.823768,-814.226536,8273.831378
147.370435,962.267725,3256.906145,-8427.050478
147.370745,2146.597232,15396.283594,-6052.154434
147.371054,-148.041188,9548.656652,-6511.811733
147.371364,-518.144159,16580.613101,-10189.070123
147.371673,-5033.400406,14359.995275,3524.039291
147.371983,-2590.720797,15396.283594,5286.058936
147.372292,3552.988522,11473.192101,-5515.887586
147.372602,-2368.659014,8808.450710,-612.876398
147.372911,1258.350101,11473.192101,6281.983084
147.373221,814.226536,7254.018232,-5439.278036
147.373530,1702.473667,7254.018232,-9193.145976
147.373840,-3256.906145,10066.800811,3753.867940
147.374149,2664.741391,6809.894666,1762.019645
147.374459,5699.585753,2664.741391,766.095498
147.374768,-5847.626942,9548.656652,5745.716235
147.375078,-3330.926739,3627.009116,4749.792088
147.375387,2368.659014,4737.318029,-11031.775171
147.375697,2960.823768,7105.977043,-7431.126331
147.376006,-1480.411884,12805.562797,3370.820191
147.376316,3182.885551,13915.871710,-919.314598
147.376626,-666.185348,13175.665768,-3753.867940
147.376935,-2368.659014,14359.995275,7354.516781
147.377245,-2664.741391,16802.674883,5669.106685
147.377554,1702.473667,11695.253884,-7967.393179
147.377864,-2368.659014,15026.180623,-2528.115143
147.378173,-592.164754,10140.821405,-2987.772442
147.378483,4071.132681,4885.359217,-9499.584175
147.378792,-4737.318029,6587.832884,-76.609550
147.379102,-3923.091493,9548.656652,7354.516781
147.379411,7476.080014,11325.150913,-6588.421283
147.379721,1406.391290,7624.121203,-6281.983084
147.380030,-4145.153275,7179.997637,7201.297681
147.380340,740.205942,4219.173869,6511.811733
147.380649,4737.318029,3701.029710,-8350.440928
147.380959,-2590.720797,8142.265362,-766.095498
147.381268,-2812.782580,6587.832884,3983.696590
147.381578,1258.350101,15692.365970,-7890.783629
147.381887,-814.226536,11991.336260,-3064.381992
147.382197,-0.000000,15618.345376,1149.143247
147.382506,1628.453072,16136.489536,-7967.393179
147.382816,-6587.832884,10955.047942,-7660.954980
147.383125,296.082377,13915.871710,4213.525239
147.383435,888.247130,9474.636058,-8656.879127
147.383744,3997.112087,3108.864956,-11338.213370
147.384054,-3997.112087,8734.430116,7124.688131
147.384363,-444.123565,5995.668130,11797.870669
147.384673,6883.915261,1702.473667,153.219100
147.384982,-3404.947333,8660.409521,5975.544884
147.385292,-4441.235652,8216.285956,8120.612279
147.385602,7031.956449,4515.256246,-11797.870669
147.385911,-1850.514855,12953.603985,-18539.511052
147.386221,-1850.514855,15026.180623,689.485948
147.386530,1998.556043,9844.739029,-229.828649
147.386840,-2812.782580,11991.336260,-3983.696590
147.387149,-6217.729913,11843.295072,6052.154434
147.387459,-1258.350101,13249.686362,-995.924147
147.387768,6661.853478,12657.521608,-14862.252661
147.388078,-962.267725,11843.295072,-3907.087040
147.388387,-4145.153275,10436.903782,7354.516781
147.388697,4071.132681,6291.750507,306.438199
147.389006,-296.082377,5551.544565,-919.314598
147.389316,-2590.720797,8956.491898,7890.783629
147.389625,1628.453072,4293.194464,-1915.238745
147.389935,1850.514855,2738.761985,-8886.707777
147.390244,-3923.091493,14211.954086,612.876398
147.390554,-222.061783,3182.885551,2757.943793
147.390863,148.041188,6291.750507,-5898.935335
147.391173,-1036.288319,11399.171507,229.828649
147.391482,-3627.009116,10510.924376,4903.011187
147.391792,3627.009116,12287.418637,-8656.879127
147.392101,2294.638420,13397.727550,-3907.087040
147.392411,-3182.885551,15248.242405,3524.039291
147.392720,3627.009116,14508.036463,-2451.505594
147.393030,-3701.029710,12805.562797,-1685.410096
147.393339,-3775.050304,11177.109724,2528.115143
147.393649,2590.720797,8142.265362,-3217.601092
147.393958,2960.823768,6735.874072,-8427.050478
147.394268,-3182.885551,10658.965565,-919.314598
147.394578,1110.308913,7994.224174,919.314598
147.394887,2072.576638,7105.977043,-4673.182538
147.395197,-4589.276840,5181.441594,3294.210641
147.395506,-2072.576638,7254.018232,5898.935335
147.395816,2072.576638,9178.553681,-7431.126331
147.396125,3775.050304,9548.656652,-4826.401637
147.396435,-5107.421000,15914.427753,8733.488677
147.396744,3478.967927,12805.562797,2528.115143
147.397054,-0.000000,8364.327145,-2298.286494
147.397363,-4885.359217,11547.212695,3140.991542
147.397673,1480.411884,9844.739029,-9806.022374
147.397982,4589.276840,11325.150913,-18462.901502
147.398292,-5255.462188,13545.768739,-1378.971896
147.398601,-2146.597232,11843.295072,8427.050478
147.398911,6661.853478,7772.162391,-766.095498
147.399220,-5477.523971,7179.997637,3753.867940
147.399530,-1702.473667,6661.853478,8810.098227
147.399839,7920.203579,1332.370696,-8580.269578
147.400149,-0.000000,7105.977043,-12257.527968
147.400458,-8660.409521,8216.285956,10189.070123
147.400768,-1480.411884,9918.759623,2681.334243
147.401077,11621.233289,12361.439231,-18769.339701
147.401387,-1702.473667,10140.821405,-5132.839837
147.401696,-2442.679609,10807.006753,10878.556072
147.402006,1480.411884,7105.977043,3064.381992
147.402315,-4441.235652,8512.368333,3753.867940
147.402625,-666.185348,15322.262999,3064.381992
147.402935,1924.535449,8364.327145,-11338.213370
147.403244,-3330.926739,12509.480420,-15168.690860
147.403554,-4071.132681,16580.613101,-2145.067394
147.403863,1998.556043,11325.150913,-6281.983084
147.404173,8808.450710,11029.068536,-7507.735880
147.404482,-6809.894666,7254.018232,14402.595362
147.404792,-10288.862594,7254.018232,19075.777900
147.405101,9104.533087,1036.288319,-5132.839837
147.405411,4219.173869,444.123565,-11874.480219
147.405720,-4663.297435,7254.018232,3217.601092
147.406030,1258.350101,8956.491898,-995.924147
147.406339,-370.102971,11029.068536,-10418.898773
147.406649,296.082377,13915.871710,919.314598
147.406958,-4219.173869,13323.706956,5592.497135
147.407268,-814.226536,7254.018232,-2528.115143
147.407577,3256.906145,8660.409521,1225.752797
147.407887,1702.473667,12953.603985,-3140.991542
147.408196,-148.041188,9548.656652,-7277.907231
147.408506,-3627.009116,9696.697840,4213.525239
147.408815,-8142.265362,17912.983796,1225.752797
147.409125,4589.276840,15322.262999,-14249.376263
147.409434,2590.720797,14211.954086,-13406.671215
147.409744,-5403.503377,10436.903782,842.705048
147.410053,1184.329507,5403.503377,2451.505594
147.410363,7105.977043,-1332.370696,1455.581446
147.410672,518.144159,-3627.009116,7660.954980
147.410982,-592.164754,1924.535449,11414.822920
147.411291,1110.308913,1480.411884,6128.763984
147.411601,-1332.370696,9326.594869,-1762.019645
147.411911,1480.411884,19171.333898,-8886.707777
147.412220,1554.432478,17024.736666,-15015.471761
147.412530,-3627.009116,14804.118840,-10648.727422
147.412839,-2442.679609,20503.704593,-2681.334243
147.413149,3701.029710,11695.253884,-6435.202183
147.413458,-4959.379811,7698.141797,2911.162892
147.413768,-4885.359217,14285.974681,13789.718964
147.414077,4663.297435,6661.853478,-4519.963438
147.414387,9104.533087,6587.832884,-16164.615008
147.414696,-2812.782580,6735.874072,4673.182538
147.415006,-7624.121203,8290.306550,9193.145976
147.415315,4071.132681,9252.574275,-7660.954980
147.415625,4663.297435,6735.874072,-9269.755526
147.415934,-4071.132681,5255.462188,2987.772442
147.416244,-2442.679609,5329.482782,229.828649
147.416553,2590.720797,5107.421000,-4290.134789
147.416863,2442.679609,6365.771101,1455.581446
147.417172,1628.453072,12657.521608,1685.410096
147.417482,-148.041188,13767.830521,-1072.533697
147.417791,-4589.276840,13841.851115,2604.724693
147.418101,3478.967927,17764.942608,-6588.421283
147.418410,3775.050304,17246.798449,-17007.320056
147.418720,-5477.523971,14285.974681,-4596.572988
147.419029,-6143.709319,11325.150913,6435.202183
147.419339,5181.441594,10214.842000,-5669.106685
147.419648,5477.523971,3256.906145,-8197.221829
147.419958,-4663.297435,3627.009116,9269.755526
147.420267,-888.247130,1554.432478,12180.918418
147.420577,5403.503377,6291.750507,-3217.601092
147.420887,-1480.411884,6513.812290,-2374.896044
147.421196,-0.000000,6809.894666,229.828649
147.421506,1480.411884,4959.379811,-1225.752797
147.421815,-3552.988522,10658.965565,-3907.087040
147.422125,3182.885551,15396.283594,-5132.839837
147.422434,2294.638420,10584.944971,-8656.879127
147.422744,-5107.421000,11399.171507,3983.696590
147.423053,-5773.606348,14285.974681,12027.699319
147.423363,7031.956449,10214.842000,-6818.249932
147.423672,2072.576638,12139.377449,-10035.851024
147.423982,-8512.368333,12509.480420,5975.544884
147.424291,-222.061783,9992.780217,-1149.143247
147.424601,6143.709319,5181.441594,-19765.263848
147.424910,-3404.947333,4515.256246,-3830.477490
147.425220,-1110.308913,10732.986159,11338.213370
147.425529,6439.791695,5847.626942,536.266849
147.425839,-1702.473667,4515.256246,-689.485948
147.426148,-4219.173869,5329.482782,11184.994271
147.426458,3923.091493,3997.112087,-5132.839837
147.426767,4663.297435,12583.501014,-14019.547613
147.427077,-3478.967927,10362.883188,-536.266849
147.427386,-888.247130,12361.439231,0.000000
147.427696,1554.432478,13693.809927,-6358.592633
147.428005,-2812.782580,12731.542202,5439.278036
147.428315,-3330.926739,15988.448347,2911.162892
147.428624,3923.091493,7179.997637,-12257.527968
147.428934,296.082377,9178.553681,-7354.516781
147.429244,-2516.700203,9622.677246,2681.334243
147.429553,3182.885551,6883.915261,-3677.258390
147.429863,2738.761985,8882.471304,-2145.067394
147.430172,-5033.400406,5995.668130,11414.822920
147.430482,444.123565,7772.162391,2528.115143
147.430791,5551.544565,4515.256246,-6665.030833
147.431101,-2590.720797,6587.832884,-1685.410096
147.431410,1480.411884,8660.409521,1302.362347
147.431720,-740.205942,4811.338623,-1455.581446
147.432029,-4737.318029,9474.636058,2298.286494
147.432339,1110.308913,10510.924376,0.000000
147.432648,5329.482782,13249.686362,-9652.803275
147.432958,-1776.494261,15544.324782,-689.485948
147.433267,-5255.462188,14878.139434,3524.039291
147.433577,370.102971,12435.459826,-3600.648841
147.433886,1480.411884,10362.883188,-5898.935335
147.434196,-74.020594,11177.109724,612.876398
147.434505,814.226536,11991.336260,-4596.572988
147.434815,2664.741391,6735.874072,-5669.106685
147.435124,1036.288319,5995.668130,4596.572988
147.435434,-4737.318029,5699.585753,6205.373534
147.435743,3849.070898,7772.162391,-3983.696590
147.436053,3330.926739,5921.647536,-6894.859482
147.436362,-888.247130,7994.224174,1685.410096
147.436672,-2072.576638,8364.327145,3907.087040
147.436981,3256.906145,8438.347739,-2528.115143
147.437291,1628.453072,9770.718434,-4749.792088
147.437600,-3404.947333,10066.800811,2451.505594
147.437910,148.041188,10362.883188,1072.533697
147.438220,-814.226536,9252.574275,-4213.525239
147.438529,-1480.411884,18061.024985,-3294.210641
147.438839,-1702.473667,17394.839637,-1455.581446
147.439148,1924.535449,14063.912898,-7124.688131
147.439458,2368.659014,12805.562797,-7814.174080
147.439767,1036.288319,9400.615463,995.924147
147.440077,-592.164754,3923.091493,1991.848295
147.440386,-592.164754,1110.308913,3907.087040
147.440696,-3997.112087,2294.638420,7201.297681
147.441005,592.164754,5477.523971,2068.457845
147.441315,1332.370696,4737.318029,-9346.365076
147.441624,1776.494261,8068.244768,-7431.126331
147.441934,-0.000000,13027.624579,1302.362347
147.442243,-3182.885551,11473.192101,-1991.848295
147.442553,-0.000000,8068.244768,2145.067394
147.442862,-1850.514855,14656.077652,3830.477490
147.443172,3552.988522,9252.574275,-5745.716235
147.443481,-740.205942,11621.233289,-3370.820191
147.443791,-3849.070898,16506.592507,1225.752797
147.444100,1628.453072,14804.118840,-7431.126331
147.444409,444.123565,9622.677246,-3447.429741
147.444719,3478.967927,14063.912898,-536.266849
147.445028,962.267725,10066.800811,-1225.752797
147.445338,148.041188,4441.235652,842.705048
147.445647,-4367.215058,3404.947333,9422.974625
147.445956,1110.308913,7031.956449,2451.505594
147.446266,6957.935855,4219.173869,-11261.603821
147.446575,-962.267725,1332.370696,-2834.553343
147.446885,-4515.256246,10658.965565,4979.620737
147.447194,5107.421000,9696.697840,-5898.935335
147.447503,1850.514855,7846.182985,-2911.162892
147.447813,-3182.885551,15322.262999,10112.460574
147.448122,222.061783,8364.327145,2834.553343
147.448432,296.082377,10066.800811,-6741.640382
147.448741,-1184.329507,16284.530724,-3370.820191
147.449050,-444.123565,14952.160028,-3830.477490
147.449360,2442.679609,13989.892304,-6128.763984
147.449669,-3108.864956,15544.324782,-1378.971896
147.449979,-3775.050304,12879.583391,-153.219100
147.450288,4071.132681,8364.327145,-5362.668486
147.450597,2220.617826,6217.729913,-1532.190996
147.450907,-1628.453072,5403.503377,5286.058936
147.451216,4441.235652,1406.391290,3753.867940
147.451526,2442.679609,1628.453072,995.924147
147.451835,1036.288319,4663.297435,6894.859482
147.452144,2072.576638,7624.121203,6588.421283
147.452454,-2812.782580,10066.800811,-1762.019645
147.452763,518.144159,11399.171507,-4903.011187
147.453073,888.247130,13175.665768,-8580.269578
147.453382,-1998.556043,14285.974681,-9039.926876
147.453691,-2590.720797,15766.386565,-4366.744339
147.454001,-1998.556043,13249.686362,-1149.143247
147.454310,-1036.288319,13989.892304,-1532.190996
147.454620,1110.308913,9252.574275,76.609550
147.454929,-1776.494261,10436.903782,3983.696590
147.455238,3330.926739,9844.739029,-842.705048
147.455548,4811.338623,4663.297435,-3907.087040
147.455857,-3627.009116,3775.050304,4519.963438
147.456167,1110.308913,7476.080014,5362.668486
147.456476,4219.173869,3404.947333,-7201.297681
147.456785,-0.000000,6587.832884,-3447.429741
147.457095,-1036.288319,9844.739029,4060.306139
147.457404,888.247130,7105.977043,-5056.230287
147.457714,2812.782580,7846.182985,-2911.162892
147.458023,-4293.194464,12361.439231,6052.154434
147.458332,-888.247130,11473.192101,2298.286494
147.458642,-0.000000,16136.489536,-5745.716235
147.458951,-1110.308913,15026.180623,-3600.648841
147.459261,592.164754,14952.160028,-4903.011187
147.459570,5403.503377,14730.098246,-8733.488677
147.459879,1184.329507,8734.430116,0.000000
147.460189,-9548.656652,11103.089130,12487.356617
147.460498,2294.638420,7698.141797,3600.648841
147.460807,444.123565,4737.318029,-6435.202183
147.461117,-2442.679609,6365.771101,-689.485948
147.461426,1406.391290,9252.574275,-919.314598
147.461736,3627.009116,4959.379811,-11108.384721
147.462045,-296.082377,8882.471304,766.095498
147.462354,-370.102971,10584.944971,9193.145976
147.462664,888.247130,8216.285956,1455.581446
147.462973,962.267725,8586.388927,0.000000
147.463283,-4959.379811,10140.821405,1455.581446
147.463592,2812.782580,7994.224174,-8350.440928
147.463901,5033.400406,10881.027347,-9959.241474
147.464211,-5329.482782,17172.777854,229.828649
147.464520,-1258.350101,13545.768739,689.485948
147.464830,-296.082377,13471.748144,-6818.249932
147.465139,-3923.091493,11325.150913,-1225.752797
147.465448,1554.432478,6883.915261,-2451.505594
147.465758,1850.514855,-740.205942,-4903.011187
147.466067,-1776.494261,4663.297435,1532.190996
147.466377,1554.432478,6513.812290,7584.345430
147.466686,1850.514855,7994.224174,383.047749
147.466995,148.041188,8068.244768,2374.896044
147.467305,-1332.370696,10732.986159,5898.935335
147.467614,5255.462188,7550.100608,-6818.249932
147.467924,1702.473667,10510.924376,-9959.241474
147.468233,-2072.576638,10584.944971,1532.190996
147.468542,-1110.308913,10436.903782,2987.772442
147.468852,-3256.906145,12583.501014,-2451.505594
147.469161,-3034.844362,12805.562797,2145.067394
147.469471,-0.000000,14656.077652,-2834.553343
147.469780,3701.029710,11103.089130,-14096.157163
147.470089,-0.000000,9548.656652,-10342.289223
147.470399,-2738.761985,11991.336260,3830.477490
147.470708,2664.741391,9104.533087,-153.219100
147.471018,592.164754,7179.997637,4443.353888
147.471327,-2516.700203,6217.729913,10189.070123
147.471636,5477.523971,3552.988522,-3217.601092
147.471946,1184.329507,1554.432478,-6894.859482
147.472255,-1036.288319,7698.141797,2987.772442
147.472565,-2738.761985,12065.356855,2451.505594
147.472874,2368.659014,15544.324782,-3677.258390
147.473183,-1998.556043,14508.036463,-2681.334243
147.473493,-1332.370696,13471.748144,-2451.505594
147.473802,2368.659014,11103.089130,-9806.022374
147.474112,-3256.906145,8586.388927,-4903.011187
147.474421,-0.000000,7624.121203,6052.154434
147.474730,4145.153275,10436.903782,1225.752797
147.475040,-444.123565,10436.903782,-229.828649
147.475349,-3701.029710,7772.162391,9499.584175
147.475659,1998.556043,9696.697840,383.047749
147.475968,4737.318029,5921.647536,-13483.280765
147.476277,-814.226536,5773.606348,-2145.067394
147.476587,-2368.659014,8364.327145,3294.210641
147.476896,2368.659014,7698.141797,-4443.353888
147.477206,-3182.885551,9252.574275,1072.533697
147.477515,-2738.761985,9844.739029,8656.879127
147.477824,3775.050304,8438.347739,-4673.182538
147.478134,2146.597232,12065.356855,-9499.584175
147.478443,-2812.782580,9474.636058,4136.915689
147.478753,-1036.288319,7994.224174,2451.505594
147.479062,2442.679609,12953.603985,-3294.210641
147.479371,-3478.967927,14359.995275,2987.772442
147.479681,-1702.473667,14211.954086,383.047749
147.479990,2146.597232,9104.533087,-10572.117872
147.480300,444.123565,8586.388927,-6971.469032
147.480609,-4737.318029,10510.924376,1608.800546
147.480918,3182.885551,8586.388927,-3753.867940
147.481228,-518.144159,6809.894666,-4060.306139
147.481537,-6439.791695,7698.141797,14096.157163
147.481847,3775.050304,6365.771101,3677.258390
147.482156,6217.729913,4145.153275,-9269.755526
147.482465,-962.267725,9104.533087,-612.876398
147.482775,-518.144159,7994.224174,6741.640382
147.483084,3108.864956,6513.812290,-2757.943793
147.483394,-2220.617826,11769.274478,459.657299
147.483703,-1036.288319,15692.365970,2145.067394
147.484012,4367.215058,8216.285956,-11797.870669
147.484322,-2146.597232,8882.471304,-4903.011187
147.484631,-2886.803174,17690.922014,3830.477490
147.484941,-592.164754,10140.821405,-4136.915689
147.485250,2738.761985,14730.098246,-7660.954980
147.485559,-5477.523971,8734.430116,4366.744339
147.485869,740.205942,6217.729913,1225.752797
147.486178,7920.203579,4737.318029,-10112.460574
147.486488,296.082377,5699.585753,-1532.190996
147.486797,-4515.256246,8586.388927,12334.137518
147.487106,6143.709319,8438.347739,-842.705048
147.487416,-1184.329507,7105.977043,-6052.154434
147.487725,-0.000000,10288.862594,5745.716235
147.488035,-148.041188,7550.100608,-919.314598
147.488344,2886.803174,9622.677246,-10725.336972
147.488653,-3478.967927,14359.995275,153.219100
147.488963,-4441.235652,7772.162391,995.924147
147.489272,1110.308913,9474.636058,-3524.039291
147.489582,-2812.782580,15470.304188,766.095498
147.489891,-5107.421000,17172.777854,1532.190996
147.490200,7105.977043,11843.295072,-6818.249932
147.490510,666.185348,11843.295072,-7354.516781
147.490819,-5329.482782,10362.883188,4519.963438
147.491129,4885.359217,5921.647536,1838.629195
147.491438,2516.700203,6883.915261,-9959.241474
147.491747,-4737.318029,7402.059420,8197.221829
147.492057,1480.411884,6217.729913,7354.516781
147.492366,1702.473667,4145.153275,-9652.803275
147.492675,740.205942,8660.409521,-2911.162892
147.492985,-3627.009116,8808.450710,0.000000
147.493294,2294.638420,4737.318029,-6128.763984
147.493604,370.102971,10658.965565,-1455.581446
147.493913,-2812.782580,17838.963202,4519.963438
147.494222,2516.700203,10732.986159,-2145.067394
147.494532,518.144159,12213.398043,-2987.772442
147.494841,-6587.832884,13249.686362,612.876398
147.495151,5699.585753,11843.295072,-2681.334243
147.495460,296.082377,9474.636058,-5056.230287
147.495769,-4219.173869,12065.356855,-1149.143247
147.496079,-296.082377,15174.221811,2451.505594
147.496388,3627.009116,7402.059420,-11568.042020
147.496698,592.164754,1628.453072,-1532.190996
147.497007,-2590.720797,7920.203579,8733.488677
147.497316,666.185348,5921.647536,-3983.696590
147.497626,-1628.453072,6809.894666,-612.876398
147.497935,-148.041188,10436.903782,8810.098227
147.498245,1332.370696,6735.874072,-6665.030833
147.498554,4663.297435,4885.359217,-7201.297681
147.498863,-3552.988522,10955.047942,2834.553343
147.499173,-1036.288319,8956.491898,-1225.752797
147.499482,1850.514855,13767.830521,-3524.039291
147.499792,-2590.720797,13693.809927,306.438199
147.500101,2368.659014,15470.304188,-2145.067394
147.500410,6883.915261,9918.759623,-6052.154434
147.500720,-4071.132681,7402.059420,-306.438199
147.501029,-8956.491898,10881.027347,8273.831378
147.501339,4441.235652,9178.553681,-5669.106685
147.501648,-1258.350101,6661.853478,-14938.862211
147.501957,-518.144159,12065.356855,306.438199
147.502267,740.205942,12657.521608,-3753.867940
147.502576,2664.741391,7772.162391,-10648.727422
147.502886,2442.679609,8882.471304,6971.469032
147.503195,-4219.173869,5551.544565,10265.679673
147.503504,3478.967927,1924.535449,2298.286494
147.503814,-2664.741391,4515.256246,1455.581446
147.504123,740.205942,9030.512492,-4519.963438
147.504433,6661.853478,12435.459826,-8810.098227
147.504742,-5625.565159,15100.201217,-5822.325785
147.505051,-7698.141797,14285.974681,153.219100
147.505361,2516.700203,19837.519246,-5515.887586
147.505670,4293.194464,13101.645173,-15628.348159
147.505980,-1850.514855,8216.285956,-5898.935335
147.506289,-2368.659014,10510.924376,-995.924147
147.506598,3034.844362,2812.782580,-4443.353888
147.506908,2294.638420,8438.347739,4290.134789
147.507217,1258.350101,9030.512492,13176.842566
147.507527,5699.585753,8586.388927,2681.334243
147.507836,222.061783,8882.471304,-1072.533697
147.508145,-518.144159,7772.162391,-2604.724693
147.508455,-0.000000,6513.812290,-11261.603821
147.508764,-1184.329507,4885.359217,-9882.631924
147.509074,-4293.194464,10510.924376,-1149.143247
147.509383,-1480.411884,11177.109724,-2374.896044
147.509692,3108.864956,13989.892304,-2298.286494
147.510002,-2812.782580,14952.160028,12180.918418
147.510311,-0.000000,15396.283594,3294.210641
147.510621,3034.844362,9104.533087,-11568.042020
147.510930,2886.803174,9400.615463,-10878.556072
147.511239,-6143.709319,8586.388927,2987.772442
147.511549,3997.112087,6439.791695,1455.581446
147.511858,4885.359217,13545.768739,-4903.011187
147.512168,-1480.411884,11399.171507,3753.867940
147.512477,-6513.812290,4145.153275,10035.851024
147.512786,962.267725,3923.091493,-4673.182538
147.513096,1702.473667,2146.597232,-10265.679673
147.513405,-2368.659014,4145.153275,-1072.533697
147.513715,-3182.885551,8586.388927,1762.019645
147.514024,-2664.741391,10066.800811,-1838.629195
147.514333,-1702.473667,15174.221811,1072.533697
147.514643,3330.926739,15248.242405,-459.657299
147.514952,1110.308913,9104.533087,-6358.592633
147.515262,1184.329507,8216.285956,-2528.115143
147.515571,-2590.720797,9992.780217,5286.058936
147.515880,1924.535449,9104.533087,1455.581446
147.516190,-2590.720797,12065.356855,842.705048
147.516499,-1776.494261,17246.798449,2911.162892
147.516809,6365.771101,9400.615463,-7890.783629
147.517118,-3701.029710,4367.215058,-11108.384721
147.517427,-5477.523971,6439.791695,2681.334243
147.517737,-1702.473667,6661.853478,1072.533697
147.518046,1776.494261,7698.141797,-8963.317327
147.518356,3034.844362,9400.615463,153.219100
147.518665,-3108.864956,9622.677246,6588.421283
147.518974,5995.668130,8660.409521,-1532.190996
147.519284,2220.617826,6809.894666,689.485948
147.519593,-1554.432478,9474.636058,7660.954980
147.519903,444.123565,9252.574275,-1302.362347
147.520212,-666.185348,13767.830521,-6205.373534
147.520521,-6883.915261,14434.015869,-2911.162892
147.520831,222.061783,15322.262999,-10112.460574
147.521140,4367.215058,13175.665768,-16164.615008
147.521450,-2072.576638,13323.706956,-3600.648841
147.521759,1110.308913,15026.180623,1685.410096
147.522068,2072.576638,3330.926739,1838.629195
147.522378,1850.514855,7179.997637,9422.974625
147.522687,-2368.659014,6365.771101,10342.289223
147.522997,5403.503377,-0.000000,-3370.820191
147.523306,1110.308913,2590.720797,-7277.907231
147.523615,-4441.235652,5181.441594,2528.115143
147.523925,3997.112087,11177.109724,-1608.800546
147.524234,-3182.885551,13693.809927,-5362.668486
147.524544,-592.164754,15618.345376,-306.438199
147.524853,518.144159,11325.150913,-3064.381992
147.525162,-2664.741391,9918.759623,-4443.353888
147.525472,-0.000000,10214.842000,-306.438199
147.525781,-0.000000,6439.791695,-7354.516781
147.526090,1850.514855,10436.903782,-8044.002729
147.526400,-4811.338623,11843.295072,5975.544884
147.526709,1776.494261,15026.180623,2298.286494
147.527019,6513.812290,8364.327145,-11108.384721
147.527328,-1850.514855,3108.864956,0.000000
147.527637,-5255.462188,7254.018232,10725.336972
147.527947,1554.432478,6735.874072,-4136.915689
147.528256,2072.576638,8808.450710,-11184.994271
147.528566,1554.432478,4515.256246,1072.533697
147.528875,5181.441594,5551.544565,766.095498
147.529184,-3552.988522,7476.080014,-2068.457845
147.529494,-7254.018232,9252.574275,7277.907231
147.529803,2294.638420,13619.789333,536.266849
147.530113,3997.112087,9178.553681,-12563.966167
147.530422,-1110.308913,15470.304188,-3064.381992
147.530731,-6661.853478,15026.180623,4366.744339
147.531041,6957.935855,16136.489536,-10112.460574
147.531350,4589.276840,15248.242405,-10955.165621
147.531660,-5329.482782,8216.285956,9499.584175
147.531969,-2442.679609,11177.109724,3753.867940
147.532278,1480.411884,5551.544565,-7967.393179
147.532588,3404.947333,7698.141797,766.095498
147.532897,-6291.750507,3849.070898,7507.735880
147.533207,222.061783,4367.215058,-5056.230287
147.533516,2072.576638,3627.009116,-7660.954980
147.533825,-888.247130,4959.379811,2145.067394
147.534135,2960.823768,11325.150913,1685.410096
147.534444,-2368.659014,10288.862594,383.047749
147.534754,1998.556043,16210.510130,2604.724693
147.535063,-2368.659014,8290.306550,766.095498
147.535372,1924.535449,12509.480420,-4366.744339
147.535682,-5403.503377,9770.718434,-5669.106685
147.535991,-592.164754,13545.768739,-2451.505594
147.536301,3108.864956,14434.015869,-8120.612279
147.536610,-518.144159,13545.768739,-4903.011187
147.536919,-2960.823768,12435.459826,6741.640382
147.537229,-888.247130,6513.812290,-383.047749
147.537538,5107.421000,5699.585753,-7890.783629
147.537848,-8512.368333,1036.288319,7507.735880
147.538157,-666.185348,6513.812290,7507.735880
147.538466,5403.503377,5477.523971,-8427.050478
147.538776,8142.265362,9252.574275,-5362.668486
147.539085,-6809.894666,7550.100608,9729.412825
147.539395,-2368.659014,4959.379811,4596.572988
147.539704,6365.771101,9178.553681,-4596.572988
147.540013,-5773.606348,4737.318029,-1608.800546
147.540323,-74.020594,11843.295072,2681.334243
147.540632,-2590.720797,13323.706956,-6511.811733
147.540942,-1332.370696,18727.210333,-5362.668486
147.541251,-1036.288319,15544.324782,-536.266849
147.541560,6069.688724,12435.459826,-11568.042020
147.541870,-3108.864956,9474.636058,-6205.373534
147.542179,-6143.709319,12509.480420,11031.775171
147.542489,1702.473667,8882.471304,-1302.362347
147.542798,8956.491898,5033.400406,-15781.567259
147.543107,-370.102971,2368.659014,7890.783629
147.543417,-2664.741391,6439.791695,15015.471761
147.543726,5699.585753,4885.359217,-3294.210641
147.544036,814.226536,7031.956449,-3983.696590
147.544345,-370.102971,7254.018232,1532.190996
147.544655,666.185348,10732.986159,-5745.716235
147.544964,296.082377,11029.068536,-8733.488677
147.545273,-4441.235652,12583.501014,-536.266849
147.545583,5625.565159,12879.583391,-2987.772442
147.545892,-2516.700203,11325.150913,-6281.983084
147.546202,-2960.823768,12879.583391,6894.859482
147.546511,3182.885551,10732.986159,766.095498
147.546821,1332.370696,11547.212695,-7967.393179
147.547130,-2294.638420,11917.315666,995.924147
147.547439,-74.020594,8438.347739,995.924147
147.547749,3923.091493,4367.215058,-8120.612279
147.548058,-3552.988522,7031.956449,842.705048
147.548368,-4515.256246,11399.171507,4903.011187
147.548677,2664.741391,7920.203579,-7737.564530
147.548987,3404.947333,5255.462188,-6971.469032
147.549296,3108.864956,4737.318029,2451.505594
147.549605,-370.102971,6291.750507,4826.401637
147.549915,-5033.400406,4663.297435,10189.070123
147.550224,-1628.453072,12805.562797,7814.174080
147.550534,5181.441594,13693.809927,-9959.241474
147.550843,4663.297435,15988.448347,-16547.662757
147.551153,-6439.791695,13323.706956,-4749.792088
147.551462,3552.988522,15026.180623,-5822.325785
147.551771,814.226536,9918.759623,-8656.879127
147.552081,-3552.988522,11399.171507,10035.851024
147.552390,-370.102971,8660.409521,16547.662757
147.552700,3478.967927,6735.874072,-76.609550
147.553009,222.061783,7105.977043,-1302.362347
147.553319,-4219.173869,3552.988522,0.000000
147.553628,1258.350101,6217.729913,-12180.918418
147.553937,4441.235652,10436.903782,-14632.424012
147.554247,-2294.638420,10214.842000,-1608.800546
147.554556,-5403.503377,18505.148550,6358.592633
147.554866,4367.215058,9030.512492,1608.800546
147.555175,8586.388927,4589.276840,0.000000
147.555485,666.185348,518.144159,3370.820191
147.555794,-2294.638420,1110.308913,6128.763984
147.556103,-9548.656652,7179.997637,7048.078582
147.556413,1406.391290,15248.242405,-2451.505594
147.556722,9622.677246,24278.754898,-14785.643111
147.557032,-1332.370696,18283.086767,-12487.356617
147.557341,-8734.430116,10658.965565,-2374.896044
147.557651,4663.297435,12287.418637,-5669.106685
147.557960,2368.659014,3701.029710,-6665.030833
147.558270,-592.164754,7254.018232,8044.002729
147.558579,-2960.823768,8808.450710,13483.280765
147.558888,592.164754,5847.626942,2451.505594
147.559198,10436.903782,7550.100608,-1302.362347
147.559507,5699.585753,5699.585753,-5745.716235
147.559817,666.185348,4885.359217,306.438199
147.560126,-3923.091493,7624.121203,7814.174080
147.560436,-6365.771101,12361.439231,306.438199
147.560745,4737.318029,14730.098246,-5439.278036
147.561054,3108.864956,11843.295072,-6818.249932
147.561364,-4811.338623,11029.068536,-6818.249932
147.561673,-1776.494261,9622.677246,-4213.525239
147.561983,296.082377,9252.574275,-3677.258390
147.562292,-6587.832884,10362.883188,4596.572988
147.562602,1110.308913,18727.210333,8656.879127
147.562911,2220.617826,14952.160028,-7124.688131
147.563220,1258.350101,11473.192101,-10725.336972
147.563530,-4071.132681,4515.256246,4366.744339
147.563839,-1036.288319,1776.494261,-2911.162892
147.564149,9104.533087,3404.947333,-4826.401637
147.564458,-2368.659014,7550.100608,7124.688131
147.564768,-4589.276840,10288.862594,13406.671215
147.565077,3108.864956,7698.141797,2528.115143
147.565386,1406.391290,10214.842000,-3677.258390
147.565696,-3330.926739,5033.400406,-3140.991542
147.566005,4811.338623,6291.750507,-11644.651570
147.566315,-5773.606348,6365.771101,-9576.193725
147.566624,-8734.430116,12879.583391,6588.421283
147.566934,5773.606348,23316.487173,-1378.971896
147.567243,4737.318029,17690.922014,-10572.117872
147.567552,-518.144159,13767.830521,4826.401637
147.567862,-370.102971,10510.924376,3907.087040
147.568171,2368.659014,-0.000000,-7277.907231
147.568481,-2664.741391,4367.215058,3600.648841
147.568790,-7402.059420,8734.430116,9346.365076
147.569100,4219.173869,8512.368333,-10189.070123
147.569409,3775.050304,11399.171507,-13330.061665
147.569718,-3701.029710,11325.150913,-229.828649
147.570028,1258.350101,6143.709319,459.657299
147.570337,5255.462188,4515.256246,-1915.238745
147.570647,-2812.782580,7994.224174,4903.011187
147.570956,-5329.482782,8216.285956,9652.803275
147.571266,4367.215058,13101.645173,-229.828649
147.571575,5107.421000,13767.830521,-7354.516781
147.571884,3034.844362,10658.965565,-3140.991542
147.572194,1110.308913,9622.677246,-6205.373534
147.572503,-8734.430116,8956.491898,-2757.943793
147.572813,-5625.565159,15544.324782,9116.536426
147.573122,6661.853478,17838.963202,-4903.011187
147.573432,2294.638420,13989.892304,-15168.690860
147.573741,-2442.679609,8364.327145,2298.286494
147.574050,-148.041188,5773.606348,3983.696590
147.574360,4071.132681,-592.164754,-6128.763984
147.574669,-0.000000,4145.153275,4290.134789
147.574979,-5255.462188,11843.295072,8886.707777
147.575288,-888.247130,8438.347739,-995.924147
147.575598,10510.924376,12583.501014,-2757.943793
147.575907,-1480.411884,6809.894666,-2221.676944
147.576216,1406.391290,5255.462188,-2528.115143
147.576526,592.164754,8364.327145,612.876398
147.576835,-1998.556043,10732.986159,1149.143247
147.577145,1628.453072,13175.665768,-1762.019645
147.577454,-2516.700203,16432.571912,1838.629195
147.577764,-518.144159,12139.377449,1149.143247
147.578073,-2664.741391,15100.201217,-6818.249932
147.578382,3182.885551,8290.306550,-12947.013916
147.578692,-4737.318029,5329.482782,-6052.154434
147.579001,-518.144159,11029.068536,3753.867940
147.579311,3849.070898,7179.997637,2451.505594
147.579620,888.247130,11769.274478,2374.896044
147.579930,-2072.576638,11177.109724,6205.373534
147.580239,4737.318029,4515.256246,3983.696590
147.580548,2812.782580,962.267725,-6052.154434
147.580858,-3627.009116,8290.306550,-4979.620737
147.581167,2812.782580,7624.121203,-4903.011187
147.581477,-4737.318029,11991.336260,-4519.963438
147.581786,-3923.091493,12065.356855,5898.935335
147.582096,-2368.659014,12953.603985,4903.011187
147.582405,10510.924376,9104.533087,-10418.898773
147.582714,-5921.647536,7550.100608,-689.485948
147.583024,-2664.741391,7328.038826,5822.325785
147.583333,2664.741391,12287.418637,-7201.297681
147.583643,7031.956449,11399.171507,-5745.716235
147.583952,-3404.947333,17616.901420,9652.803275
147.584262,-1258.350101,15396.283594,1225.752797
147.584571,4441.235652,5699.585753,-9422.974625
147.584880,-1332.370696,1924.535449,-1532.190996
147.585190,-888.247130,3552.988522,-766.095498
147.585499,1480.411884,3997.112087,-6281.983084
147.585809,-2664.741391,11103.089130,229.828649
147.586118,-5773.606348,11547.212695,7431.126331
147.586428,7402.059420,13397.727550,-2221.676944
147.586737,296.082377,11547.212695,-4519.963438
147.587046,-1702.473667,7994.224174,4673.182538
147.587356,2368.659014,7698.141797,-4290.134789
147.587665,-222.061783,8290.306550,-8733.488677
147.587975,-2368.659014,6957.935855,5209.449386
147.588284,-2294.638420,15026.180623,5669.106685
147.588594,5033.400406,14211.954086,-7354.516781
147.588903,-3923.091493,9548.656652,-2681.334243
147.589212,-0.000000,10436.903782,6588.421283
147.589522,2738.761985,6809.894666,-5898.935335
147.589831,3404.947333,9474.636058,-10189.070123
147.590141,-7698.141797,8882.471304,6435.202183
147.590450,-148.041188,10362.883188,766.095498
147.590760,4811.338623,6661.853478,-6818.249932
147.591069,-2886.803174,11029.068536,3524.039291
147.591378,2812.782580,5921.647536,3983.696590
147.591688,1036.288319,5551.544565,-6435.202183
147.591997,-1480.411884,9992.780217,995.924147
147.592307,-6883.915261,10807.006753,5975.544884
147.592616,7402.059420,10288.862594,-8810.098227
147.592926,-1110.308913,13545.768739,-7660.954980
147.593235,-5181.441594,13323.706956,4519.963438
147.593544,-1406.391290,12435.459826,-2604.724693
147.593854,8882.471304,7624.121203,-13942.938064
147.594163,1332.370696,6809.894666,995.924147
147.594473,-3108.864956,7031.956449,11874.480219
147.594782,-148.041188,10658.965565,3064.381992
147.595092,-2738.761985,8512.368333,1838.629195
147.595401,4367.215058,7698.141797,4673.182538
147.595710,4071.132681,8882.471304,-6205.373534
147.596020,-444.123565,9474.636058,-9806.022374
147.596329,-5847.626942,12361.439231,-1302.362347
147.596639,2812.782580,12583.501014,-5515.887586
147.596948,2812.782580,12065.356855,-7431.126331
147.597258,-2220.617826,11843.295072,8197.221829
147.597567,-0.000000,13101.645173,7277.907231
147.597876,592.164754,4219.173869,-5286.058936
147.598186,-1406.391290,7254.018232,2374.896044
147.598495,-3923.091493,4219.173869,2068.457845
147.598805,5995.668130,7772.162391,-13406.671215
147.599114,-0.000000,14656.077652,-10035.851024
147.599424,-7476.080014,12879.583391,6818.249932
147.599733,6217.729913,14804.118840,-1991.848295
147.600042,2886.803174,4811.338623,-5515.887586
147.600352,-2368.659014,6069.688724,8273.831378
147.600661,-1480.411884,8364.327145,3370.820191
147.600971,3034.844362,4071.132681,-9346.365076
147.601280,1332.370696,8142.265362,-383.047749
147.601590,-740.205942,12435.459826,766.095498
147.601899,5773.606348,9252.574275,-6894.859482
147.602208,-3404.947333,15174.221811,3447.429741
147.602518,-4663.297435,12583.501014,7354.516781
147.602827,7105.977043,7698.141797,-11338.213370
147.603137,-2146.597232,7624.121203,-7277.907231
147.603446,-2442.679609,9474.636058,7660.954980
147.603756,-3404.947333,14211.954086,-4290.134789
147.604065,4737.318029,6957.935855,-10495.508323
147.604374,-3182.885551,10881.027347,6435.202183
147.604684,-2812.782580,12509.480420,4903.011187
147.604993,8808.450710,7698.141797,-12870.404366
147.605303,-5107.421000,7624.121203,-2374.896044
147.605612,-1998.556043,10658.965565,7124.688131
147.605922,1850.514855,5699.585753,-5209.449386
147.606231,1702.473667,5995.668130,-1991.848295
147.606540,-5625.565159,15840.407159,7431.126331
147.606850,2886.803174,9770.718434,-5439.278036
147.607159,4515.256246,6883.915261,-8810.098227
147.607469,-5625.565159,11325.150913,5515.887586
147.607778,518.144159,6587.832884,-995.924147
147.608088,1998.556043,4589.276840,-11338.213370
147.608397,-4737.318029,14285.974681,1149.143247
147.608706,-3849.070898,10584.944971,6435.202183
147.609016,8660.409521,6439.791695,-10572.117872
147.609325,1702.473667,10214.842000,-7201.297681
147.609635,-6143.709319,7698.141797,8044.002729
147.609944,3478.967927,10214.842000,-1838.629195
147.610254,2072.576638,6809.894666,-5439.278036
147.610563,-2516.700203,11399.171507,4903.011187
147.610872,-518.144159,11843.295072,-995.924147
147.611182,1776.494261,5107.421000,-11721.261119
147.611491,-2146.597232,7031.956449,-536.266849
147.611801,-222.061783,9918.759623,4136.915689
147.612110,8956.491898,8068.244768,-6052.154434
147.612420,-1258.350101,13989.892304,995.924147
147.612729,-5033.400406,12361.439231,11184.994271
147.613038,4737.318029,8364.327145,-5209.449386
147.613348,3775.050304,6143.709319,-12334.137518
147.613657,-2590.720797,8586.388927,2451.505594
147.613967,-4885.359217,11769.274478,2145.067394
147.614276,3182.885551,8808.450710,-13406.671215
147.614586,74.020594,10658.965565,-1915.238745
147.614895,-3701.029710,8734.430116,11261.603821
147.615204,2516.700203,7031.956449,-1455.581446
147.615514,3182.885551,9918.759623,-4903.011187
147.615823,-5255.462188,7254.018232,2298.286494
147.616133,-3627.009116,7550.100608,1225.752797
147.616442,4737.318029,5921.647536,-7048.078582
147.616752,-1776.494261,11473.192101,-2374.896044
147.617061,-1776.494261,10436.903782,3064.381992
147.617370,-1406.391290,10732.986159,-6281.983084
147.617680,2442.679609,11399.171507,-4519.963438
147.617989,1110.308913,8438.347739,4979.620737
147.618299,2738.761985,9326.594869,-1991.848295
147.618608,962.267725,8364.327145,-2757.943793
147.618918,-6957.935855,9104.533087,7354.516781
147.619227,1554.432478,8586.388927,842.705048
147.619536,4737.318029,7920.203579,-12410.747068
147.619846,1110.308913,10658.965565,-5056.230287
147.620155,-5699.585753,11843.295072,5209.449386
147.620465,592.164754,9622.677246,-6435.202183
147.620774,-0.000000,8142.265362,-4673.182538
147.621084,-444.123565,12583.501014,4136.915689
147.621393,1332.370696,7698.141797,-7584.345430
147.621702,-74.020594,10658.965565,-8350.440928
147.622012,-2590.720797,12583.501014,4060.306139
147.622321,3478.967927,9696.697840,383.047749
147.622631,2590.720797,6883.915261,-5286.058936
147.622940,-4885.359217,12731.542202,4519.963438
147.623250,-2590.720797,7402.059420,1762.019645
147.623559,7328.038826,8290.306550,-12027.699319
147.623868,-518.144159,7550.100608,-6511.811733
147.624178,-74.020594,12139.377449,5669.106685
147.624487,1924.535449,10658.965565,-3753.867940
147.624797,-2368.659014,12287.418637,-3524.039291
147.625106,-2220.617826,11769.274478,6281.983084
147.625416,3923.091493,8068.244768,-1225.752797
147.625725,1998.556043,8734.430116,-8580.269578
147.626034,-5773.606348,8216.285956,0.000000
147.626344,-1110.308913,9252.574275,-2145.067394
147.626653,4367.215058,8068.244768,-8656.879127
147.626963,-0.000000,11695.253884,5592.497135
147.627272,-1036.288319,9104.533087,5592.497135
147.627582,2590.720797,8364.327145,-5898.935335
147.627891,-1702.473667,11991.336260,-2911.162892
147.628200,-2812.782580,5403.503377,1915.238745
147.628510,5033.400406,6587.832884,-10955.165621
147.628819,-0.000000,11325.150913,-6741.640382
147.629129,-4515.256246,9992.780217,3140.991542
147.629438,1110.308913,10584.944971,-1455.581446
147.629748,6069.688724,10066.800811,-6511.811733
147.630057,1332.370696,6513.812290,2834.553343
147.630366,-1850.514855,12213.398043,6741.640382
147.630676,2294.638420,7550.100608,-4290.134789
147.630985,-4367.215058,6809.894666,842.705048
147.631295,-1036.288319,9918.759623,0.000000
147.631604,1332.370696,11029.068536,-12180.918418
147.631914,4811.338623,12583.501014,-10418.898773
147.632223,-7105.977043,12879.583391,1685.410096
147.632532,-814.226536,12953.603985,-1991.848295
147.632842,1258.350101,6365.771101,-1915.238745
147.633151,-740.205942,8438.347739,7201.297681
147.633461,-666.185348,7402.059420,1225.752797
147.633770,2886.803174,9030.512492,-8810.098227
147.634080,-1036.288319,5033.400406,-2528.115143
147.634389,296.082377,9030.512492,3677.258390
147.634698,4515.256246,9844.739029,-8656.879127
147.635008,6809.894666,13619.789333,-6741.640382
147.635317,-8142.265362,7179.997637,10801.946522
147.635627,-1702.473667,7254.018232,4903.011187
147.635936,5181.441594,2294.638420,-5669.106685
147.636246,3034.844362,4737.318029,-1302.362347
147.636555,-7105.977043,9770.718434,3064.381992
147.636864,-3108.864956,9992.780217,-5669.106685
147.637174,1036.288319,15618.345376,-7431.126331
147.637483,5625.565159,15322.262999,-2911.162892
147.637793,1406.391290,14211.954086,-536.266849
147.638102,-5551.544565,11177.109724,4443.353888
147.638412,-8216.285956,10436.903782,5822.325785
147.638721,5699.585753,10881.027347,-4979.620737
147.639030,7846.182985,5181.441594,-13100.233016
147.639340,-1998.556043,3627.009116,-229.828649
147.639649,-8734.430116,12953.603985,4749.792088
147.639959,7105.977043,9178.553681,-7431.126331
147.640268,2812.782580,7550.100608,-383.047749
147.640578,1702.473667,7846.182985,13330.061665
147.640887,-518.144159,4811.338623,2681.334243
147.641196,-888.247130,8882.471304,-3677.258390
147.641506,-518.144159,4737.318029,995.924147
147.641815,1184.329507,4293.194464,-3064.381992
147.642125,-2886.803174,9400.615463,-6511.811733
147.642434,-6735.874072,16506.592507,1149.143247
147.642744,-1628.453072,21391.951724,-1915.238745
147.643053,4737.318029,15100.201217,-14555.814462
147.643362,-888.247130,10140.821405,-2987.772442
147.643672,-3034.844362,7994.224174,6205.373534
147.643981,1702.473667,962.267725,-612.876398
147.644291,296.082377,4959.379811,1991.848295
147.644601,296.082377,8142.265362,8427.050478
147.644911,3478.967927,5699.585753,306.438199
147.645220,4737.318029,7105.977043,-4903.011187
147.645530,-5107.421000,8142.265362,-919.314598
147.645839,-518.144159,11991.336260,-4826.401637
147.646149,4219.173869,8956.491898,-12640.575717
147.646458,-3182.885551,5773.606348,-306.438199
147.646767,-888.247130,9474.636058,7967.393179
147.647077,1554.432478,7994.224174,-2604.724693
147.647386,-1850.514855,12879.583391,-1149.143247
147.647696,-1702.473667,8734.430116,3294.210641
147.648005,2886.803174,8068.244768,-2221.676944
147.648315,1850.514855,12435.459826,-4290.134789
147.648624,-2220.617826,13027.624579,-2451.505594
147.648934,-0.000000,14878.139434,-8580.269578
147.649243,222.061783,5995.668130,-4979.620737
147.649553,-4145.153275,4515.256246,8197.221829
147.649862,-2294.638420,4737.318029,76.609550
147.650172,6439.791695,7254.018232,-10189.070123
147.650481,-4663.297435,4589.276840,-612.876398
147.650791,-2146.597232,8808.450710,9039.926876
147.651100,3849.070898,9400.615463,-2681.334243
147.651409,6217.729913,6883.915261,-5362.668486
147.651719,-5033.400406,11177.109724,3524.039291
147.652028,-1998.556043,9474.636058,3064.381992
147.652338,7105.977043,9770.718434,-3217.601092
147.652647,-444.123565,12139.377449,2221.676944
147.652957,518.144159,12583.501014,-2987.772442
147.653266,-3627.009116,7402.059420,-4443.353888
147.653576,-8364.327145,12731.542202,4366.744339
147.653885,370.102971,12509.480420,-2987.772442
147.654195,6809.894666,10732.986159,-16241.224558
147.654504,-2220.617826,9474.636058,-2604.724693
147.654814,-9474.636058,9622.677246,10572.117872
147.655123,2664.741391,10066.800811,-4366.744339
147.655433,10436.903782,3552.988522,-8656.879127
147.655742,2590.720797,4293.194464,5286.058936
147.656051,-2072.576638,4737.318029,9193.145976
147.656361,3849.070898,4663.297435,2911.162892
147.656670,-666.185348,8956.491898,4136.915689
147.656980,1924.535449,5107.421000,6511.811733
147.657289,-1258.350101,10955.047942,-3064.381992
147.657599,-5255.462188,15396.283594,-6511.811733
147.657908,-2368.659014,15026.180623,-9576.193725
147.658218,2664.741391,13767.830521,-12640.575717
147.658527,1702.473667,10955.047942,-6741.640382
147.658837,-6809.894666,14063.912898,6588.421283
147.659146,3034.844362,14508.036463,5822.325785
147.659456,888.247130,6735.874072,459.657299
147.659765,-740.205942,10658.965565,6818.249932
147.660075,-0.000000,6735.874072,3830.477490
147.660384,5329.482782,8068.244768,-12793.794817
147.660693,-3478.967927,8142.265362,-6588.421283
147.661003,-3108.864956,8956.491898,5209.449386
147.661312,-518.144159,8216.285956,-8273.831378
147.661622,10140.821405,7031.956449,-9652.803275
147.661931,-0.000000,3775.050304,4749.792088
147.662241,-4219.173869,-222.061783,11491.432470
147.662550,962.267725,6217.729913,6511.811733
147.662860,1924.535449,11103.089130,2987.772442
147.663169,962.267725,10955.047942,-842.705048
147.663479,-962.267725,13693.809927,-7354.516781
147.663788,-3775.050304,19023.292709,-10035.851024
147.664098,-3775.050304,15470.304188,-9499.584175
147.664407,666.185348,17616.901420,-10495.508323
147.664717,2442.679609,13545.768739,-2451.505594
147.665026,-3775.050304,13693.809927,8886.707777
147.665335,-2368.659014,9400.615463,4903.011187
147.665645,5181.441594,6217.729913,-3447.429741
147.665954,5773.606348,2294.638420,0.000000
147.666264,3256.906145,592.164754,-1762.019645
147.666573,370.102971,4515.256246,-4060.306139
147.666883,-3182.885551,10214.842000,229.828649
147.667192,-0.000000,10510.924376,3140.991542
147.667502,3775.050304,9622.677246,-4443.353888
147.667811,3701.029710,10436.903782,-7737.564530
147.668121,-148.041188,5625.565159,-229.828649
147.668430,-2664.741391,9696.697840,-1302.362347
147.668740,1332.370696,10140.821405,-459.657299
147.669049,-2368.659014,16432.571912,1072.533697
147.669359,1776.494261,14285.974681,-1378.971896
147.669668,-1110.308913,12879.583391,-4596.572988
147.669977,-8660.409521,13989.892304,-3140.991542
147.670287,-4737.318029,9326.594869,-6511.811733
147.670596,8290.306550,10584.944971,-16241.224558
147.670906,1406.391290,7402.059420,-5209.449386
147.671215,-6365.771101,9178.553681,7814.174080
147.671525,444.123565,10288.862594,4443.353888
147.671834,13323.706956,3404.947333,-5898.935335
147.672144,1554.432478,444.123565,3753.867940
147.672453,-5625.565159,2072.576638,10955.165621
147.672763,3182.885551,370.102971,1608.800546
147.673072,1036.288319,11695.253884,-4136.915689
147.673382,-1998.556043,11547.212695,-1762.019645
147.673691,444.123565,14952.160028,-6281.983084
147.674001,-2072.576638,14730.098246,-12180.918418
147.674310,-1702.473667,15692.365970,-8733.488677
147.674619,-1184.329507,9770.718434,-2987.772442
147.674929,2886.803174,9030.512492,5975.544884
147.675238,-2812.782580,11029.068536,9959.241474
147.675548,-0.000000,16062.468941,2911.162892
147.675857,2886.803174,11917.315666,-1915.238745
147.676167,-2886.803174,3627.009116,-1838.629195
147.676476,-5921.647536,6217.729913,-5669.106685
147.676786,7105.977043,7920.203579,-16394.443657
147.677095,1332.370696,9696.697840,-10342.289223
147.677405,-5255.462188,10881.027347,10265.679673
147.677714,962.267725,10658.965565,10342.289223
147.678024,11103.089130,5403.503377,-3370.820191
147.678333,4737.318029,1776.494261,229.828649
147.678643,-5033.400406,3256.906145,9882.631924
147.678952,-2886.803174,3849.070898,3217.601092
147.679261,1110.308913,14434.015869,-5975.544884
147.679571,-74.020594,17024.736666,-8810.098227
147.679880,2368.659014,19097.313304,-9806.022374
147.680190,-4663.297435,15396.283594,-2221.676944
147.680499,-7105.977043,9918.759623,-1532.190996
147.680809,4219.173869,11251.130318,-7277.907231
147.681118,4515.256246,8734.430116,-5592.497135
147.681428,-5625.565159,6735.874072,7124.688131
147.681737,-2146.597232,9400.615463,6128.763984
147.682047,7179.997637,5181.441594,-4596.572988
147.682356,1480.411884,5625.565159,1455.581446
147.682666,-7402.059420,6587.832884,10265.679673
147.682975,4219.173869,7105.977043,-4443.353888
147.683284,5477.523971,9104.533087,-13253.452115
147.683594,592.164754,8364.327145,689.485948
147.683903,-1554.432478,10658.965565,7431.126331
147.684213,740.205942,11399.171507,2374.896044
147.684522,-148.041188,11547.212695,0.000000
147.684832,-6883.915261,11251.130318,0.000000
147.685141,3108.864956,13471.748144,-8427.050478
147.685451,1702.473667,11547.212695,-8963.317327
147.685760,-592.164754,18875.251521,-2068.457845
147.686070,-1110.308913,10436.903782,-1455.581446
147.686379,2886.803174,8734.430116,76.609550
147.686689,-5551.544565,6439.791695,5898.935335
147.686998,222.061783,9548.656652,2298.286494
147.687308,5477.523971,4145.153275,-4136.915689
147.687617,3923.091493,4737.318029,-3294.210641
147.687926,-5551.544565,9252.574275,2604.724693
147.688236,1628.453072,5921.647536,-1608.800546
147.688545,2738.761985,10140.821405,-5669.106685
147.688855,-1702.473667,11177.109724,-1762.019645
147.689164,1924.535449,10140.821405,-1762.019645
147.689474,-518.144159,6735.874072,-1685.410096
147.689783,1850.514855,9400.615463,-689.485948
147.690093,-1110.308913,10214.842000,0.000000
147.690402,-296.082377,16210.510130,-1072.533697
147.690712,814.226536,17764.942608,-842.705048
147.691021,-0.000000,16062.468941,-5286.058936
147.691331,6291.750507,12065.356855,-8427.050478
147.691640,-3182.885551,6883.915261,-3294.210641
147.691950,-5329.482782,7624.121203,2298.286494
147.692259,-592.164754,4663.297435,-689.485948
147.692568,4515.256246,4737.318029,-2451.505594
147.692878,-888.247130,6291.750507,5669.106685
147.693187,3256.906145,7994.224174,1915.238745
147.693497,2960.823768,5847.626942,-6435.202183
147.693806,3478.967927,7698.141797,-3064.381992
147.694116,-5033.400406,9104.533087,2298.286494
147.694425,1332.370696,13397.727550,612.876398
147.694735,1480.411884,11843.295072,-1762.019645
147.695044,-3182.885551,10140.821405,-536.266849
147.695354,2146.597232,10066.800811,-2604.724693
147.695663,-3034.844362,8142.265362,-3524.039291
147.695973,-148.041188,13545.768739,-2068.457845
147.696282,518.144159,13989.892304,-6435.202183
147.696592,-0.000000,16432.571912,-3600.648841
147.696901,-3775.050304,8808.450710,3447.429741
147.697210,-296.082377,10214.842000,-229.828649
147.697520,4737.318029,6661.853478,-6128.763984
147.697829,1776.494261,6291.750507,-459.657299
147.698139,-6809.894666,2960.823768,6588.421283
147.698448,1776.494261,2516.700203,0.000000
147.698758,3775.050304,6735.874072,-1455.581446
147.699067,-666.185348,6883.915261,459.657299
147.699377,-1702.473667,11103.089130,-612.876398
147.699686,-3256.906145,12213.398043,-2451.505594
147.699996,-1924.535449,13693.809927,-2528.115143
147.700305,-4737.318029,12805.562797,-6665.030833
147.700615,814.226536,16136.489536,-11108.384721
147.700924,-2072.576638,15396.283594,-10648.727422
147.701234,-4959.379811,17468.860231,-3677.258390
147.701543,-0.000000,12361.439231,-3753.867940
147.701852,-1110.308913,8142.265362,-4903.011187
147.702162,-1036.288319,9178.553681,-4443.353888
147.702471,4219.173869,2294.638420,-5209.449386
147.702781,4663.297435,6513.812290,-8273.831378
147.703090,-2590.720797,4441.235652,-1762.019645
147.703400,-296.082377,6365.771101,2298.286494
147.703709,5477.523971,10807.006753,-9806.022374
147.704019,4589.276840,8660.409521,-11184.994271
147.704328,-2220.617826,7994.224174,-5515.887586
147.704638,-592.164754,4737.318029,-10112.460574
147.704947,7402.059420,5773.606348,-14862.252661
147.705257,-2960.823768,10732.986159,-6741.640382
147.705566,-3552.988522,8882.471304,-5362.668486
147.705876,4589.276840,12953.603985,-7967.393179
147.706185,6365.771101,9992.780217,-8273.831378
147.706494,-5477.523971,11325.150913,-4366.744339
147.706804,-1850.514855,9326.594869,-9193.145976
147.707113,222.061783,11991.336260,-19075.777900
147.707423,3034.844362,10584.944971,-19075.777900
147.707732,-7179.997637,11547.212695,-11951.089769
147.708042,-1036.288319,10807.006753,-7048.078582
147.708351,5551.544565,8216.285956,-5286.058936
147.708661,2960.823768,5033.400406,-9806.022374
147.708970,-3627.009116,2738.761985,-4519.963438
147.709280,-2442.679609,7031.956449,-1302.362347
147.709589,4071.132681,7105.977043,-9346.365076
147.709899,2960.823768,9918.759623,-18309.682402
147.710208,-2368.659014,12509.480420,-14019.547613
147.710518,-3478.967927,14952.160028,-8350.440928
147.710827,-592.164754,10584.944971,-9039.926876
147.711136,-962.267725,10881.027347,-9499.584175
147.711446,-4367.215058,9770.718434,-9806.022374
147.711755,-3478.967927,7402.059420,-11721.261119
147.712065,-0.000000,7105.977043,-16700.881856
147.712374,-74.020594,7624.121203,-15398.519510
147.712684,-5403.503377,11325.150913,-11644.651570
147.712993,2590.720797,13397.727550,-8044.002729
147.713303,740.205942,10288.862594,-10495.508323
147.713612,3478.967927,8068.244768,-8886.707777
147.713922,-4293.194464,5847.626942,-6052.154434
147.714231,370.102971,5699.585753,-7660.954980
147.714541,2516.700203,7624.121203,-16854.100956
147.714850,7846.182985,9548.656652,-18079.853753
147.715160,-4293.194464,9844.739029,-9959.241474
147.715469,-1480.411884,13249.686362,-4366.744339
147.715778,4663.297435,15100.201217,-11108.384721
147.716088,9326.594869,8142.265362,-17390.367805
147.716397,-962.267725,7254.018232,-6358.592633
147.716707,-6365.771101,4737.318029,229.828649
147.717016,-1628.453072,6365.771101,-9806.022374
147.717326,2886.803174,9622.677246,-18692.730151
147.717635,1776.494261,11621.233289,-16624.272307
147.717945,-2886.803174,15988.448347,-7584.345430
147.718254,-5551.544565,15618.345376,-6741.640382
147.718564,962.267725,16506.592507,-11721.261119
147.718873,3627.009116,9326.594869,-20378.140247
147.719183,-1480.411884,7698.141797,-12947.013916
147.719492,-3997.112087,3997.112087,-1302.362347
147.719802,1110.308913,4293.194464,-1225.752797
147.720111,2146.597232,7328.038826,-6971.469032
147.720420,1776.494261,9030.512492,-6818.249932
147.720730,-4737.318029,9548.656652,-6435.202183
147.721039,-1628.453072,10584.944971,-8656.879127
147.721349,1850.514855,12213.398043,-14479.204912
147.721658,-2220.617826,11177.109724,-18003.244203
147.721968,-4663.297435,8216.285956,-12947.013916
147.722277,-4367.215058,7698.141797,-10189.070123
147.722587,592.164754,7920.203579,-16011.395908
147.722896,7031.956449,10214.842000,-8580.269578
147.723206,-2220.617826,8512.368333,3064.381992
147.723515,-2368.659014,7179.997637,5056.230287
147.723825,-518.144159,8512.368333,-5132.839837
147.724134,2146.597232,14285.974681,-18462.901502
147.724444,-2294.638420,15174.221811,-20684.578446
147.724753,-3182.885551,14804.118840,-18999.168350
147.725062,148.041188,12953.603985,-16164.615008
147.725372,1480.411884,12805.562797,-13866.328514
147.725681,-444.123565,12657.521608,-6741.640382
147.725991,-1036.288319,10436.903782,1302.362347
147.726300,1036.288319,8068.244768,-3677.258390
147.726610,4293.194464,5847.626942,-12870.404366
147.726919,5773.606348,5773.606348,-14325.985813
147.727229,148.041188,5255.462188,-11568.042020
147.727538,-3478.967927,9622.677246,-8044.002729
147.727848,2368.659014,12139.377449,-7814.174080
147.728157,518.144159,12287.418637,-11184.994271
147.728467,-3552.988522,12953.603985,-12563.966167
147.728776,-2442.679609,7550.100608,-10495.508323
147.729086,1850.514855,7772.162391,-16317.834107
147.729395,-74.020594,7031.956449,-17850.025103
147.729704,-1036.288319,9030.512492,-8044.002729
147.730014,-1480.411884,11917.315666,-5898.935335
147.730323,2664.741391,12361.439231,-10572.117872
147.730633,-370.102971,11473.192101,-8886.707777
147.730942,-1776.494261,10214.842000,-6818.249932
147.731252,-3256.906145,11473.192101,-11797.870669
147.731561,518.144159,8808.450710,-18845.949251
147.731871,2072.576638,9400.615463,-20531.359346
147.732180,1850.514855,9178.553681,-13330.061665
147.732490,1110.308913,7846.182985,-3217.601092
147.732799,1924.535449,4367.215058,1072.533697
147.733109,1332.370696,3552.988522,-2987.772442
147.733418,-74.020594,2442.679609,-3064.381992
147.733728,-2294.638420,4515.256246,-7201.297681
147.734037,-2886.803174,10584.944971,-13942.938064
147.734346,-1332.370696,16506.592507,-18922.558801
147.734656,-888.247130,19763.498651,-20914.407095
147.734965,-1258.350101,19985.560434,-21144.235745
147.735275,-222.061783,15544.324782,-14555.814462
147.735584,1924.535449,11991.336260,-7507.735880
147.735894,1776.494261,4959.379811,-3447.429741
147.736203,2960.823768,1924.535449,-1072.533697
147.736513,-148.041188,-2664.741391,0.000000
147.736822,-2664.741391,-0.000000,-3064.381992
147.737132,814.226536,5921.647536,-11414.822920
147.737441,962.267725,11325.150913,-18462.901502
147.737751,-2812.782580,15322.262999,-18386.291952
147.738060,-740.205942,15248.242405,-14249.376263
147.738370,740.205942,14285.974681,-17850.025103
147.738679,222.061783,9622.677246,-13023.623466
147.738988,-444.123565,5329.482782,-6588.421283
147.739298,-1036.288319,3404.947333,-3753.867940
147.739607,-148.041188,4737.318029,-4903.011187
147.739917,2664.741391,9030.512492,-7201.297681
147.740226,2738.761985,12139.377449,-13100.233016
147.740536,-0.000000,13175.665768,-13559.890315
147.740845,-1480.411884,14952.160028,-10189.070123
147.741155,888.247130,16580.613101,-10878.556072
147.741464,1554.432478,11029.068536,-14862.252661
147.741774,222.061783,7846.182985,-9806.022374
147.742083,-2738.761985,1332.370696,-6052.154434
147.742393,-0.000000,2294.638420,-8044.002729
147.742702,2812.782580,5255.462188,-7048.078582
147.743011,666.185348,12287.418637,-6665.030833
147.743321,518.144159,13545.768739,-6588.421283
147.743631,1480.411884,13323.706956,-8963.317327
147.743940,1480.411884,11991.336260,-12717.185267
147.744250,-1554.432478,9252.574275,-12334.137518
147.744559,-1258.350101,8956.491898,-10342.289223
147.744869,1184.329507,9474.636058,-10035.851024
147.745178,222.061783,9400.615463,-7890.783629
147.745488,-518.144159,13841.851115,-5132.839837
147.745797,-222.061783,9474.636058,-6971.469032
147.746107,-370.102971,8660.409521,-11031.775171
147.746417,740.205942,8142.265362,-10035.851024
147.746726,1776.494261,6883.915261,-7660.954980
147.747036,-444.123565,8216.285956,-6971.469032
147.747345,-740.205942,6439.791695,-2604.724693
147.747655,222.061783,6661.853478,-3217.601092
147.747964,1998.556043,7624.121203,-7048.078582
147.748274,-1628.453072,11029.068536,-3983.696590
147.748584,-2368.659014,13693.809927,-1072.533697
147.748893,-74.020594,13323.706956,-7277.907231
147.749203,-2590.720797,10362.883188,-12027.699319
147.749512,-5403.503377,8734.430116,-10572.117872
147.749822,-6809.894666,9696.697840,-14555.814462
147.750131,-2886.803174,10436.903782,-15398.519510
147.750441,-1998.556043,12805.562797,-12257.527968
147.750750,-1554.432478,13915.871710,-9652.803275
147.751060,814.226536,13397.727550,-9269.755526
147.751370,222.061783,11991.336260,-9116.536426
147.751679,-814.226536,13027.624579,-9039.926876
147.751989,-814.226536,12583.501014,-12027.699319
147.752298,-592.164754,11695.253884,-16011.395908
147.752608,-74.020594,10362.883188,-20224.921147
147.752917,1554.432478,8364.327145,-20071.702048
147.753227,2368.659014,8734.430116,-16241.224558
147.753537,2516.700203,8438.347739,-10112.460574
147.753846,2738.761985,5403.503377,-4903.011187
147.754156,15840.407159,-444.123565,-1608.800546
147.754465,-8660.409521,-4071.132681,383.047749
147.754775,1924.535449,5921.647536,-6511.811733
147.755084,-3404.947333,5403.503377,-18922.558801
147.755394,2072.576638,13397.727550,-23902.179538
147.755703,-2738.761985,14285.974681,-21986.940793
147.756013,-4811.338623,14878.139434,-17543.586904
147.756323,5403.503377,17912.983796,-19918.482948
147.756632,1924.535449,11843.295072,-13483.280765
147.756942,2442.679609,10214.842000,-6741.640382
147.757251,-1110.308913,4589.276840,-1455.581446
147.757561,21762.054695,-3034.844362,-12947.013916
147.757870,-36714.214723,-11029.068536,-1608.800546
147.758180,8734.430116,7402.059420,-4443.353888
147.758490,14508.036463,21317.931130,-29341.457573
147.758799,7994.224174,25463.084405,-23365.912689
147.759109,-7994.224174,10066.800811,-5286.058936
147.759418,-17838.963202,1702.473667,-8886.707777
147.759728,7476.080014,9178.553681,-26889.951980
147.760037,-2146.597232,6439.791695,-12563.966167
147.760347,1480.411884,12583.501014,-11261.603821
147.760656,-3627.009116,3775.050304,-9116.536426
147.760966,-5847.626942,11991.336260,-6971.469032
147.761276,7105.977043,13693.809927,-10418.898773
147.761585,-1332.370696,7179.997637,-17620.196454
147.761895,-222.061783,14656.077652,-3753.867940
147.762204,-8068.244768,7698.141797,2911.162892
147.762514,1702.473667,8438.347739,-22369.988542
147.762823,-444.123565,1998.556043,-27502.828378
147.763133,962.267725,11029.068536,-15092.081311
147.763443,-6069.688724,7772.162391,-7967.393179
147.763752,2590.720797,13915.871710,-9576.193725
147.764062,8808.450710,8068.244768,-9882.631924
147.764371,4071.132681,6587.832884,-7660.954980
147.764681,-2368.659014,3775.050304,4903.011187
147.764990,-3478.967927,5477.523971,3217.601092
147.765300,5329.482782,7105.977043,-15168.690860
147.765609,6883.915261,11843.295072,-24668.275036
147.765919,-3923.091493,13101.645173,-12410.747068
147.766229,-592.164754,15100.201217,-7354.516781
147.766538,4885.359217,18431.127956,-12793.794817
147.766848,962.267725,16136.489536,-11644.651570
147.767157,-4145.153275,10881.027347,-3294.210641
147.767467,740.205942,6587.832884,-6741.640382
147.767776,2664.741391,9252.574275,-14402.595362
147.768086,-814.226536,5625.565159,-14555.814462
147.768396,1110.308913,10436.903782,-9193.145976
147.768705,1480.411884,10881.027347,-3600.648841
147.769015,-3182.885551,15840.407159,536.266849
147.769324,-518.144159,13323.706956,-1225.752797
147.769634,2738.761985,13249.686362,-12640.575717
147.769943,-962.267725,7624.121203,-14555.814462
147.770253,-5995.668130,5625.565159,-11491.432470
147.770562,-3552.988522,4737.318029,-12410.747068
147.770872,-2146.597232,9474.636058,-11568.042020
147.771182,-1184.329507,13323.706956,-4903.011187
147.771491,-1258.350101,12213.398043,-4979.620737
147.771801,1776.494261,11103.089130,-9422.974625
147.772110,2886.803174,6587.832884,-5822.325785
147.772420,-3256.906145,5551.544565,-2374.896044
147.772729,-2072.576638,4293.194464,-7660.954980
147.773039,-4071.132681,6957.935855,-9882.631924
147.773349,3108.864956,16210.510130,-11414.822920
147.773658,3330.926739,13767.830521,-16700.881856
147.773968,-1184.329507,15766.386565,-14709.033562
147.774277,-2368.659014,16950.716072,-10418.898773
147.774587,-740.205942,7772.162391,-14938.862211
147.774896,-1998.556043,10066.800811,-15015.471761
147.775206,3552.988522,6439.791695,-11031.775171
147.775515,-1776.494261,4885.359217,-11338.213370
147.775825,222.061783,7994.224174,-5439.278036
147.776135,-148.041188,9474.636058,-11414.822920
147.776444,4145.153275,12953.603985,-16700.881856
147.776754,4515.256246,9474.636058,-16547.662757
147.777063,-5995.668130,9992.780217,-11568.042020
147.777373,592.164754,12953.603985,-12027.699319
147.777682,2368.659014,6217.729913,-16930.710506
147.777992,2960.823768,6513.812290,-15858.176809
147.778302,740.205942,2664.741391,-11721.261119
147.778611,-2516.700203,6809.894666,-2681.334243
147.778921,-0.000000,7772.162391,-6052.154434
147.779230,5033.400406,10658.965565,-15475.129060
147.779540,2368.659014,11399.171507,-16394.443657
147.779849,-3627.009116,14211.954086,-12027.699319
147.780159,-5551.544565,12805.562797,-11721.261119
147.780468,-2664.741391,12213.398043,-19841.873398
147.780778,4811.338623,11325.150913,-21603.893044
147.781088,-3478.967927,3627.009116,-13942.938064
147.781397,-3552.988522,9918.759623,0.000000
147.781707,-2590.720797,8808.450710,-2911.162892
147.782016,8808.450710,12583.501014,-13559.890315
147.782326,-4367.215058,10066.800811,-12334.137518
147.782635,444.123565,8956.491898,-11644.651570
147.782945,-8364.327145,11547.212695,-15551.738609
147.783255,9178.553681,12805.562797,-22216.769442
147.783564,1924.535449,10288.862594,-17620.196454
147.783874,-1036.288319,5921.647536,-3217.601092
147.784183,-5107.421000,8438.347739,3524.039291
147.784493,6291.750507,5773.606348,-6358.592633
147.784802,4071.132681,10066.800811,-16854.100956
147.785112,888.247130,2294.638420,-13636.499864
147.785421,-0.000000,7920.203579,-7737.564530
147.785731,2960.823768,6291.750507,-11644.651570
147.786041,4589.276840,10658.965565,-10801.946522
147.786350,-1258.350101,8438.347739,-1225.752797
147.786660,-0.000000,5921.647536,-306.438199
147.786969,1110.308913,2960.823768,-3524.039291
147.787279,-962.267725,1480.411884,-6052.154434
147.787588,4145.153275,6291.750507,-9039.926876
147.787898,-370.102971,8068.244768,-7048.078582
147.788208,-1702.473667,12583.501014,-2145.067394
147.788517,-3701.029710,11399.171507,-2604.724693
147.788827,6217.729913,16580.613101,-6894.859482
147.789136,1850.514855,9696.697840,-6052.154434
147.789446,-6069.688724,8882.471304,1762.019645
147.789755,1110.308913,8216.285956,-2145.067394
147.790065,4589.276840,9622.677246,-8273.831378
147.790374,1554.432478,13175.665768,-5592.497135
147.790684,-5551.544565,12879.583391,2604.724693
147.790994,-888.247130,16432.571912,-3140.991542
147.791303,666.185348,16210.510130,-10035.851024
147.791613,-1110.308913,12953.603985,-3140.991542
147.791922,-1924.535449,9696.697840,995.924147
147.792232,-148.041188,8512.368333,-1838.629195
147.792541,518.144159,9326.594869,-1455.581446
147.792851,1406.391290,5329.482782,-612.876398
147.793161,1036.288319,9030.512492,1455.581446
147.793470,1332.370696,9918.759623,4749.792088
147.793780,-4589.276840,9696.697840,4749.792088
147.794089,4885.359217,10881.027347,0.000000
147.794399,296.082377,7550.100608,-3983.696590
147.794708,-5033.400406,10510.924376,2068.457845
147.795018,-2664.741391,9030.512492,-306.438199
147.795327,2664.741391,14508.036463,-11874.480219
147.795637,-0.000000,13989.892304,-10418.898773
147.795947,1036.288319,13249.686362,-3600.648841
147.796256,-518.144159,9918.759623,-1608.800546
147.796566,1554.432478,9178.553681,0.000000
147.796875,5995.668130,9252.574275,2374.896044
147.797185,5329.482782,3849.070898,-995.924147
147.797494,3034.844362,3775.050304,-1072.533697
147.797804,-1332.370696,5107.421000,6894.859482
147.798114,2368.659014,8956.491898,-2451.505594
147.798423,1554.432478,4811.338623,-11031.775171
147.798733,-962.267725,17838.963202,-3753.867940
147.799042,-1332.370696,10214.842000,-3907.087040
147.799352,2886.803174,11177.109724,-7354.516781
147.799661,-444.123565,15174.221811,-4290.134789
147.799971,-1628.453072,10510.924376,-1838.629195
147.800280,-148.041188,7846.182985,-6128.763984
147.800590,296.082377,7031.956449,306.438199
147.800900,-6587.832884,11843.295072,5669.106685
147.801209,-962.267725,15914.427753,-4213.525239
147.801519,11399.171507,10955.047942,-13100.233016
147.801828,-3404.947333,9178.553681,-306.438199
147.802138,-4663.297435,5699.585753,10189.070123
147.802447,-3404.947333,5995.668130,3907.087040
147.802757,5477.523971,8438.347739,-5362.668486
147.803067,-370.102971,7550.100608,-5056.230287
147.803376,-4515.256246,7550.100608,-2451.505594
147.803686,-1998.556043,7846.182985,-3524.039291
147.803995,370.102971,8956.491898,-9882.631924
147.804305,4811.338623,12731.542202,-7048.078582
147.804614,-2368.659014,9622.677246,-459.657299
147.804924,-3775.050304,11991.336260,8044.002729
147.805233,2738.761985,6291.750507,2068.457845
147.805543,3108.864956,6587.832884,-5209.449386
147.805853,-666.185348,6587.832884,-2451.505594
147.806162,-5625.565159,8808.450710,1762.019645
147.806472,1036.288319,15174.221811,-7431.126331
147.806781,2590.720797,13101.645173,-9269.755526
147.807091,-222.061783,12509.480420,-3983.696590
147.807400,-4293.194464,9104.533087,-3064.381992
147.807710,-2442.679609,5181.441594,-6741.640382
147.808020,3108.864956,4737.318029,-3447.429741
147.808329,9400.615463,-3108.864956,-919.314598
147.808639,740.205942,4959.379811,3753.867940
147.808948,-1850.514855,9474.636058,12257.527968
147.809258,6365.771101,7920.203579,5592.497135
147.809567,4441.235652,7402.059420,-4213.525239
147.809877,-3923.091493,8956.491898,3064.381992
147.810186,-148.041188,11991.336260,-2451.505594
147.810496,1628.453072,7772.162391,-12410.747068
147.810806,-814.226536,14804.118840,-4060.306139
147.811115,-3330.926739,14952.160028,4443.353888
147.811425,222.061783,14359.995275,-1072.533697
147.811734,1850.514855,15618.345376,-5439.278036
147.812044,3404.947333,11325.150913,-766.095498
147.812353,-444.123565,9918.759623,1915.238745
147.812663,-7994.224174,5699.585753,7814.174080
147.812973,-222.061783,11621.233289,7201.297681
147.813282,6291.750507,11621.233289,-6358.592633
147.813592,8438.347739,7105.977043,-7201.297681
147.813901,-7105.977043,9548.656652,6971.469032
147.814211,-5033.400406,6883.915261,13100.233016
147.814520,4293.194464,11177.109724,-7507.735880
147.814830,3923.091493,5921.647536,-7584.345430
147.815139,-6365.771101,8142.265362,4519.963438
147.815449,-6513.812290,5995.668130,-459.657299
147.815759,-4515.256246,9400.615463,-1455.581446
147.816068,-814.226536,13841.851115,3677.258390
147.816378,-0.000000,10510.924376,-5362.668486
147.816687,-1036.288319,9918.759623,-6894.859482
147.816997,1924.535449,13249.686362,1072.533697
147.817306,-592.164754,8734.430116,-842.705048
147.817616,5403.503377,7994.224174,-3447.429741
147.817926,1702.473667,4885.359217,8886.707777
147.818235,-5699.585753,2516.700203,10725.336972
147.818545,1332.370696,962.267725,1225.752797
147.818854,888.247130,7920.203579,-4290.134789
147.819164,-1110.308913,10510.924376,-3064.381992
147.819473,1776.494261,11843.295072,-10495.508323
147.819783,1480.411884,10807.006753,-13176.842566
147.820092,-2516.700203,13767.830521,-1532.190996
147.820402,1924.535449,17024.736666,2374.896044
147.820712,6143.709319,11177.109724,-2987.772442
147.821021,2886.803174,9844.739029,3753.867940
147.821331,-3404.947333,6735.874072,11797.870669
147.821640,-3034.844362,7105.977043,1762.019645
147.821950,296.082377,10732.986159,-7814.174080
147.822259,2664.741391,16358.551318,-9039.926876
147.822569,-1628.453072,11399.171507,-9346.365076
147.822879,-3849.070898,11843.295072,-4596.572988
147.823188,-2294.638420,14656.077652,1302.362347
147.823498,3330.926739,3552.988522,-6281.983084
147.823807,2516.700203,7179.997637,-6818.249932
147.824117,-5995.668130,3627.009116,8197.221829
147.824426,444.123565,8216.285956,7507.735880
147.824736,5847.626942,2220.617826,-6894.859482
147.825045,4071.132681,6143.709319,-3447.429741
147.825355,-4737.318029,10658.965565,4826.401637
147.825665,-4071.132681,8660.409521,919.314598
147.825974,-1628.453072,12361.439231,-4290.134789
147.826284,370.102971,11695.253884,-4213.525239
147.826593,518.144159,11177.109724,-7660.954980
147.826903,-8068.244768,11621.233289,-1915.238745
147.827212,-2072.576638,9622.677246,-1302.362347
147.827522,-2072.576638,7179.997637,-3294.210641
147.827832,2294.638420,7105.977043,-1532.190996
147.828141,-1036.288319,12435.459826,6052.154434
147.828451,1332.370696,7402.059420,4519.963438
147.828760,3108.864956,5255.462188,-6511.811733
147.829070,-4589.276840,3997.112087,2987.772442
147.829379,962.267725,10732.986159,6358.592633
147.829689,-888.247130,10732.986159,-12717.185267
147.829998,4071.132681,10881.027347,-9422.974625
147.830308,-962.267725,12879.583391,1532.190996
147.830618,518.144159,9696.697840,-1838.629195
147.830927,1776.494261,5181.441594,-3294.210641
147.831237,888.247130,13027.624579,9039.926876
147.831546,-6661.853478,5551.544565,9116.536426
147.831856,-1924.535449,9622.677246,1608.800546
147.832165,1406.391290,13619.789333,-1532.190996
147.832475,3034.844362,13767.830521,-9116.536426
147.832785,-1554.432478,8808.450710,-11951.089769
147.833094,-4663.297435,16654.633695,0.000000
147.833404,814.226536,17024.736666,2451.505594
147.833713,2220.617826,5033.400406,-2298.286494
147.834023,-6661.853478,10066.800811,4903.011187
147.834332,2516.700203,5699.585753,5362.668486
147.834642,7698.141797,4589.276840,-10801.946522
147.834951,-0.000000,-296.082377,-4749.792088
147.835261,-2812.782580,11103.089130,10878.556072
147.835571,1184.329507,9992.780217,6741.640382
147.835880,-1184.329507,12435.459826,-4826.401637
147.836190,592.164754,15766.386565,-1225.752797
147.836499,5921.647536,10881.027347,-5362.668486
147.836809,-2368.659014,5107.421000,-8273.831378
147.837118,-6365.771101,6735.874072,1378.971896
147.837428,3849.070898,12879.583391,-1838.629195
147.837738,1480.411884,10510.924376,-7124.688131
147.838047,-4219.173869,13397.727550,11261.603821
147.838357,-3552.988522,15322.262999,10342.289223
147.838666,9326.594869,7254.018232,-14402.595362
147.838976,-1998.556043,1998.556043,-10112.460574
147.839285,-666.185348,9918.759623,9576.193725
147.839595,3552.988522,7328.038826,0.000000
147.839904,-1702.473667,5107.421000,-2604.724693
147.840214,3330.926739,17838.963202,11108.384721
147.840524,5625.565159,5921.647536,-3600.648841
147.840833,-2590.720797,6217.729913,-4443.353888
147.841143,-8438.347739,9696.697840,14632.424012
147.841452,-1184.329507,5773.606348,2757.943793
147.841762,3627.009116,11325.150913,-15015.471761
147.842071,-222.061783,18135.045579,-6128.763984
147.842381,-2294.638420,14211.954086,229.828649
147.842691,-5551.544565,9400.615463,-5439.278036
147.843000,-2738.761985,11769.274478,2681.334243
147.843310,2294.638420,13101.645173,-1072.533697
147.843619,9104.533087,3923.091493,-12334.137518
147.843929,-9992.780217,1776.494261,10265.679673
147.844238,-3478.967927,7105.977043,19612.044749
147.844548,10140.821405,2516.700203,-6665.030833
147.844857,5255.462188,4959.379811,-10955.165621
147.845167,-9326.594869,5403.503377,15628.348159
147.845477,-2590.720797,13693.809927,4136.915689
147.845786,8142.265362,11547.212695,-18692.730151
147.846096,4293.194464,15544.324782,-6818.249932
147.846405,-5033.400406,14508.036463,5439.278036
147.846715,-4071.132681,11177.109724,-766.095498
147.847025,444.123565,15396.283594,-306.438199
147.847334,3923.091493,12953.603985,-1455.581446
147.847644,-444.123565,12065.356855,-8580.269578
147.847953,-2220.617826,9992.780217,0.000000
147.848263,-814.226536,8808.450710,1225.752797
147.848572,5255.462188,6957.935855,-3524.039291
147.848882,-1554.432478,4737.318029,919.314598
147.849192,-3034.844362,7994.224174,8580.269578
147.849501,3256.906145,6661.853478,-4443.353888
147.849811,4293.194464,3552.988522,-11031.775171
147.850120,-2368.659014,7994.224174,2911.162892
147.850430,-592.164754,11695.253884,1225.752797
147.850740,6069.688724,12953.603985,-11338.213370
147.851049,-74.020594,12139.377449,-459.657299
147.851359,-5921.647536,10807.006753,11261.603821
147.851668,-2072.576638,10584.944971,1225.752797
147.851978,7105.977043,12731.542202,-9806.022374
147.852287,2590.720797,9326.594869,-10955.165621
147.852597,-4367.215058,10436.903782,-1915.238745
147.852907,-1258.350101,12435.459826,2757.943793
147.853216,4367.215058,7476.080014,-995.924147
147.853526,-2294.638420,6439.791695,2987.772442
147.853835,-4663.297435,7994.224174,9269.755526
147.854145,-2442.679609,3849.070898,306.438199
147.854455,2220.617826,3330.926739,-11874.480219
147.854764,3701.029710,7254.018232,-8044.002729
147.855074,-5329.482782,9770.718434,-1532.190996
147.855383,-4737.318029,14508.036463,6588.421283
147.855693,7105.977043,17838.963202,153.219100
147.856002,8364.327145,10436.903782,-5132.839837
147.856312,-2368.659014,11621.233289,7048.078582
147.856622,-5107.421000,13471.748144,9806.022374
147.856931,5181.441594,9474.636058,-10878.556072
147.857241,2368.659014,10066.800811,-14096.157163
147.857550,-4367.215058,12435.459826,2528.115143
147.857860,-1850.514855,14211.954086,76.609550
147.858170,4663.297435,8142.265362,-9806.022374
147.858479,-1776.494261,6069.688724,-1991.848295
147.858789,592.164754,8734.430116,8120.612279
147.859098,2738.761985,4219.173869,4519.963438
147.859408,1110.308913,962.267725,1915.238745
147.859717,-148.041188,7994.224174,4903.011187
147.860027,4145.153275,5329.482782,-459.657299
147.860337,888.247130,11547.212695,-3140.991542
147.860646,-3330.926739,15248.242405,2068.457845
147.860956,1850.514855,15100.201217,-2528.115143
147.861265,-2960.823768,16802.674883,-8273.831378
147.861575,-4293.194464,15248.242405,-153.219100
147.861885,666.185348,14359.995275,-2834.553343
147.862194,-518.144159,7698.141797,-8733.488677
147.862504,-2960.823768,11547.212695,-1838.629195
147.862813,3627.009116,2590.720797,-4596.572988
147.863123,4959.379811,3552.988522,-5592.497135
147.863433,-4071.132681,3775.050304,14096.157163
147.863742,-0.000000,4737.318029,17160.539155
147.864052,1702.473667,2590.720797,-4826.401637
147.864361,4885.359217,3034.844362,-4826.401637
147.864671,-3404.947333,4145.153275,1302.362347
147.864980,1184.329507,7476.080014,-3907.087040
147.865290,1480.411884,12509.480420,-7584.345430
147.865600,-3034.844362,15766.386565,1991.848295
147.865909,-4145.153275,19393.395680,2911.162892
147.866219,1554.432478,17764.942608,-6588.421283
147.866528,-3478.967927,13027.624579,-3677.258390
147.866838,-1628.453072,12509.480420,-1991.848295
147.867148,-2886.803174,11769.274478,-6971.469032
147.867457,-296.082377,14878.139434,-6052.154434
147.867767,2220.617826,8216.285956,-3370.820191
147.868076,592.164754,5847.626942,-689.485948
147.868386,148.041188,8068.244768,5056.230287
147.868695,-2516.700203,6291.750507,4136.915689
147.869005,6957.935855,4219.173869,-2528.115143
147.869315,5699.585753,666.185348,-3294.210641
147.869624,370.102971,1480.411884,2987.772442
147.869934,-3182.885551,3108.864956,4673.182538
147.870243,1110.308913,7920.203579,-536.266849
147.870553,-1998.556043,12731.542202,-1149.143247
147.870863,-9104.533087,14804.118840,459.657299
147.871172,1776.494261,18431.127956,-7507.735880
147.871482,3997.112087,20207.622217,-20531.359346
147.871791,-2886.803174,19245.354492,-10189.070123
147.872101,-3034.844362,17542.880825,2757.943793
147.872410,-2072.576638,7994.224174,842.705048
147.872720,-3478.967927,5625.565159,4903.011187
147.873030,1036.288319,6217.729913,6052.154434
147.873339,3997.112087,3849.070898,-5669.106685
147.873649,-962.267725,-1776.494261,-4213.525239
147.873958,-296.082377,2294.638420,3447.429741
147.874268,2516.700203,5847.626942,-2911.162892
147.874578,-1184.329507,9400.615463,-7124.688131
147.874887,-148.041188,13249.686362,3217.601092
147.875197,3997.112087,8808.450710,-153.219100
147.875506,-1924.535449,10214.842000,-6588.421283
147.875816,-4293.194464,10955.047942,0.000000
147.876125,-3108.864956,15692.365970,-766.095498
147.876435,1036.288319,17468.860231,-10878.556072
147.876745,3404.947333,16358.551318,-3140.991542
147.877054,1776.494261,11695.253884,-2298.286494
147.877364,-814.226536,9252.574275,-1991.848295
147.877673,-2072.576638,8882.471304,4903.011187
147.877983,-3108.864956,9252.574275,6741.640382
147.878293,6513.812290,3849.070898,-3600.648841
147.878602,2146.597232,3330.926739,-9882.631924
147.878912,-1628.453072,5625.565159,-459.657299
147.879221,740.205942,4219.173869,0.000000
147.879531,1332.370696,6809.894666,153.219100
147.879840,-2442.679609,13767.830521,7507.735880
147.880150,-370.102971,10140.821405,5745.716235
147.880460,-1924.535449,13767.830521,-6358.592633
147.880769,740.205942,7328.038826,-7584.345430
147.881079,1628.453072,11991.336260,-4290.134789
147.881388,-1184.329507,15322.262999,-7814.174080
147.881698,814.226536,11473.192101,-1302.362347
147.882008,-2146.597232,12213.398043,8580.269578
147.882317,-1924.535449,11399.171507,6281.983084
147.882627,-1036.288319,7698.141797,689.485948
147.882936,-1332.370696,7031.956449,-1838.629195
147.883246,814.226536,4219.173869,-12487.356617
147.883555,1850.514855,8142.265362,-13866.328514
147.883865,-1184.329507,8586.388927,1762.019645
147.884175,-0.000000,5773.606348,3677.258390
147.884484,8142.265362,9844.739029,5286.058936
147.884794,2146.597232,7105.977043,10725.336972
147.885103,-4885.359217,5329.482782,11721.261119
147.885413,-0.000000,5107.421000,4290.134789
147.885723,7031.956449,11251.130318,-9576.193725
147.886032,-5921.647536,11621.233289,-12257.527968
147.886342,-4145.153275,13767.830521,-9116.536426
147.886651,1480.411884,16876.695478,-9422.974625
147.886961,-4737.318029,16062.468941,-1532.190996
147.887270,-0.000000,14359.995275,5286.058936
147.887580,1258.350101,9178.553681,-919.314598
147.887890,592.164754,-0.000000,-995.924147
147.888199,-1110.308913,962.267725,10725.336972
147.888509,4589.276840,4811.338623,0.000000
147.888818,8438.347739,3478.967927,-6052.154434
147.889128,-2886.803174,7476.080014,10035.851024
147.889438,-5995.668130,11695.253884,11644.651570
147.889747,-4367.215058,17024.736666,-8580.269578
147.890057,2738.761985,12805.562797,-16394.443657
147.890366,1184.329507,9844.739029,-12257.527968
147.890676,-2146.597232,8660.409521,-8810.098227
147.890986,-4811.338623,6809.894666,-3830.477490
147.891295,-4367.215058,13693.809927,12717.185267
147.891605,3182.885551,13397.727550,8963.317327
147.891914,4737.318029,5551.544565,-2528.115143
147.892224,-666.185348,7624.121203,-2757.943793
147.892533,-0.000000,6587.832884,-1838.629195
147.892843,1480.411884,6365.771101,-9346.365076
147.893153,-2738.761985,12213.398043,-4903.011187
147.893462,-2516.700203,11399.171507,1302.362347
147.893772,5181.441594,12879.583391,-3753.867940
147.894081,5181.441594,7402.059420,-2757.943793
147.894391,-4145.153275,5255.462188,7584.345430
147.894701,-740.205942,7328.038826,5669.106685
147.895010,2368.659014,8142.265362,-3524.039291
147.895320,-2072.576638,8882.471304,-3447.429741
147.895629,-962.267725,9178.553681,-3217.601092
147.895939,-0.000000,12065.356855,-9269.755526
147.896248,592.164754,13545.768739,-8120.612279
147.896558,-740.205942,11473.192101,-153.219100
147.896868,-296.082377,11547.212695,-5515.887586
147.897177,2738.761985,6587.832884,306.438199
147.897487,296.082377,6365.771101,8273.831378
147.897796,3627.009116,9104.533087,5898.935335
147.898106,-1184.329507,6661.853478,1378.971896
147.898416,-5181.441594,9696.697840,4443.353888
147.898725,-2516.700203,14656.077652,-5362.668486
147.899035,2960.823768,12879.583391,-19612.044749
147.899344,2886.803174,13101.645173,-14862.252661
147.899654,-3182.885551,12583.501014,-612.876398
147.899963,-518.144159,9252.574275,1455.581446
147.900273,-1702.473667,5773.606348,7277.907231
147.900583,1036.288319,3552.988522,14709.033562
147.900892,4145.153275,3627.009116,3830.477490
147.901202,2664.741391,7402.059420,-7737.564530
147.901511,-1332.370696,9326.594869,-7584.345430
147.901821,592.164754,7920.203579,-5515.887586
147.902131,1554.432478,15248.242405,-8273.831378
147.902440,-6439.791695,14285.974681,-5056.230287
147.902750,592.164754,11251.130318,2374.896044
147.903059,3404.947333,4367.215058,2604.724693
147.903369,-2220.617826,3627.009116,6588.421283
147.903678,-3552.988522,11695.253884,6818.249932
147.903988,5847.626942,9104.533087,-11797.870669
147.904298,4145.153275,13249.686362,-14249.376263
147.904607,-7105.977043,14434.015869,-1838.629195
147.904917,-1702.473667,13027.624579,2681.334243
147.905226,5181.441594,14359.995275,-6665.030833
147.905536,4367.215058,9770.718434,-5898.935335
147.905846,-2220.617826,4885.359217,4366.744339
147.906155,2960.823768,2368.659014,3294.210641
147.906465,2368.659014,1998.556043,-1455.581446
147.906774,1628.453072,8660.409521,-1608.800546
147.907084,3775.050304,11177.109724,1532.190996
147.907393,-962.267725,9474.636058,2834.553343
147.907703,-3182.885551,17912.983796,5286.058936
147.908013,-2812.782580,13619.789333,-4673.182538
147.908322,2590.720797,13545.768739,-15475.129060
147.908632,-444.123565,11399.171507,-12793.794817
147.908941,-3108.864956,11473.192101,-5669.106685
147.909251,-1258.350101,8438.347739,-612.876398
147.909561,-370.102971,7772.162391,6358.592633
147.909870,6587.832884,9770.718434,9806.022374
147.910180,4367.215058,6661.853478,4826.401637
147.910489,-1480.411884,444.123565,6128.763984
147.910799,-3627.009116,7328.038826,6741.640382
147.911108,4663.297435,5773.606348,-2757.943793
147.911418,518.144159,7698.141797,-12717.185267
147.911728,-2960.823768,17987.004391,-4596.572988
147.912037,-296.082377,14434.015869,-4290.134789
147.912347,148.041188,14508.036463,-4673.182538
147.912656,-1628.453072,13841.851115,2221.676944
147.912966,-2960.823768,12213.398043,2528.115143
147.913276,1258.350101,12213.398043,-3524.039291
147.913585,-148.041188,3923.091493,-2757.943793
147.913895,2220.617826,8512.368333,-9882.631924
147.914204,5921.647536,3701.029710,-4213.525239
147.914514,-2294.638420,5329.482782,3677.258390
147.914823,-3034.844362,4219.173869,7660.954980
147.915133,2590.720797,9326.594869,1838.629195
147.915443,4737.318029,6809.894666,-2681.334243
147.915752,-1110.308913,5995.668130,-1991.848295
147.916062,-222.061783,13323.706956,-3447.429741
147.916371,-740.205942,13693.809927,-8427.050478
147.916681,-3108.864956,14952.160028,-5362.668486
147.916991,2220.617826,17616.901420,-2911.162892
147.917300,1628.453072,14211.954086,-9193.145976
147.917610,-3552.988522,11917.315666,-2604.724693
147.917919,-2886.803174,8956.491898,4136.915689
147.918229,5699.585753,4145.153275,-6971.469032
147.918538,3552.988522,1850.514855,-2145.067394
147.918848,-2960.823768,6143.709319,10342.289223
147.919158,814.226536,6143.709319,3677.258390
147.919467,3330.926739,10510.924376,-8427.050478
147.919777,3923.091493,10288.862594,-2068.457845
147.920086,-3182.885551,8068.244768,-842.705048
147.920396,370.102971,11473.192101,-9576.193725
147.920706,2368.659014,6883.915261,-6741.640382
147.921015,-5625.565159,8734.430116,5132.839837
147.921325,-3404.947333,10288.862594,4749.792088
147.921634,1554.432478,9252.574275,-766.095498
147.921944,1628.453072,16358.551318,-1915.238745
147.922254,2738.761985,13471.748144,-5286.058936
147.922563,2738.761985,5699.585753,-4903.011187
147.922873,-3108.864956,7772.162391,3983.696590
147.923182,-4145.153275,8660.409521,5439.278036
147.923492,1628.453072,9918.759623,-4136.915689
147.923801,1258.350101,5847.626942,-6205.373534
147.924111,1776.494261,6587.832884,-2987.772442
147.924421,1110.308913,4293.194464,-2681.334243
147.924730,2368.659014,2442.679609,0.000000
147.925040,-3478.967927,9104.533087,11031.775171
147.925349,-3182.885551,11473.192101,10112.460574
147.925659,1258.350101,14137.933492,-3677.258390
147.925969,222.061783,14582.057057,-8120.612279
147.926278,2516.700203,14508.036463,-8120.612279
147.926588,1110.308913,6883.915261,-8656.879127
147.926897,-4071.132681,8216.285956,-995.924147
147.927207,-2960.823768,7772.162391,6205.373534
147.927516,-0.000000,9252.574275,2374.896044
147.927826,2294.638420,10807.006753,-1225.752797
147.928136,1258.350101,11325.150913,-4903.011187
147.928445,5403.503377,5033.400406,-5745.716235
147.928755,6439.791695,4145.153275,-4826.401637
147.929064,-4959.379811,7476.080014,5515.887586
147.929374,-1554.432478,7105.977043,8197.221829
147.929684,2220.617826,12879.583391,-2757.943793
147.929993,1036.288319,14730.098246,-4903.011187
147.930303,-0.000000,14211.954086,-229.828649
147.930612,4663.297435,10955.047942,-4290.134789
147.930922,-222.061783,6439.791695,-6818.249932
147.931231,-7402.059420,7920.203579,3447.429741
147.931541,592.164754,14508.036463,4749.792088
147.931851,2220.617826,12065.356855,-6971.469032
147.932160,-1628.453072,10288.862594,-4366.744339
147.932470,3627.009116,10732.986159,-1302.362347
147.932779,2738.761985,4071.132681,-7048.078582
147.933089,-0.000000,3108.864956,1302.362347
147.933399,-2220.617826,11399.171507,12410.747068
147.933708,296.082377,8808.450710,3907.087040
147.934018,-1036.288319,6809.894666,-2068.457845
147.934327,296.082377,13989.892304,-1225.752797
147.934637,3182.885551,9770.718434,-11644.651570
147.934946,1776.494261,7031.956449,-14172.766713
147.935256,-5699.585753,7624.121203,4519.963438
147.935566,-5477.523971,7624.121203,9729.412825
147.935875,148.041188,8438.347739,-1838.629195
147.936185,-222.061783,10066.800811,-3064.381992
147.936494,2516.700203,7772.162391,-1302.362347
147.936804,5773.606348,6365.771101,-5439.278036
147.937114,-2072.576638,4367.215058,-2145.067394
147.937423,-3849.070898,14359.995275,6971.469032
147.937733,4589.276840,13175.665768,1838.629195
147.938042,1850.514855,14952.160028,-5132.839837
147.938352,-3997.112087,15026.180623,2911.162892
147.938661,370.102971,13175.665768,-3983.696590
147.938971,3552.988522,9030.512492,-11874.480219
147.939281,-4145.153275,7698.141797,-1532.190996
147.939590,-4515.256246,4737.318029,2145.067394
147.939900,444.123565,3997.112087,-4060.306139
147.940209,1554.432478,11991.336260,-2681.334243
147.940519,-3034.844362,10807.006753,4443.353888
147.940829,3182.885551,9992.780217,-1685.410096
147.941138,4293.194464,4071.132681,-8733.488677
147.941448,-370.102971,6513.812290,-1685.410096
147.941757,1850.514855,4071.132681,3830.477490
147.942067,2146.597232,10140.821405,3370.820191
147.942376,-1850.514855,17024.736666,6741.640382
147.942686,-2368.659014,13693.809927,5439.278036
147.942996,370.102971,12509.480420,-9652.803275
147.943305,518.144159,10140.821405,-13789.718964
147.943615,-3849.070898,8290.306550,-4443.353888
147.943924,-4737.318029,9844.739029,-4903.011187
147.944234,962.267725,13693.809927,-7277.907231
147.944544,222.061783,13693.809927,2068.457845
147.944853,3182.885551,8586.388927,6281.983084
147.945163,4663.297435,1406.391290,2374.896044
147.945472,-2146.597232,370.102971,6894.859482
147.945782,1406.391290,2664.741391,7048.078582
147.946091,5033.400406,6513.812290,-2987.772442
147.946400,-3923.091493,11547.212695,383.047749
147.946710,-7550.100608,18431.127956,2374.896044
147.947019,2072.576638,16654.633695,-14325.985813
147.947329,6587.832884,12361.439231,-16394.443657
147.947638,-5033.400406,9474.636058,4903.011187
147.947948,-9992.780217,7772.162391,10725.336972
147.948257,3552.988522,8660.409521,-2451.505594
147.948567,5107.421000,10732.986159,-8350.440928
147.948876,1702.473667,5255.462188,2221.676944
147.949186,1036.288319,6217.729913,2911.162892
147.949495,-2590.720797,5477.523971,2451.505594
147.949805,222.061783,9548.656652,4443.353888
147.950114,4663.297435,8512.368333,1915.238745
147.950424,-592.164754,10362.883188,-2221.676944
147.950733,-3182.885551,14508.036463,229.828649
147.951043,-518.144159,14508.036463,612.876398
147.951352,592.164754,10066.800811,-8427.050478
147.951662,-2960.823768,10584.944971,76.609550
147.951971,-2960.823768,11991.336260,-689.485948
