#time,accel_x,accel_y,accel_z
104.393093,370.102971,10288.862594,229.828649
104.393403,1628.453072,8882.471304,-2528.115143
104.393713,-148.041188,8660.409521,-1608.800546
104.394023,-74.020594,8956.491898,-1991.848295
104.394332,-148.041188,9030.512492,-2451.505594
104.394642,-0.000000,9770.718434,2374.896044
104.394952,-0.000000,10658.965565,-229.828649
104.395262,1184.329507,9400.615463,-1072.533697
104.395571,370.102971,8882.471304,-1608.800546
104.395881,222.061783,8808.450710,-1225.752797
104.396191,1332.370696,8586.388927,-1915.238745
104.396501,-444.123565,9918.759623,-766.095498
104.396810,-518.144159,9770.718434,-1225.752797
104.397120,1036.288319,9474.636058,-2145.067394
104.397430,74.020594,9992.780217,-2221.676944
104.397740,-666.185348,8216.285956,-383.047749
104.398049,296.082377,9548.656652,0.000000
104.398359,-0.000000,9104.533087,-536.266849
104.398669,1110.308913,8808.450710,-1685.410096
104.398979,-1406.391290,8512.368333,383.047749
104.399288,148.041188,9548.656652,-1072.533697
104.399598,370.102971,10066.800811,-536.266849
104.399908,222.061783,8364.327145,76.609550
104.400218,888.247130,8660.409521,1225.752797
104.400527,740.205942,7031.956449,-2451.505594
104.400837,4737.318029,7031.956449,842.705048
104.401147,1924.535449,7624.121203,9116.536426
104.401457,592.164754,6439.791695,10342.289223
104.401766,2146.597232,5995.668130,10035.851024
104.402076,6143.709319,7772.162391,6818.249932
104.402386,3108.864956,5847.626942,5209.449386
104.402696,-1924.535449,8808.450710,11414.822920
104.403005,-74.020594,11917.315666,12563.966167
104.403315,-148.041188,11843.295072,3064.381992
104.403625,1554.432478,12805.562797,4673.182538
104.403935,-1924.535449,12657.521608,11568.042020
104.404244,-15100.201217,16580.613101,13406.671215
104.404554,24056.693115,18727.210333,-4060.306139
104.404864,-10584.944971,6513.812290,1378.971896
104.405174,-3108.864956,15840.407159,20378.140247
104.405483,-20059.581028,9770.718434,28039.095227
104.405793,4145.153275,16876.695478,-612.876398
104.406103,10658.965565,9918.759623,-4979.620737
104.406413,-8956.491898,11177.109724,6741.640382
104.406723,-5625.565159,11399.171507,9039.926876
104.407032,-2664.741391,7550.100608,3983.696590
104.407342,-814.226536,7105.977043,7277.907231
104.407652,-2812.782580,2886.803174,18845.949251
104.407962,3404.947333,2812.782580,11031.775171
104.408271,-5403.503377,-962.267725,12257.527968
104.408581,3108.864956,3404.947333,14325.985813
104.408891,1036.288319,8364.327145,7584.345430
104.409201,-1924.535449,6809.894666,3830.477490
104.409510,-518.144159,12953.603985,8580.269578
104.409820,-0.000000,12657.521608,1455.581446
104.410130,7550.100608,11769.274478,-3677.258390
104.410440,518.144159,11843.295072,15092.081311
104.410749,-296.082377,7994.224174,25510.980083
104.411059,1406.391290,5255.462188,17237.148705
104.411369,3478.967927,6957.935855,9499.584175
104.411679,-1036.288319,8586.388927,9116.536426
104.411988,3997.112087,11547.212695,383.047749
104.412298,5181.441594,15914.427753,-4136.915689
104.412608,518.144159,15988.448347,7354.516781
104.412918,-4959.379811,14952.160028,15934.786358
104.413227,-5255.462188,11103.089130,14325.985813
104.413537,1924.535449,11103.089130,3600.648841
104.413847,6883.915261,8512.368333,-4366.744339
104.414157,2368.659014,8068.244768,1225.752797
104.414466,-518.144159,8364.327145,15321.909960
104.414776,-1850.514855,8586.388927,16317.834107
104.415086,3256.906145,7920.203579,6665.030833
104.415396,4515.256246,5107.421000,76.609550
104.415705,-3552.988522,2072.576638,4290.134789
104.416015,-7476.080014,7402.059420,7584.345430
104.416325,-370.102971,8956.491898,0.000000
104.416635,7846.182985,8734.430116,-6894.859482
104.416944,5921.647536,8660.409521,3140.991542
104.417254,-6883.915261,5847.626942,19688.654299
104.417564,-7772.162391,9918.759623,22216.769442
104.417874,3775.050304,11177.109724,4519.963438
104.418183,4959.379811,9400.615463,-7124.688131
104.418493,-3256.906145,11695.253884,1455.581446
104.418803,-8808.450710,13471.748144,4136.915689
104.419113,3775.050304,14804.118840,-8273.831378
104.419422,8512.368333,14211.954086,-3983.696590
104.419732,-3923.091493,9326.594869,19535.435199
104.420042,-7698.141797,6661.853478,28192.314326
104.420352,1110.308913,-3256.906145,8580.269578
104.420661,-4589.276840,1554.432478,-5515.887586
104.420971,2664.741391,9696.697840,1532.190996
104.421281,-13619.789333,1480.411884,2145.067394
104.421591,12731.542202,16210.510130,-6971.469032
104.421900,3108.864956,4959.379811,-536.266849
104.422210,-6587.832884,8808.450710,17160.539155
104.422520,-7624.121203,3775.050304,27732.657028
104.422830,2072.576638,4737.318029,4826.401637
104.423139,4145.153275,9770.718434,-11644.651570
104.423449,-1184.329507,13989.892304,-7354.516781
104.423759,3923.091493,13619.789333,-6971.469032
104.424069,444.123565,11917.315666,-2528.115143
104.424378,-518.144159,16358.551318,10725.336972
104.424688,-5625.565159,10214.842000,18309.682402
104.424998,-4293.194464,8808.450710,5898.935335
104.425308,-3701.029710,11547.212695,4366.744339
104.425617,5995.668130,11991.336260,-8273.831378
104.425927,12361.439231,11843.295072,-20531.359346
104.426237,-2368.659014,11177.109724,-1838.629195
104.426547,-3034.844362,16506.592507,21603.893044
104.426856,5625.565159,11769.274478,7201.297681
104.427166,2590.720797,7698.141797,-4519.963438
104.427476,-11251.130318,9844.739029,15398.519510
104.427786,2886.803174,8734.430116,5132.839837
104.428095,11547.212695,4515.256246,-22063.550342
104.428405,-444.123565,5995.668130,-4903.011187
104.428715,-4441.235652,7624.121203,21757.112143
104.429025,2516.700203,6069.688724,4979.620737
104.429334,2368.659014,7105.977043,-2987.772442
104.429644,-2590.720797,8808.450710,9499.584175
104.429954,1702.473667,8808.450710,5669.106685
104.430264,666.185348,3923.091493,-6818.249932
104.430573,-3775.050304,10436.903782,4519.963438
104.430883,-4071.132681,9178.553681,9039.926876
104.431193,-518.144159,7994.224174,-6741.640382
104.431503,-370.102971,13767.830521,-7584.345430
104.431812,-5033.400406,20207.622217,2528.115143
104.432122,-1702.473667,15618.345376,459.657299
104.432432,1332.370696,10955.047942,-6281.983084
104.432742,-2886.803174,11473.192101,2834.553343
104.433051,-5329.482782,7846.182985,3524.039291
104.433361,4219.173869,5551.544565,-10725.336972
104.433671,3775.050304,10214.842000,-7354.516781
104.433981,-5329.482782,12657.521608,8963.317327
104.434290,-1480.411884,9252.574275,5056.230287
104.434600,3108.864956,9400.615463,-3524.039291
104.434910,-4441.235652,7402.059420,-3294.210641
104.435220,-2960.823768,2590.720797,-9039.926876
104.435529,3552.988522,7402.059420,-10572.117872
104.435839,370.102971,9548.656652,-4213.525239
104.436149,-2146.597232,9474.636058,3217.601092
104.436459,814.226536,11843.295072,10801.946522
104.436768,814.226536,7476.080014,5132.839837
104.437078,2812.782580,1850.514855,-9269.755526
104.437388,5477.523971,6217.729913,-6894.859482
104.437698,1258.350101,8068.244768,-1915.238745
104.438007,3330.926739,8512.368333,-3600.648841
104.438317,4663.297435,12287.418637,3677.258390
104.438627,-5181.441594,11029.068536,7814.174080
104.438937,74.020594,8512.368333,-7354.516781
104.439246,8660.409521,8068.244768,-12257.527968
104.439556,1480.411884,10436.903782,-4213.525239
104.439866,296.082377,11991.336260,1225.752797
104.440176,7031.956449,9548.656652,689.485948
104.440485,666.185348,9474.636058,3447.429741
104.440795,-2368.659014,6809.894666,1762.019645
104.441105,1924.535449,6439.791695,-3907.087040
104.441415,222.061783,12287.418637,-2374.896044
104.441724,888.247130,13545.768739,-4749.792088
104.442034,1628.453072,14582.057057,-6894.859482
104.442344,-7254.018232,14211.954086,0.000000
104.442654,-5107.421000,8956.491898,-4673.182538
104.442963,3108.864956,7031.956449,-15934.786358
104.443273,-1702.473667,10362.883188,-11491.432470
104.443583,-5995.668130,9622.677246,7737.564530
104.443893,1332.370696,9326.594869,2681.334243
104.444202,-518.144159,6291.750507,1149.143247
104.444512,-4441.235652,2590.720797,2528.115143
104.444822,-222.061783,3849.070898,-4979.620737
104.445132,2368.659014,7772.162391,-6971.469032
104.445441,-2146.597232,8734.430116,1915.238745
104.445751,-1924.535449,11251.130318,5286.058936
104.446061,296.082377,10955.047942,2604.724693
104.446371,-5773.606348,7476.080014,-995.924147
104.446680,-888.247130,9030.512492,-8810.098227
104.446990,6217.729913,10288.862594,-13176.842566
104.447300,-2812.782580,10140.821405,0.000000
104.447610,-3923.091493,10881.027347,13100.233016
104.447919,5625.565159,8586.388927,9729.412825
104.448229,3182.885551,7328.038826,3753.867940
104.448539,666.185348,5033.400406,3294.210641
104.448849,2072.576638,7105.977043,2374.896044
104.449158,-0.000000,11251.130318,-1685.410096
104.449468,2072.576638,11251.130318,-383.047749
104.449778,-0.000000,12731.542202,3677.258390
104.450088,-5477.523971,12435.459826,2145.067394
104.450397,-2960.823768,9104.533087,-10955.165621
104.450707,814.226536,11769.274478,-10265.679673
104.451017,-1702.473667,14804.118840,919.314598
104.451326,-444.123565,13397.727550,1991.848295
104.451635,3330.926739,12583.501014,919.314598
104.451945,2960.823768,9474.636058,1532.190996
104.452254,962.267725,7031.956449,-919.314598
104.452563,962.267725,7846.182985,-6511.811733
104.452873,-666.185348,9400.615463,1838.629195
104.453182,-1702.473667,9178.553681,76.609550
104.453492,592.164754,7105.977043,-4826.401637
104.453801,-3849.070898,9178.553681,-842.705048
104.454110,-3404.947333,4737.318029,-6665.030833
104.454420,2368.659014,5181.441594,-14862.252661
104.454729,-0.000000,9326.594869,536.266849
104.455039,-4219.173869,7772.162391,8350.440928
104.455348,3627.009116,9178.553681,3140.991542
104.455657,4737.318029,8290.306550,3753.867940
104.455967,-2072.576638,6513.812290,3830.477490
104.456276,3256.906145,4663.297435,-2757.943793
104.456586,4367.215058,9770.718434,-3447.429741
104.456895,-1850.514855,11473.192101,919.314598
104.457204,1110.308913,11325.150913,2451.505594
104.457514,-1258.350101,13545.768739,2374.896044
104.457823,-3701.029710,11843.295072,-4443.353888
104.458133,1850.514855,11621.233289,-12104.308868
104.458442,2960.823768,8586.388927,-7660.954980
104.458751,-2294.638420,11251.130318,5132.839837
104.459061,3034.844362,11843.295072,10725.336972
104.459370,3627.009116,8734.430116,5209.449386
104.459680,740.205942,9178.553681,3140.991542
104.459989,-0.000000,8808.450710,-842.705048
104.460298,518.144159,9326.594869,-1378.971896
104.460608,592.164754,11325.150913,-612.876398
104.460917,-148.041188,12435.459826,-4903.011187
104.461227,-4959.379811,11991.336260,-306.438199
104.461536,-4515.256246,10732.986159,-3217.601092
104.461845,-1406.391290,7328.038826,-17237.148705
104.462155,-740.205942,8290.306550,-10189.070123
104.462464,-3701.029710,9548.656652,5592.497135
104.462773,-1628.453072,5847.626942,2451.505594
104.463083,4441.235652,5847.626942,459.657299
104.463392,-592.164754,6439.791695,7737.564530
104.463702,-3034.844362,1850.514855,0.000000
104.464011,5921.647536,7476.080014,-6052.154434
104.464320,592.164754,12213.398043,-2451.505594
104.464630,740.205942,11029.068536,-1302.362347
104.464939,962.267725,9622.677246,1302.362347
104.465249,-3256.906145,11769.274478,1762.019645
104.465558,-1776.494261,10584.944971,-7737.564530
104.465867,4219.173869,10807.006753,-13330.061665
104.466177,-888.247130,10288.862594,-5056.230287
104.466486,-592.164754,10732.986159,3830.477490
104.466796,8068.244768,10214.842000,2528.115143
104.467105,4515.256246,11843.295072,7431.126331
104.467414,-2368.659014,6883.915261,8273.831378
104.467724,3404.947333,9030.512492,76.609550
104.468033,4145.153275,8290.306550,-459.657299
104.468343,814.226536,9030.512492,-1378.971896
104.468652,-2072.576638,12065.356855,-995.924147
104.468961,-5255.462188,12435.459826,459.657299
104.469271,-3404.947333,12435.459826,-5592.497135
104.469580,222.061783,10140.821405,-14785.643111
104.469890,-3701.029710,13249.686362,-5056.230287
104.470199,-6883.915261,12287.418637,4673.182538
104.470508,1998.556043,7550.100608,-3677.258390
104.470818,2368.659014,9844.739029,1072.533697
104.471127,-2886.803174,6439.791695,9269.755526
104.471437,-814.226536,3997.112087,1455.581446
104.471746,1554.432478,6069.688724,-1072.533697
104.472055,-666.185348,7031.956449,3370.820191
104.472365,-1776.494261,6883.915261,-1149.143247
104.472674,-1924.535449,8142.265362,-612.876398
104.472984,-4737.318029,11621.233289,-3524.039291
104.473293,-1998.556043,9252.574275,-9116.536426
104.473602,296.082377,11103.089130,-11338.213370
104.473912,-4663.297435,12287.418637,-612.876398
104.474221,1184.329507,10881.027347,-995.924147
104.474530,6809.894666,11843.295072,0.000000
104.474840,1628.453072,10362.883188,7737.564530
104.475149,-148.041188,6957.935855,7277.907231
104.475459,7846.182985,8142.265362,536.266849
104.475768,6291.750507,9030.512492,-2604.724693
104.476077,3034.844362,7254.018232,-766.095498
104.476387,-2368.659014,9326.594869,4903.011187
104.476696,-2368.659014,14137.933492,2528.115143
104.477006,296.082377,10807.006753,-13636.499864
104.477315,3034.844362,7846.182985,-15628.348159
104.477624,-5773.606348,12139.377449,-5975.544884
104.477934,-1332.370696,11621.233289,-1455.581446
104.478243,3849.070898,11991.336260,-2451.505594
104.478553,2294.638420,10362.883188,6435.202183
104.478862,-1406.391290,6217.729913,5745.716235
104.479171,1258.350101,5329.482782,-612.876398
104.479481,2886.803174,7402.059420,1915.238745
104.479790,-1110.308913,8734.430116,-1302.362347
104.480100,-222.061783,11399.171507,-5898.935335
104.480409,-6587.832884,13101.645173,-1225.752797
104.480718,-3923.091493,9030.512492,-9193.145976
104.481028,-2812.782580,9252.574275,-17773.415554
104.481337,-4071.132681,8586.388927,-7431.126331
104.481647,-3849.070898,7254.018232,-689.485948
104.481956,-370.102971,5995.668130,-2068.457845
104.482265,2960.823768,9326.594869,3217.601092
104.482575,-518.144159,7254.018232,6435.202183
104.482884,3034.844362,4219.173869,-536.266849
104.483194,4293.194464,6587.832884,2145.067394
104.483503,1036.288319,9178.553681,842.705048
104.483812,1406.391290,11177.109724,-1455.581446
104.484122,-1998.556043,12657.521608,536.266849
104.484431,-1998.556043,11325.150913,-4673.182538
104.484740,-962.267725,11325.150913,-17543.586904
104.485050,1924.535449,10881.027347,-11644.651570
104.485359,-2886.803174,10362.883188,0.000000
104.485669,1184.329507,11917.315666,766.095498
104.485978,4737.318029,9178.553681,5745.716235
104.486287,-1110.308913,11399.171507,7814.174080
104.486597,3034.844362,6365.771101,842.705048
104.486906,5329.482782,9030.512492,-1762.019645
104.487216,1554.432478,12509.480420,1608.800546
104.487525,4811.338623,7031.956449,612.876398
104.487834,-4441.235652,8512.368333,3370.820191
104.488144,-6365.771101,13693.809927,5592.497135
104.488453,-1628.453072,8364.327145,-11797.870669
104.488763,-1184.329507,9030.512492,-16088.005458
104.489072,-5847.626942,11103.089130,-2298.286494
104.489381,-2368.659014,10066.800811,-4290.134789
104.489691,1036.288319,9252.574275,-3064.381992
104.490000,-2072.576638,9030.512492,8580.269578
104.490310,-2220.617826,4589.276840,3524.039291
104.490619,2886.803174,6439.791695,-2834.553343
104.490928,3330.926739,7402.059420,1225.752797
104.491238,-444.123565,7179.997637,-995.924147
104.491547,-1036.288319,11251.130318,766.095498
104.491857,-1702.473667,13545.768739,5515.887586
104.492166,-296.082377,9770.718434,-11797.870669
104.492475,-222.061783,11917.315666,-17696.806004
104.492785,-3701.029710,12435.459826,-2911.162892
104.493094,-1036.288319,12139.377449,-1991.848295
104.493404,6365.771101,11843.295072,-7507.735880
104.493713,962.267725,10584.944971,7048.078582
104.494022,-1110.308913,7402.059420,9116.536426
104.494332,5329.482782,5181.441594,-3370.820191
104.494641,7476.080014,6957.935855,0.000000
104.494951,3404.947333,12213.398043,2834.553343
104.495260,-2146.597232,6735.874072,2987.772442
104.495569,-888.247130,12287.418637,7354.516781
104.495879,-3034.844362,13027.624579,-1455.581446
104.496188,3478.967927,8956.491898,-14862.252661
104.496497,-2442.679609,10732.986159,-8886.707777
104.496807,-5847.626942,11917.315666,1915.238745
104.497116,3108.864956,11103.089130,-4443.353888
104.497426,1406.391290,8882.471304,919.314598
104.497735,-5699.585753,10362.883188,10035.851024
104.498044,-518.144159,5107.421000,-306.438199
104.498354,5921.647536,6069.688724,-3907.087040
104.498663,-1184.329507,9696.697840,4596.572988
104.498973,-2146.597232,8290.306550,3983.696590
104.499282,-1036.288319,8438.347739,2145.067394
104.499591,-5255.462188,9844.739029,306.438199
104.499901,-2220.617826,10658.965565,-12027.699319
104.500210,-1036.288319,9400.615463,-14325.985813
104.500520,-2072.576638,11843.295072,-3753.867940
104.500829,-2368.659014,12435.459826,-3524.039291
104.501138,148.041188,10807.006753,-2221.676944
104.501448,-1850.514855,10214.842000,4903.011187
104.501757,-370.102971,6587.832884,-2298.286494
104.502067,4811.338623,6809.894666,-3983.696590
104.502376,2294.638420,9474.636058,4903.011187
104.502685,592.164754,9474.636058,4519.963438
104.502995,3478.967927,10732.986159,2374.896044
104.503304,-740.205942,11029.068536,4979.620737
104.503614,-1406.391290,9030.512492,-10189.070123
104.503923,1480.411884,9326.594869,-12870.404366
104.504232,-1850.514855,10881.027347,-2451.505594
104.504542,-1776.494261,11769.274478,-689.485948
104.504851,2146.597232,9844.739029,-1149.143247
104.505161,148.041188,7179.997637,5669.106685
104.505470,-2886.803174,8364.327145,536.266849
104.505779,4885.359217,7179.997637,-5822.325785
104.506089,4959.379811,7179.997637,153.219100
104.506398,-0.000000,8882.471304,4749.792088
104.506707,-518.144159,8364.327145,4366.744339
104.507017,-2368.659014,9104.533087,6128.763984
104.507326,-2294.638420,7476.080014,-3217.601092
104.507636,-1480.411884,9474.636058,-14325.985813
104.507945,-2590.720797,11621.233289,-7048.078582
104.508254,-3330.926739,11991.336260,-3830.477490
104.508564,-888.247130,11473.192101,-7354.516781
104.508873,-1702.473667,10658.965565,3907.087040
104.509183,-2368.659014,6883.915261,4136.915689
104.509492,1110.308913,6587.832884,-7584.345430
104.509801,4071.132681,8512.368333,0.000000
104.510111,-740.205942,10214.842000,6281.983084
104.510420,3849.070898,9400.615463,-2987.772442
104.510730,-74.020594,10362.883188,1072.533697
104.511039,-2220.617826,9178.553681,2221.676944
104.511348,370.102971,8364.327145,-12563.966167
104.511658,888.247130,11177.109724,-11951.089769
104.511967,-3330.926739,10658.965565,2221.676944
104.512277,-0.000000,10584.944971,-3524.039291
104.512586,2146.597232,9992.780217,-3140.991542
104.512895,-370.102971,9548.656652,5745.716235
104.513205,-592.164754,5995.668130,612.876398
104.513514,6365.771101,8216.285956,-4443.353888
104.513824,1554.432478,11325.150913,5209.449386
104.514133,-444.123565,10436.903782,3753.867940
104.514442,3849.070898,9474.636058,0.000000
104.514752,-1406.391290,7550.100608,2681.334243
104.515061,-2590.720797,8586.388927,-5362.668486
104.515371,-592.164754,8438.347739,-6818.249932
104.515680,-222.061783,9030.512492,-1838.629195
104.515989,-1998.556043,8438.347739,-3524.039291
104.516299,444.123565,9030.512492,1072.533697
104.516608,962.267725,10066.800811,6435.202183
104.516918,-3478.967927,6069.688724,-3524.039291
104.517227,2886.803174,8734.430116,-5822.325785
104.517536,-888.247130,10881.027347,3753.867940
104.517846,-814.226536,8956.491898,1302.362347
104.518155,2812.782580,14211.954086,-4979.620737
104.518464,-3330.926739,14359.995275,2834.553343
104.518774,-2368.659014,10807.006753,-2757.943793
104.519083,-148.041188,10658.965565,-13866.328514
104.519393,-814.226536,11177.109724,-5209.449386
104.519702,-2220.617826,10288.862594,2068.457845
104.520011,1776.494261,9696.697840,-5132.839837
104.520321,148.041188,7254.018232,1685.410096
104.520630,-3182.885551,7772.162391,4366.744339
104.520940,2368.659014,6513.812290,-4903.011187
104.521249,4885.359217,8068.244768,-2757.943793
104.521558,296.082377,12287.418637,1455.581446
104.521868,2368.659014,11843.295072,3064.381992
104.522177,2368.659014,10362.883188,1378.971896
104.522487,-7031.956449,11695.253884,0.000000
104.522796,-1924.535449,8438.347739,-7124.688131
104.523105,4589.276840,10955.047942,-7354.516781
104.523415,814.226536,10140.821405,-5822.325785
104.523724,296.082377,7254.018232,-1225.752797
104.524034,-814.226536,8290.306550,9346.365076
104.524343,-0.000000,7402.059420,5286.058936
104.524652,3182.885551,5033.400406,-9422.974625
104.524962,1998.556043,6587.832884,-1455.581446
104.525271,-1554.432478,7402.059420,4749.792088
104.525581,444.123565,9548.656652,-2528.115143
104.525890,2220.617826,12435.459826,76.609550
104.526199,-4293.194464,8956.491898,1685.410096
104.526509,-2886.803174,9548.656652,-5209.449386
104.526818,1184.329507,9622.677246,-8120.612279
104.527128,-1480.411884,11917.315666,-1762.019645
104.527437,-666.185348,12435.459826,-1762.019645
104.527746,1110.308913,9400.615463,-995.924147
104.528056,-444.123565,8364.327145,4596.572988
104.528365,-1776.494261,7772.162391,-2528.115143
104.528674,2590.720797,7031.956449,-6281.983084
104.528984,-3256.906145,9696.697840,6435.202183
104.529293,-0.000000,8660.409521,536.266849
104.529603,2146.597232,10658.965565,-3524.039291
104.529912,-518.144159,11399.171507,1762.019645
104.530221,-4367.215058,9770.718434,-2451.505594
104.530531,-962.267725,9326.594869,-10725.336972
104.530840,4663.297435,9474.636058,-7048.078582
104.531150,-0.000000,10732.986159,-3524.039291
104.531459,-0.000000,11177.109724,2987.772442
104.531768,-444.123565,11103.089130,11031.775171
104.532078,740.205942,6957.935855,-536.266849
104.532387,3775.050304,5033.400406,-8273.831378
104.532697,2072.576638,7698.141797,-689.485948
104.533006,-0.000000,9030.512492,-229.828649
104.533315,1628.453072,11103.089130,-1149.143247
104.533625,-0.000000,9992.780217,5975.544884
104.533934,-3849.070898,10436.903782,1838.629195
104.534244,-0.000000,7476.080014,-10265.679673
104.534553,2590.720797,9696.697840,-6205.373534
104.534862,-2812.782580,8956.491898,1991.848295
104.535172,2516.700203,11177.109724,-383.047749
104.535481,4219.173869,10658.965565,3600.648841
104.535791,-1702.473667,7402.059420,5822.325785
104.536100,-4737.318029,9474.636058,229.828649
104.536409,1184.329507,10140.821405,-2145.067394
104.536719,1332.370696,9548.656652,-766.095498
104.537028,1332.370696,11843.295072,-4366.744339
104.537338,-1998.556043,12731.542202,1685.410096
104.537647,-5625.565159,12953.603985,1072.533697
104.537956,-1998.556043,10807.006753,-10572.117872
104.538266,2072.576638,10214.842000,-9729.412825
104.538575,-1036.288319,10881.027347,689.485948
104.538884,-370.102971,10140.821405,-2757.943793
104.539194,1998.556043,9104.533087,4060.306139
104.539503,1480.411884,8142.265362,7048.078582
104.539813,-3775.050304,3775.050304,-2145.067394
104.540122,-74.020594,7105.977043,-4903.011187
104.540431,148.041188,10658.965565,-1532.190996
104.540741,3108.864956,11695.253884,-6358.592633
104.541050,-74.020594,11991.336260,-689.485948
104.541360,-6143.709319,9770.718434,8886.707777
104.541669,-3256.906145,7920.203579,-4673.182538
104.541978,1850.514855,9326.594869,-13330.061665
104.542288,2368.659014,9400.615463,-2451.505594
104.542597,-1628.453072,9992.780217,2757.943793
104.542907,3330.926739,11917.315666,2757.943793
104.543216,962.267725,5255.462188,8963.317327
104.543525,-888.247130,5995.668130,2068.457845
104.543835,962.267725,6513.812290,-2221.676944
104.544144,3256.906145,7846.182985,3064.381992
104.544454,-0.000000,9770.718434,-459.657299
104.544763,1776.494261,9030.512492,-3524.039291
104.545072,296.082377,10584.944971,6358.592633
104.545382,-2664.741391,11769.274478,-1608.800546
104.545691,-2442.679609,11177.109724,-13176.842566
104.546001,1702.473667,12509.480420,-7967.393179
104.546310,-2294.638420,11917.315666,306.438199
104.546619,1332.370696,11917.315666,-995.924147
104.546929,3552.988522,11399.171507,5439.278036
104.547238,-1628.453072,7846.182985,7507.735880
104.547548,-1184.329507,6365.771101,-4519.963438
104.547857,1332.370696,4441.235652,536.266849
104.548166,1184.329507,9104.533087,766.095498
104.548476,-814.226536,10732.986159,-4903.011187
104.548785,-518.144159,13323.706956,0.000000
104.549095,-3627.009116,10658.965565,-2834.553343
104.549404,-1998.556043,8290.306550,-15628.348159
104.549713,3478.967927,10658.965565,-11184.994271
104.550010,-2812.782580,9770.718434,2528.115143
104.550320,-814.226536,7920.203579,6358.592633
104.550629,6513.812290,8068.244768,6818.249932
104.550938,2442.679609,6809.894666,7048.078582
104.551248,-0.000000,4959.379811,-612.876398
104.551557,3701.029710,8956.491898,-3600.648841
104.551867,2516.700203,8808.450710,-1991.848295
104.552176,-888.247130,11103.089130,-4136.915689
104.552485,1480.411884,13101.645173,-2681.334243
104.552795,-3701.029710,11473.192101,2451.505594
104.553104,-1554.432478,11103.089130,-7507.735880
104.553414,444.123565,7105.977043,-10495.508323
104.553723,2442.679609,8068.244768,766.095498
104.554032,-2220.617826,8068.244768,5592.497135
104.554342,1850.514855,8142.265362,3983.696590
104.554651,3627.009116,8956.491898,7814.174080
104.554961,-1332.370696,6217.729913,2528.115143
104.555270,-1110.308913,8216.285956,-2681.334243
104.555580,370.102971,9474.636058,1915.238745
104.555889,-740.205942,11251.130318,-3447.429741
104.556198,370.102971,12805.562797,-8733.488677
104.556508,-4737.318029,12805.562797,842.705048
104.556817,-6735.874072,12213.398043,-4060.306139
104.557127,1258.350101,8142.265362,-15934.786358
104.557436,1924.535449,10140.821405,-6588.421283
104.557745,-4737.318029,8290.306550,6588.421283
104.558055,-1998.556043,8660.409521,4213.525239
104.558364,7031.956449,5477.523971,3677.258390
104.558674,-518.144159,5329.482782,1915.238745
104.558983,-1480.411884,5403.503377,-3217.601092
104.559292,2294.638420,8068.244768,-766.095498
104.559602,2220.617826,12583.501014,-2451.505594
104.559911,-148.041188,12805.562797,-5592.497135
104.560221,-2072.576638,10881.027347,766.095498
104.560530,-5255.462188,13249.686362,-2911.162892
104.560839,-1628.453072,11251.130318,-14402.595362
104.561149,4219.173869,11621.233289,-9806.022374
104.561458,-1258.350101,10955.047942,2451.505594
104.561768,-1554.432478,11547.212695,1455.581446
104.562077,7624.121203,6957.935855,1302.362347
104.562386,666.185348,5403.503377,5975.544884
104.562696,-1406.391290,4515.256246,5056.230287
104.563005,2368.659014,6217.729913,2681.334243
104.563315,4071.132681,6957.935855,1455.581446
104.563624,-1776.494261,10066.800811,0.000000
104.563933,-148.041188,11029.068536,766.095498
104.564243,-3923.091493,11029.068536,-383.047749
104.564552,-1998.556043,13323.706956,-11568.042020
104.564862,814.226536,12139.377449,-13559.890315
104.565171,-3923.091493,14508.036463,-995.924147
104.565481,-3849.070898,11991.336260,612.876398
104.565790,4515.256246,11621.233289,-1532.190996
104.566099,1480.411884,8438.347739,6971.469032
104.566409,-4071.132681,6143.709319,7048.078582
104.566718,2146.597232,5995.668130,1608.800546
104.567028,3552.988522,5329.482782,766.095498
104.567337,592.164754,6365.771101,-2451.505594
104.567646,-1480.411884,9992.780217,-1838.629195
104.567956,-3775.050304,10732.986159,3140.991542
104.568265,-2146.597232,10510.924376,-8886.707777
104.568575,592.164754,12805.562797,-18922.558801
104.568884,-518.144159,10732.986159,-6741.640382
104.569193,-3330.926739,11843.295072,1225.752797
104.569503,3849.070898,11843.295072,-2451.505594
104.569812,6217.729913,9400.615463,4290.134789
104.570122,-1850.514855,8586.388927,8503.660028
104.570431,-1184.329507,6069.688724,1838.629195
104.570740,4959.379811,7031.956449,689.485948
104.571050,2590.720797,10362.883188,-1149.143247
104.571359,-740.205942,9252.574275,-3983.696590
104.571669,-1776.494261,9696.697840,2604.724693
104.571978,-3997.112087,10807.006753,-1149.143247
104.572287,-74.020594,11917.315666,-16241.224558
104.572597,1776.494261,8068.244768,-10342.289223
104.572906,-4441.235652,11029.068536,2604.724693
104.573216,-1332.370696,7920.203579,995.924147
104.573525,7772.162391,8512.368333,689.485948
104.573834,-0.000000,6143.709319,8120.612279
104.574144,-5699.585753,3627.009116,7584.345430
104.574453,6217.729913,5551.544565,4290.134789
104.574763,3627.009116,7698.141797,-689.485948
104.575072,-2368.659014,11621.233289,-3447.429741
104.575382,-2368.659014,11843.295072,1685.410096
104.575691,-4071.132681,13027.624579,-3447.429741
104.576000,-1406.391290,11991.336260,-19918.482948
104.576310,-1110.308913,11325.150913,-13559.890315
104.576619,-4071.132681,11251.130318,-306.438199
104.576929,-2516.700203,11251.130318,-1302.362347
104.577238,4663.297435,9400.615463,612.876398
104.577547,888.247130,9770.718434,9039.926876
104.577857,-2146.597232,5329.482782,4749.792088
104.578166,3701.029710,4589.276840,459.657299
104.578476,5625.565159,7105.977043,1915.238745
104.578785,296.082377,9622.677246,-4060.306139
104.579094,-740.205942,12213.398043,-1149.143247
104.579404,-3182.885551,12879.583391,5132.839837
104.579713,-2368.659014,11621.233289,-10801.946522
104.580023,-0.000000,10955.047942,-18922.558801
104.580332,-3701.029710,12435.459826,-2145.067394
104.580641,-2664.741391,8882.471304,153.219100
104.580951,6365.771101,10584.944971,-5822.325785
104.581260,2072.576638,9622.677246,5209.449386
104.581570,-3849.070898,6069.688724,10955.165621
104.581879,370.102971,4737.318029,536.266849
104.582188,7328.038826,4959.379811,-766.095498
104.582498,-74.020594,7402.059420,1149.143247
104.582807,-2960.823768,9474.636058,3217.601092
104.583117,-74.020594,9252.574275,1532.190996
104.583426,-3256.906145,11325.150913,-5362.668486
104.583735,-2738.761985,11473.192101,-13330.061665
104.584045,-888.247130,9770.718434,-7201.297681
104.584354,-3923.091493,11621.233289,-3140.991542
104.584664,1332.370696,12139.377449,-2604.724693
104.584973,3627.009116,10214.842000,4519.963438
104.585283,-1850.514855,10362.883188,7048.078582
104.585592,-1776.494261,7772.162391,842.705048
104.585901,6661.853478,7994.224174,-995.924147
104.586211,3256.906145,9770.718434,-1762.019645
104.586520,-2812.782580,11177.109724,-1302.362347
104.586830,-148.041188,10732.986159,6588.421283
104.587139,-3330.926739,11103.089130,1072.533697
104.587448,-4811.338623,10658.965565,-14862.252661
104.587758,888.247130,8808.450710,-13866.328514
104.588067,-4441.235652,11251.130318,-1762.019645
104.588377,-1406.391290,10584.944971,-3447.429741
104.588686,4145.153275,10658.965565,-612.876398
104.588995,2368.659014,11843.295072,6128.763984
104.589305,-2812.782580,6365.771101,995.924147
104.589614,2886.803174,7402.059420,-536.266849
104.589924,4737.318029,9474.636058,1685.410096
104.590233,-0.000000,9844.739029,-4290.134789
104.590542,1480.411884,9474.636058,3983.696590
104.590852,-2590.720797,9696.697840,6435.202183
104.591161,-4441.235652,9400.615463,-8963.317327
104.591471,1554.432478,10066.800811,-15092.081311
104.591780,2220.617826,10658.965565,0.000000
104.592089,-3404.947333,10658.965565,-2911.162892
104.592399,2146.597232,9030.512492,-536.266849
104.592708,296.082377,6587.832884,6358.592633
104.593018,-3404.947333,7254.018232,2911.162892
104.593327,740.205942,7772.162391,459.657299
104.593636,4589.276840,7920.203579,2604.724693
104.593946,1258.350101,11695.253884,-1149.143247
104.594255,1332.370696,11177.109724,-306.438199
104.594565,-1332.370696,13101.645173,5822.325785
104.594874,-4441.235652,10288.862594,-4443.353888
104.595184,444.123565,10584.944971,-17007.320056
104.595493,-0.000000,10510.924376,-6741.640382
104.595802,-4811.338623,12139.377449,-383.047749
104.596112,592.164754,13323.706956,-7967.393179
104.596421,4293.194464,9770.718434,-842.705048
104.596731,-4589.276840,7698.141797,2221.676944
104.597040,-1702.473667,5921.647536,-766.095498
104.597349,7402.059420,7624.121203,2681.334243
104.597659,1554.432478,8956.491898,0.000000
104.597968,-888.247130,10288.862594,2604.724693
104.598278,222.061783,11473.192101,4903.011187
104.598587,-1924.535449,9992.780217,-3830.477490
104.598896,-2516.700203,12435.459826,-8810.098227
104.599206,740.205942,11621.233289,-8197.221829
104.599515,-2590.720797,9918.759623,-3983.696590
104.599825,148.041188,11029.068536,-4749.792088
104.600134,1850.514855,10140.821405,306.438199
104.600443,-444.123565,5255.462188,2145.067394
104.600753,-1480.411884,6735.874072,-1149.143247
104.601062,6217.729913,5181.441594,612.876398
104.601372,2146.597232,7772.162391,3294.210641
104.601681,-0.000000,7920.203579,4903.011187
104.601990,888.247130,9474.636058,4213.525239
104.602300,-1628.453072,9622.677246,1225.752797
104.602609,-2886.803174,12509.480420,-9346.365076
104.602919,1924.535449,8734.430116,-10035.851024
104.603228,888.247130,11769.274478,-5975.544884
104.603537,-4589.276840,12361.439231,-4366.744339
104.603847,2664.741391,8882.471304,-1608.800546
104.604156,-74.020594,10436.903782,3447.429741
104.604466,-3478.967927,7179.997637,0.000000
104.604775,4515.256246,6143.709319,-2374.896044
104.605085,4737.318029,8586.388927,1532.190996
104.605394,-1332.370696,7105.977043,1762.019645
104.605703,-148.041188,10584.944971,3907.087040
104.606013,-592.164754,10066.800811,5362.668486
104.606322,-2664.741391,8586.388927,-8350.440928
104.606632,888.247130,13101.645173,-12563.966167
104.606941,-148.041188,9696.697840,-6358.592633
104.607250,-3923.091493,10436.903782,-4213.525239
104.607560,444.123565,12583.501014,-3447.429741
104.607869,3923.091493,8438.347739,2374.896044
104.608179,-1554.432478,6957.935855,842.705048
104.608488,962.267725,6957.935855,-1991.848295
104.608797,5255.462188,7179.997637,2451.505594
104.609107,-0.000000,9030.512492,2911.162892
104.609416,1332.370696,11029.068536,536.266849
104.609726,2072.576638,10066.800811,2757.943793
104.610035,-2664.741391,11029.068536,-3830.477490
104.610344,-2590.720797,11695.253884,-8580.269578
104.610654,2072.576638,9770.718434,-5362.668486
104.610963,-1406.391290,11843.295072,-2911.162892
104.611273,-814.226536,9252.574275,-2298.286494
104.611582,3256.906145,8660.409521,3830.477490
104.611891,-3330.926739,7254.018232,5592.497135
104.612201,-814.226536,6661.853478,-1762.019645
104.612510,4885.359217,7328.038826,-1149.143247
104.612820,444.123565,9918.759623,1532.190996
104.613129,-1776.494261,10288.862594,-1455.581446
104.613438,1480.411884,11695.253884,229.828649
104.613748,-3923.091493,11473.192101,-842.705048
104.614057,-4737.318029,10510.924376,-8273.831378
104.614367,1554.432478,11029.068536,-7890.783629
104.614676,296.082377,10362.883188,-2221.676944
104.614986,-1332.370696,10436.903782,-4979.620737
104.615295,2146.597232,8586.388927,383.047749
104.615604,-296.082377,6069.688724,5898.935335
104.615914,-3701.029710,6587.832884,-2451.505594
104.616223,2442.679609,7624.121203,-3370.820191
104.616533,4145.153275,8734.430116,-536.266849
104.616842,-2072.576638,10955.047942,-2528.115143
104.617151,370.102971,10955.047942,153.219100
104.617461,2368.659014,12953.603985,536.266849
104.617770,-3182.885551,11769.274478,-5975.544884
104.618080,666.185348,11399.171507,-9422.974625
104.618389,148.041188,9400.615463,-3600.648841
104.618698,-2664.741391,9326.594869,-3830.477490
104.619008,518.144159,10510.924376,-1455.581446
104.619317,4219.173869,7772.162391,5286.058936
104.619627,-3849.070898,8364.327145,3907.087040
104.619936,222.061783,7105.977043,229.828649
104.620245,4219.173869,5107.421000,2298.286494
104.620555,-666.185348,8364.327145,-2145.067394
104.620864,1332.370696,11843.295072,-1685.410096
104.621174,-740.205942,10214.842000,4213.525239
104.621483,-2664.741391,11029.068536,-1762.019645
104.621792,-3997.112087,14211.954086,-11184.994271
104.622102,1776.494261,9474.636058,-4903.011187
104.622411,-2738.761985,9992.780217,-919.314598
104.622721,-740.205942,12583.501014,-2221.676944
104.623030,5329.482782,9474.636058,2298.286494
104.623339,-2664.741391,8512.368333,2681.334243
104.623649,-1036.288319,8956.491898,-1072.533697
104.623958,3775.050304,6143.709319,-536.266849
104.624268,-74.020594,8438.347739,-612.876398
104.624577,-2664.741391,10288.862594,-1225.752797
104.624887,2146.597232,10510.924376,1838.629195
104.625196,-2960.823768,11325.150913,-1149.143247
104.625505,-2812.782580,11473.192101,-6205.373534
104.625815,4367.215058,8882.471304,-8580.269578
104.626124,-4145.153275,10436.903782,-6052.154434
104.626434,-666.185348,11177.109724,-1225.752797
104.626743,4885.359217,9400.615463,2987.772442
104.627052,-0.000000,10510.924376,3064.381992
104.627362,-1628.453072,7624.121203,536.266849
104.627671,2294.638420,6735.874072,842.705048
104.627981,3849.070898,8290.306550,-1991.848295
104.628290,-1036.288319,10881.027347,-5132.839837
104.628599,2368.659014,9252.574275,1149.143247
104.628909,-1628.453072,11547.212695,3217.601092
104.629218,-4145.153275,10807.006753,-4903.011187
104.629528,2146.597232,10436.903782,-8963.317327
104.629837,1036.288319,8882.471304,-4749.792088
104.630146,-962.267725,7550.100608,-689.485948
104.630456,888.247130,7994.224174,3907.087040
104.630765,740.205942,7105.977043,7354.516781
104.631075,-2294.638420,6291.750507,2604.724693
104.631384,1332.370696,8586.388927,0.000000
104.631693,1924.535449,7254.018232,-229.828649
104.632003,-296.082377,11029.068536,-3600.648841
104.632312,2072.576638,14285.974681,-3140.991542
104.632622,-1036.288319,12509.480420,919.314598
104.632931,-5625.565159,12435.459826,-2757.943793
104.633240,-1554.432478,13619.789333,-10342.289223
104.633550,2738.761985,8068.244768,-9346.365076
104.633859,888.247130,9770.718434,-2911.162892
104.634169,-1036.288319,9844.739029,3447.429741
104.634478,4515.256246,5403.503377,10035.851024
104.634788,222.061783,5995.668130,3447.429741
104.635097,-3182.885551,5921.647536,76.609550
104.635406,3108.864956,5625.565159,536.266849
104.635716,962.267725,8586.388927,-5898.935335
104.636025,-2294.638420,12287.418637,-5592.497135
104.636335,1998.556043,12805.562797,842.705048
104.636644,-5921.647536,12213.398043,-1838.629195
104.636953,-1924.535449,13101.645173,-11184.994271
104.637263,4515.256246,9918.759623,-10265.679673
104.637572,-814.226536,7031.956449,-3753.867940
104.637882,-888.247130,10066.800811,3907.087040
104.638191,5329.482782,7105.977043,8503.660028
104.638500,2590.720797,6143.709319,4366.744339
104.638810,-4885.359217,5033.400406,153.219100
104.639119,-148.041188,4737.318029,3907.087040
104.639429,2220.617826,7846.182985,-1149.143247
104.639738,222.061783,10140.821405,-6511.811733
104.640047,1998.556043,12953.603985,0.000000
104.640357,-3552.988522,10955.047942,2681.334243
104.640666,-3775.050304,12213.398043,-7584.345430
104.640976,1554.432478,11991.336260,-8963.317327
104.641285,1184.329507,9474.636058,-2451.505594
104.641594,-2960.823768,9622.677246,1685.410096
104.641904,4737.318029,9844.739029,5362.668486
104.642213,3997.112087,8660.409521,5056.230287
104.642523,-2368.659014,6587.832884,306.438199
104.642832,-1036.288319,5181.441594,2987.772442
104.643142,2812.782580,6365.771101,5056.230287
104.643451,814.226536,9622.677246,-6205.373534
104.643760,1702.473667,11029.068536,-1608.800546
104.644070,-5625.565159,10807.006753,4596.572988
104.644379,-4145.153275,13989.892304,-7890.783629
104.644689,2368.659014,11325.150913,-17313.758255
104.644998,2368.659014,9696.697840,-8963.317327
104.645307,-4811.338623,10881.027347,3140.991542
104.645617,2960.823768,8882.471304,6052.154434
104.645926,5995.668130,5625.565159,5822.325785
104.646236,-222.061783,7476.080014,3907.087040
104.646545,-592.164754,6291.750507,3140.991542
104.646854,3108.864956,6365.771101,995.924147
104.647164,2442.679609,11769.274478,-5669.106685
104.647473,-370.102971,13397.727550,-7124.688131
104.647783,-1036.288319,11473.192101,1072.533697
104.648092,-4367.215058,11843.295072,-2834.553343
104.648401,-2368.659014,13471.748144,-11491.432470
104.648711,2812.782580,10140.821405,-7431.126331
104.649020,-2294.638420,8586.388927,-229.828649
104.649330,1924.535449,8438.347739,4290.134789
104.649639,4367.215058,6809.894666,8273.831378
104.649948,2368.659014,5921.647536,8273.831378
104.650258,-3478.967927,7402.059420,5975.544884
104.650567,2294.638420,5921.647536,2834.553343
104.650877,740.205942,9696.697840,-306.438199
104.651186,-0.000000,9844.739029,-3753.867940
104.651495,-1480.411884,12213.398043,-2451.505594
104.651805,-4367.215058,12361.439231,-3677.258390
104.652114,-3478.967927,12953.603985,-9882.631924
104.652424,1184.329507,9696.697840,-11184.994271
104.652733,-888.247130,10066.800811,-2528.115143
104.653042,-2664.741391,9400.615463,4443.353888
104.653352,3182.885551,9104.533087,4290.134789
104.653661,4737.318029,4737.318029,3907.087040
104.653971,-1998.556043,5255.462188,2298.286494
104.654280,814.226536,6661.853478,2834.553343
104.654589,3182.885551,5181.441594,-1072.533697
104.654899,2442.679609,8512.368333,-5745.716235
104.655208,-2146.597232,13471.748144,-3064.381992
104.655517,-1554.432478,10955.047942,-459.657299
104.655827,-3256.906145,11251.130318,-10189.070123
104.656136,-0.000000,9696.697840,-14632.424012
104.656446,-962.267725,9992.780217,-4826.401637
104.656755,-370.102971,9770.718434,-536.266849
104.657064,3404.947333,8808.450710,-153.219100
104.657374,2220.617826,6513.812290,8120.612279
104.657683,2516.700203,6957.935855,6281.983084
104.657992,1702.473667,4885.359217,2451.505594
104.658302,4515.256246,7698.141797,3907.087040
104.658611,-0.000000,10066.800811,1991.848295
104.658921,-2442.679609,12139.377449,766.095498
104.659230,814.226536,11917.315666,76.609550
104.659539,-3997.112087,13915.871710,-7048.078582
104.659849,-3627.009116,13027.624579,-11568.042020
104.660158,-0.000000,11621.233289,-7354.516781
104.660468,-2368.659014,10436.903782,-3370.820191
104.660777,962.267725,9548.656652,-1149.143247
104.661086,3256.906145,8660.409521,6741.640382
104.661396,-666.185348,8586.388927,8580.269578
104.661705,592.164754,6957.935855,2604.724693
104.662014,6587.832884,5995.668130,2451.505594
104.662324,2368.659014,6883.915261,153.219100
104.662633,-1776.494261,7179.997637,-1991.848295
104.662943,-1258.350101,10955.047942,1302.362347
104.663252,-2294.638420,12065.356855,-4519.963438
104.663561,-3923.091493,11547.212695,-13176.842566
104.663871,-666.185348,11399.171507,-10189.070123
104.664180,-1850.514855,11029.068536,-4290.134789
104.664489,148.041188,9474.636058,-8427.050478
104.664799,4071.132681,9474.636058,995.924147
104.665108,2886.803174,10066.800811,6741.640382
104.665418,-1110.308913,7402.059420,3600.648841
104.665727,3701.029710,7772.162391,2757.943793
104.666036,5255.462188,5847.626942,2681.334243
104.666346,370.102971,9548.656652,-1378.971896
104.666655,-1924.535449,11917.315666,612.876398
104.666964,-296.082377,10732.986159,0.000000
104.667274,-2368.659014,9918.759623,-9882.631924
104.667583,-4441.235652,12139.377449,-12563.966167
104.667893,-592.164754,11325.150913,-4519.963438
104.668202,-1480.411884,8586.388927,-4443.353888
104.668511,2146.597232,9474.636058,-842.705048
104.668821,2072.576638,8882.471304,12334.137518
104.669130,-1628.453072,7105.977043,9116.536426
104.669440,1332.370696,5181.441594,4519.963438
104.669749,6661.853478,5551.544565,4749.792088
104.670058,-1702.473667,9844.739029,1072.533697
104.670368,-2072.576638,9104.533087,-459.657299
104.670677,-1406.391290,11029.068536,0.000000
104.670986,-3997.112087,11991.336260,-5822.325785
104.671296,-3849.070898,14063.912898,-14555.814462
104.671605,-1480.411884,8512.368333,-9422.974625
104.671915,-2664.741391,11917.315666,-4213.525239
104.672224,-740.205942,9400.615463,-3447.429741
104.672533,4293.194464,6735.874072,5592.497135
104.672843,370.102971,7031.956449,9269.755526
104.673152,-3108.864956,8142.265362,3370.820191
104.673461,7994.224174,6365.771101,536.266849
104.673771,2664.741391,7994.224174,76.609550
104.674080,-814.226536,12583.501014,-2757.943793
104.674390,962.267725,11695.253884,-612.876398
104.674699,-3108.864956,10658.965565,-2757.943793
104.675008,-4589.276840,13915.871710,-10955.165621
104.675318,-814.226536,10955.047942,-11721.261119
104.675627,592.164754,10732.986159,-8656.879127
104.675936,-3182.885551,9844.739029,-4060.306139
104.676246,4293.194464,9178.553681,3370.820191
104.676555,296.082377,5699.585753,7354.516781
104.676865,-1258.350101,7920.203579,5592.497135
104.677174,3330.926739,7031.956449,3830.477490
104.677483,7105.977043,4071.132681,1455.581446
104.677793,222.061783,9622.677246,-766.095498
104.678102,-2220.617826,9178.553681,5209.449386
104.678412,-888.247130,10584.944971,1838.629195
104.678721,-4293.194464,12583.501014,-9269.755526
104.679030,-2590.720797,10955.047942,-10342.289223
104.679340,-444.123565,10584.944971,-5898.935335
104.679649,-2442.679609,9696.697840,-6435.202183
104.679958,2886.803174,11325.150913,-1915.238745
104.680268,-3404.947333,9178.553681,3370.820191
104.680577,-1998.556043,7476.080014,5822.325785
104.680887,2146.597232,7550.100608,-229.828649
104.681196,5255.462188,8956.491898,-1532.190996
104.681505,1998.556043,7920.203579,-995.924147
104.681815,-370.102971,10732.986159,459.657299
104.682124,-1776.494261,9474.636058,3370.820191
104.682433,-2368.659014,7920.203579,-5132.839837
104.682743,-2368.659014,11769.274478,-13176.842566
104.683052,-0.000000,12435.459826,-8503.660028
104.683362,-2886.803174,10955.047942,-5362.668486
104.683671,2960.823768,9622.677246,-3600.648841
104.683980,2368.659014,8364.327145,2298.286494
104.684290,-2220.617826,10066.800811,4596.572988
104.684599,-592.164754,5403.503377,2451.505594
104.684908,6439.791695,7772.162391,-2221.676944
104.685218,4219.173869,10732.986159,-2987.772442
104.685527,-0.000000,10807.006753,1762.019645
104.685837,-1628.453072,11769.274478,6358.592633
104.686146,-814.226536,7254.018232,-1378.971896
104.686455,-3404.947333,10362.883188,-11261.603821
104.686765,-1258.350101,8808.450710,-8963.317327
104.687074,-370.102971,8512.368333,-4213.525239
104.687384,-2368.659014,11399.171507,-3294.210641
104.687693,2960.823768,9474.636058,1608.800546
104.688002,-2738.761985,6735.874072,5975.544884
104.688312,-3404.947333,9104.533087,3294.210641
104.688621,5329.482782,8586.388927,-1378.971896
104.688930,3701.029710,6439.791695,-1838.629195
104.689240,-0.000000,10510.924376,3830.477490
104.689549,444.123565,11399.171507,7660.954980
104.689859,-1628.453072,8216.285956,2298.286494
104.690168,-5847.626942,8882.471304,-9116.536426
104.690477,-3330.926739,11769.274478,-10035.851024
104.690787,-0.000000,9992.780217,-9346.365076
104.691096,-0.000000,11473.192101,-7967.393179
104.691405,1184.329507,13027.624579,-1455.581446
104.691715,-370.102971,7476.080014,2757.943793
104.692024,-2368.659014,6883.915261,1302.362347
104.692334,2812.782580,6365.771101,0.000000
104.692643,5551.544565,5551.544565,1762.019645
104.692952,1184.329507,7328.038826,1762.019645
104.693262,-0.000000,9252.574275,2374.896044
104.693571,-0.000000,9548.656652,2911.162892
104.693880,-4737.318029,11917.315666,-5286.058936
104.694190,-1258.350101,10658.965565,-10418.898773
104.694499,-518.144159,13397.727550,-10265.679673
104.694809,-1184.329507,12435.459826,-8044.002729
104.695118,1406.391290,12879.583391,-4290.134789
104.695427,592.164754,10214.842000,2374.896044
104.695737,-3627.009116,9622.677246,3447.429741
104.696046,-148.041188,7105.977043,1455.581446
104.696356,6365.771101,6883.915261,-1149.143247
104.696665,1628.453072,7476.080014,2068.457845
104.696974,740.205942,7624.121203,7584.345430
104.697284,1258.350101,8956.491898,5898.935335
104.697593,-2442.679609,9400.615463,-1915.238745
104.697902,-3404.947333,9770.718434,-5898.935335
104.698212,-1184.329507,7698.141797,-5898.935335
104.698521,-1110.308913,11843.295072,-8120.612279
104.698831,-370.102971,10955.047942,-1685.410096
104.699140,2146.597232,13027.624579,-306.438199
104.699449,-2442.679609,11843.295072,995.924147
104.699759,-3775.050304,9622.677246,-229.828649
104.700068,5329.482782,5625.565159,919.314598
104.700377,2516.700203,7624.121203,995.924147
104.700687,-296.082377,8956.491898,2604.724693
104.700996,2886.803174,7846.182985,5975.544884
104.701306,-2072.576638,8586.388927,0.000000
104.701615,-4959.379811,10140.821405,-11338.213370
104.701924,296.082377,9844.739029,-9346.365076
104.702234,370.102971,9918.759623,-9346.365076
104.702543,-296.082377,11991.336260,-7584.345430
104.702853,-0.000000,11103.089130,-1991.848295
104.703162,-1110.308913,7254.018232,4826.401637
104.703471,-1776.494261,8216.285956,995.924147
104.703781,2886.803174,7772.162391,-2068.457845
104.704090,4071.132681,5847.626942,-536.266849
104.704399,-518.144159,9326.594869,3370.820191
104.704709,1850.514855,10288.862594,2911.162892
104.705018,740.205942,9770.718434,-766.095498
104.705328,-4441.235652,12805.562797,-5515.887586
104.705637,-1850.514855,12287.418637,-7124.688131
104.705946,1998.556043,9030.512492,-7967.393179
104.706256,-0.000000,12361.439231,-6588.421283
104.706565,-1554.432478,9400.615463,-229.828649
104.706874,2072.576638,7031.956449,4519.963438
104.707184,-2812.782580,7994.224174,2451.505594
104.707493,-740.205942,5403.503377,2374.896044
104.707803,5403.503377,7402.059420,2528.115143
104.708112,-1184.329507,7254.018232,153.219100
104.708421,1998.556043,9474.636058,0.000000
104.708731,1110.308913,10066.800811,229.828649
104.709040,-3997.112087,11991.336260,-4290.134789
104.709349,-592.164754,14137.933492,-8273.831378
104.709659,-740.205942,11621.233289,-6665.030833
104.709968,-518.144159,10066.800811,-4519.963438
104.710278,-444.123565,9918.759623,-2834.553343
104.710587,1406.391290,8216.285956,3753.867940
104.710896,-2442.679609,7179.997637,4060.306139
104.711206,-1110.308913,7920.203579,-1991.848295
104.711515,5921.647536,8068.244768,-7890.783629
104.711825,-74.020594,4885.359217,-2681.334243
104.712134,296.082377,10066.800811,-612.876398
104.712443,1480.411884,12805.562797,919.314598
104.712753,-740.205942,9030.512492,-612.876398
104.713062,-3849.070898,12731.542202,-919.314598
104.713371,-370.102971,11177.109724,-4519.963438
104.713681,3330.926739,9548.656652,-7737.564530
104.713990,-1332.370696,11547.212695,-4596.572988
104.714300,592.164754,10732.986159,1378.971896
104.714609,814.226536,8882.471304,2528.115143
104.714918,-1258.350101,8660.409521,-2987.772442
104.715228,1406.391290,6069.688724,1455.581446
104.715537,222.061783,7105.977043,2604.724693
104.715846,-1480.411884,7772.162391,-1762.019645
104.716156,3627.009116,8882.471304,0.000000
104.716465,-222.061783,7105.977043,1608.800546
104.716775,-6217.729913,11103.089130,-1378.971896
104.717084,1110.308913,10732.986159,-4979.620737
104.717393,1554.432478,7179.997637,-3600.648841
104.717703,-518.144159,11103.089130,-3064.381992
104.718012,-2368.659014,11029.068536,3064.381992
104.718321,814.226536,9252.574275,3830.477490
104.718631,-2368.659014,9770.718434,-1378.971896
104.718940,962.267725,10214.842000,-5209.449386
104.719250,1702.473667,7179.997637,-1608.800546
104.719559,222.061783,7550.100608,-1838.629195
104.719868,3404.947333,10584.944971,-1991.848295
104.720178,-222.061783,9104.533087,4443.353888
104.720487,-6069.688724,10732.986159,2528.115143
104.720797,-2886.803174,10436.903782,-2757.943793
104.721106,4145.153275,8364.327145,-9882.631924
104.721415,1332.370696,8216.285956,-9729.412825
104.721725,-222.061783,10510.924376,-2068.457845
104.722034,1036.288319,9178.553681,3600.648841
104.722343,-1628.453072,8438.347739,766.095498
104.722653,-444.123565,9104.533087,0.000000
104.722962,1110.308913,8290.306550,-1685.410096
104.723272,666.185348,7846.182985,-3600.648841
104.723581,1406.391290,11177.109724,-2298.286494
104.723890,1332.370696,9844.739029,0.000000
104.724200,-2886.803174,11843.295072,0.000000
104.724509,-2368.659014,11917.315666,-5209.449386
104.724818,3034.844362,10214.842000,-7048.078582
104.725128,1702.473667,8882.471304,-6894.859482
104.725437,-0.000000,9178.553681,0.000000
104.725747,296.082377,9178.553681,7431.126331
104.726056,-1480.411884,8142.265362,3983.696590
104.726365,-0.000000,7031.956449,766.095498
104.726675,1406.391290,8142.265362,-459.657299
104.726984,2960.823768,8290.306550,-3677.258390
104.727293,-370.102971,8364.327145,-4366.744339
104.727603,1776.494261,11399.171507,1608.800546
104.727912,-3404.947333,11473.192101,1378.971896
104.728222,-6513.812290,14952.160028,-3140.991542
104.728531,1258.350101,11325.150913,-6818.249932
104.728840,2368.659014,10436.903782,-11797.870669
104.729150,296.082377,8956.491898,-5745.716235
104.729459,666.185348,6661.853478,5056.230287
104.729769,-222.061783,4367.215058,7814.174080
104.730078,-2294.638420,8660.409521,4290.134789
104.730387,1850.514855,6217.729913,0.000000
104.730697,3330.926739,7105.977043,-2221.676944
104.731006,-888.247130,9400.615463,-5592.497135
104.731315,2886.803174,11177.109724,-2911.162892
104.731625,-2590.720797,9548.656652,3370.820191
104.731934,-5625.565159,13249.686362,-3217.601092
104.732244,-1258.350101,13101.645173,-8044.002729
104.732553,4515.256246,10955.047942,-8656.879127
104.732862,962.267725,11325.150913,-3600.648841
104.733172,-1554.432478,8142.265362,2987.772442
104.733481,962.267725,6513.812290,7584.345430
104.733790,-592.164754,7920.203579,3983.696590
104.734100,-962.267725,7328.038826,0.000000
104.734409,-0.000000,8068.244768,2145.067394
104.734719,2368.659014,9252.574275,-2145.067394
104.735028,518.144159,10807.006753,-1915.238745
104.735337,-1850.514855,10955.047942,4060.306139
104.735647,-5107.421000,12065.356855,76.609550
104.735956,-888.247130,10584.944971,-7431.126331
104.736266,2812.782580,11547.212695,-8580.269578
104.736575,148.041188,10881.027347,-5439.278036
104.736884,-740.205942,9326.594869,76.609550
104.737194,3404.947333,8512.368333,3677.258390
104.737503,-2072.576638,8068.244768,5592.497135
104.737812,-666.185348,8808.450710,2374.896044
104.738122,2664.741391,6735.874072,229.828649
104.738431,1406.391290,5255.462188,-1915.238745
104.738741,962.267725,8216.285956,-4903.011187
104.739050,-962.267725,10658.965565,-2068.457845
104.739359,-5181.441594,9770.718434,-3753.867940
104.739669,-4219.173869,12731.542202,-7124.688131
104.739978,2368.659014,10807.006753,-11644.651570
104.740287,3256.906145,7698.141797,-11644.651570
104.740597,-740.205942,8882.471304,1685.410096
104.740906,1332.370696,7402.059420,9576.193725
104.741216,1332.370696,6735.874072,5822.325785
104.741525,74.020594,9770.718434,2298.286494
104.741834,1480.411884,8216.285956,1532.190996
104.742144,4071.132681,8068.244768,-4519.963438
104.742453,2220.617826,9030.512492,-6818.249932
104.742762,-2516.700203,13545.768739,-2757.943793
104.743072,-6439.791695,13397.727550,-1991.848295
104.743381,-2812.782580,12953.603985,-5362.668486
104.743691,-2220.617826,12583.501014,-8656.879127
104.744000,4441.235652,7624.121203,-6511.811733
104.744309,-444.123565,7254.018232,-1378.971896
104.744619,1554.432478,6957.935855,6128.763984
104.744928,1702.473667,7105.977043,9039.926876
104.745238,-0.000000,8142.265362,5669.106685
104.745547,148.041188,9474.636058,1762.019645
104.745856,4589.276840,10288.862594,-1685.410096
104.746166,1628.453072,9770.718434,-5745.716235
104.746475,-2442.679609,12139.377449,-2451.505594
104.746784,-1702.473667,11103.089130,1072.533697
104.747094,-5033.400406,12583.501014,-5898.935335
104.747403,-3256.906145,11399.171507,-9959.241474
104.747713,3330.926739,9770.718434,-6818.249932
104.748022,1184.329507,8364.327145,-4596.572988
104.748331,444.123565,9474.636058,536.266849
104.748641,2960.823768,6365.771101,5822.325785
104.748950,-0.000000,5847.626942,6741.640382
104.749259,-666.185348,8512.368333,2068.457845
104.749569,5255.462188,6143.709319,0.000000
104.749878,1850.514855,7031.956449,-4443.353888
104.750188,1776.494261,8290.306550,-4213.525239
104.750497,-666.185348,11843.295072,-1149.143247
104.750806,-5107.421000,12287.418637,-2834.553343
104.751116,-3923.091493,15544.324782,-8963.317327
104.751425,4293.194464,14508.036463,-10878.556072
104.751735,1036.288319,9474.636058,-7124.688131
104.752044,-2664.741391,8290.306550,1378.971896
104.752354,3034.844362,8882.471304,6205.373534
104.752663,2738.761985,7031.956449,5515.887586
104.752973,-2442.679609,8142.265362,8273.831378
104.753282,2368.659014,5995.668130,5592.497135
104.753592,4885.359217,6513.812290,-459.657299
104.753901,-0.000000,8660.409521,-3600.648841
104.754211,-1480.411884,9474.636058,536.266849
104.754520,-4441.235652,9474.636058,2604.724693
104.754830,-5625.565159,13249.686362,-4673.182538
104.755139,-222.061783,13989.892304,-8886.707777
104.755449,1184.329507,10214.842000,-6894.859482
104.755758,-1332.370696,11843.295072,-2298.286494
104.756068,-0.000000,10807.006753,1685.410096
104.756377,4145.153275,8216.285956,4213.525239
104.756687,-518.144159,9178.553681,3753.867940
104.756996,-888.247130,8216.285956,4903.011187
104.757306,5625.565159,3552.988522,3830.477490
104.757615,2368.659014,4959.379811,-2221.676944
104.757925,-1110.308913,8068.244768,-229.828649
104.758234,-3849.070898,7402.059420,2834.553343
104.758544,-4663.297435,11251.130318,-4749.792088
104.758854,-2072.576638,12213.398043,-10112.460574
104.759163,1850.514855,11251.130318,-12257.527968
104.759473,-1702.473667,10658.965565,-6741.640382
104.759782,-962.267725,10658.965565,383.047749
104.760092,6143.709319,9696.697840,2298.286494
104.760401,666.185348,7179.997637,3447.429741
104.760711,-1110.308913,9030.512492,6741.640382
104.761020,5921.647536,6809.894666,3753.867940
104.761330,3256.906145,6735.874072,-4213.525239
104.761639,-2368.659014,9918.759623,2298.286494
104.761949,-814.226536,11325.150913,3447.429741
104.762258,-4737.318029,10658.965565,-3753.867940
104.762568,-2738.761985,14656.077652,-9882.631924
104.762877,-666.185348,11399.171507,-9806.022374
104.763187,444.123565,9918.759623,-7890.783629
104.763496,-666.185348,7476.080014,-3983.696590
104.763806,2368.659014,8216.285956,5132.839837
104.764115,296.082377,7550.100608,9039.926876
104.764425,-740.205942,7476.080014,10265.679673
104.764734,2664.741391,5995.668130,6358.592633
104.765044,2368.659014,6069.688724,2451.505594
104.765353,2664.741391,8956.491898,-2145.067394
104.765663,-1480.411884,11621.233289,-2298.286494
104.765972,-3923.091493,12583.501014,-3753.867940
104.766282,-5847.626942,12805.562797,-7660.954980
104.766591,2368.659014,12879.583391,-14632.424012
104.766901,444.123565,9178.553681,-11797.870669
104.767210,-4071.132681,8660.409521,-76.609550
104.767520,1924.535449,6957.935855,4290.134789
104.767829,2738.761985,6587.832884,5592.497135
104.768139,-592.164754,7328.038826,6665.030833
104.768448,2072.576638,6883.915261,5362.668486
104.768758,8068.244768,5625.565159,153.219100
104.769067,1628.453072,7328.038826,-4826.401637
104.769377,-1406.391290,11103.089130,1378.971896
104.769686,-1924.535449,11251.130318,612.876398
104.769996,-5329.482782,13471.748144,-8273.831378
104.770305,-2220.617826,13619.789333,-10418.898773
104.770615,-0.000000,11621.233289,-11108.384721
104.770924,666.185348,9400.615463,-10342.289223
104.771234,-1554.432478,8882.471304,689.485948
104.771543,2442.679609,8512.368333,11874.480219
104.771853,518.144159,5773.606348,6205.373534
104.772162,1036.288319,8660.409521,4749.792088
104.772472,4737.318029,8586.388927,3983.696590
104.772781,4219.173869,4515.256246,76.609550
104.773091,-740.205942,8216.285956,1455.581446
104.773400,-3404.947333,11547.212695,5669.106685
104.773710,-3404.947333,12361.439231,-1991.848295
104.774019,-3256.906145,12435.459826,-9576.193725
104.774329,-888.247130,11843.295072,-11951.089769
104.774638,-666.185348,11399.171507,-9729.412825
104.774948,-888.247130,12435.459826,-5209.449386
104.775257,-1036.288319,11843.295072,5132.839837
104.775567,-518.144159,8438.347739,8656.879127
104.775876,-296.082377,6143.709319,2068.457845
104.776186,4737.318029,5847.626942,2528.115143
104.776495,5033.400406,4589.276840,536.266849
104.776805,1480.411884,4293.194464,689.485948
104.777114,-1924.535449,10140.821405,5822.325785
104.777424,-2812.782580,10807.006753,2145.067394
104.777733,-3552.988522,11843.295072,-9193.145976
104.778043,1480.411884,12805.562797,-15934.786358
104.778352,-814.226536,9918.759623,-10495.508323
104.778662,-3108.864956,8734.430116,-766.095498
104.778971,-0.000000,11251.130318,-1455.581446
104.779281,2368.659014,8956.491898,3907.087040
104.779590,-2812.782580,10510.924376,5439.278036
104.779900,3849.070898,6439.791695,1532.190996
104.780209,8438.347739,5033.400406,-5132.839837
104.780519,1480.411884,9030.512492,-383.047749
104.780828,-370.102971,10140.821405,5286.058936
104.781138,-2960.823768,9548.656652,2987.772442
104.781447,-3923.091493,10955.047942,-4596.572988
104.781757,-666.185348,11843.295072,-10878.556072
104.782066,1406.391290,10140.821405,-13253.452115
104.782376,-1628.453072,9696.697840,-7584.345430
104.782686,-2072.576638,9992.780217,3064.381992
104.782995,444.123565,9104.533087,5822.325785
104.783305,-962.267725,8438.347739,2757.943793
104.783614,1110.308913,9696.697840,3524.039291
104.783924,6217.729913,6809.894666,1378.971896
104.784233,4219.173869,7031.956449,-3370.820191
104.784543,-2738.761985,13323.706956,2987.772442
104.784852,-2294.638420,10214.842000,6052.154434
104.785162,-3775.050304,11695.253884,-2451.505594
104.785471,-1332.370696,14285.974681,-9959.241474
104.785781,814.226536,10732.986159,-8810.098227
104.786090,-888.247130,7402.059420,-7890.783629
104.786400,-1628.453072,8142.265362,-3217.601092
104.786709,296.082377,7031.956449,2757.943793
104.787019,-2368.659014,8068.244768,2681.334243
104.787328,-296.082377,9104.533087,2911.162892
104.787638,5847.626942,7105.977043,-1378.971896
104.787947,4959.379811,7179.997637,-2757.943793
104.788257,814.226536,8438.347739,2068.457845
104.788566,-1036.288319,9844.739029,5822.325785
104.788876,-3330.926739,10658.965565,995.924147
104.789185,-3478.967927,13545.768739,-6511.811733
104.789495,2516.700203,12361.439231,-12027.699319
104.789804,296.082377,9030.512492,-12257.527968
104.790114,-3552.988522,11251.130318,-5362.668486
104.790423,-740.205942,11621.233289,2298.286494
104.790733,518.144159,8808.450710,1072.533697
104.791042,-1480.411884,10510.924376,1378.971896
104.791352,3775.050304,7105.977043,2221.676944
104.791661,7328.038826,5477.523971,-2221.676944
104.791971,962.267725,6587.832884,2221.676944
104.792280,-296.082377,7550.100608,9806.022374
104.792590,-3404.947333,8290.306550,5362.668486
104.792899,-740.205942,13249.686362,-4596.572988
104.793209,-0.000000,11177.109724,-7967.393179
104.793518,-1406.391290,12287.418637,-9346.365076
104.793828,-592.164754,12139.377449,-6971.469032
104.794137,-370.102971,12139.377449,-766.095498
104.794447,-1924.535449,12435.459826,-1991.848295
104.794756,-2516.700203,9252.574275,0.000000
104.795066,-74.020594,8808.450710,2298.286494
104.795375,6957.935855,5033.400406,306.438199
104.795685,3701.029710,4885.359217,-2451.505594
104.795994,-2812.782580,8956.491898,5669.106685
104.796304,-1776.494261,8364.327145,9882.631924
104.796613,-2368.659014,10066.800811,-3140.991542
104.796923,814.226536,13249.686362,-12947.013916
104.797232,-0.000000,11621.233289,-9576.193725
104.797542,-2738.761985,8586.388927,-7507.735880
104.797851,666.185348,9696.697840,-3294.210641
104.798161,222.061783,10510.924376,2221.676944
104.798470,-1998.556043,7105.977043,2987.772442
104.798780,-4441.235652,7920.203579,1378.971896
104.799089,5033.400406,7105.977043,-1302.362347
104.799399,2368.659014,6883.915261,-2757.943793
104.799708,-0.000000,11621.233289,1915.238745
104.800018,296.082377,12287.418637,5975.544884
104.800327,-0.000000,11029.068536,-2757.943793
104.800637,-3256.906145,13989.892304,-5975.544884
104.800946,1776.494261,11029.068536,-6205.373534
104.801256,1110.308913,7402.059420,-6665.030833
104.801565,-3108.864956,8586.388927,-1608.800546
104.801875,-1406.391290,10732.986159,4519.963438
104.802184,1850.514855,5477.523971,919.314598
104.802494,-1702.473667,9178.553681,-1762.019645
104.802803,1628.453072,7550.100608,1762.019645
104.803113,1628.453072,7402.059420,-306.438199
104.803422,370.102971,9474.636058,0.000000
104.803732,-1332.370696,12287.418637,4979.620737
104.804041,-2368.659014,11029.068536,0.000000
104.804351,-5255.462188,12213.398043,-3677.258390
104.804660,1924.535449,12509.480420,-7890.783629
104.804970,962.267725,7550.100608,-8963.317327
104.805279,-2442.679609,8660.409521,-5286.058936
104.805589,-296.082377,6957.935855,3064.381992
104.805898,-2220.617826,7254.018232,4596.572988
104.806208,-1110.308913,6513.812290,-229.828649
104.806517,962.267725,7031.956449,689.485948
104.806827,4219.173869,4737.318029,-995.924147
104.807137,1776.494261,7402.059420,-4673.182538
104.807446,-666.185348,9252.574275,-1378.971896
104.807756,-592.164754,10362.883188,1455.581446
104.808065,-3552.988522,12583.501014,-4290.134789
104.808375,-814.226536,13841.851115,-7431.126331
104.808684,2886.803174,10288.862594,-5056.230287
104.808994,-222.061783,11473.192101,-4979.620737
104.809303,222.061783,11991.336260,-1532.190996
104.809613,814.226536,9844.739029,3217.601092
104.809922,-1628.453072,9326.594869,1685.410096
104.810232,-148.041188,9918.759623,-842.705048
104.810541,4737.318029,7105.977043,-536.266849
104.810851,1036.288319,6883.915261,-1915.238745
104.811160,518.144159,9918.759623,612.876398
104.811470,1184.329507,9252.574275,3447.429741
104.811779,-4959.379811,8364.327145,229.828649
104.812089,-3552.988522,12657.521608,-1685.410096
104.812398,3404.947333,11029.068536,-6971.469032
104.812708,444.123565,8512.368333,-7507.735880
104.813017,-1110.308913,11695.253884,-842.705048
104.813327,-592.164754,11843.295072,2528.115143
104.813636,-0.000000,9326.594869,842.705048
104.813946,-3034.844362,10140.821405,2145.067394
104.814255,3627.009116,7179.997637,-153.219100
104.814565,3552.988522,2886.803174,-5286.058936
104.814874,-592.164754,7550.100608,0.000000
104.815184,-1036.288319,6809.894666,3830.477490
104.815493,-2072.576638,8142.265362,-919.314598
104.815803,-2220.617826,12509.480420,-3907.087040
104.816112,1998.556043,12065.356855,-5209.449386
104.816422,2886.803174,9400.615463,-10189.070123
104.816731,-148.041188,9696.697840,-4673.182538
104.817041,-1258.350101,9918.759623,3600.648841
104.817350,1850.514855,11103.089130,153.219100
104.817660,-1554.432478,8142.265362,1225.752797
104.817969,-222.061783,9770.718434,2681.334243
104.818279,6883.915261,8512.368333,-4903.011187
104.818588,-962.267725,8808.450710,-6128.763984
104.818898,-2146.597232,12361.439231,4443.353888
104.819207,-2738.761985,12657.521608,2757.943793
104.819517,-1554.432478,11917.315666,-6818.249932
104.819826,-1702.473667,12065.356855,-6052.154434
104.820136,2738.761985,8956.491898,-5898.935335
104.820445,1702.473667,5329.482782,-5898.935335
104.820755,-2146.597232,6587.832884,5669.106685
104.821064,-370.102971,6661.853478,12257.527968
104.821374,-518.144159,8216.285956,2528.115143
104.821683,2368.659014,8956.491898,-612.876398
104.821993,1628.453072,9474.636058,153.219100
104.822302,1628.453072,9326.594869,-5669.106685
104.822612,-1480.411884,11621.233289,-3140.991542
104.822921,-3997.112087,14211.954086,3907.087040
104.823231,-4589.276840,11177.109724,-1838.629195
104.823540,-2146.597232,11991.336260,-7507.735880
104.823850,2590.720797,10362.883188,-7660.954980
104.824159,2294.638420,7772.162391,-5745.716235
104.824469,-1184.329507,7624.121203,-1685.410096
104.824778,-888.247130,7031.956449,7277.907231
104.825088,-1628.453072,6809.894666,7048.078582
104.825397,962.267725,8068.244768,-536.266849
104.825707,4737.318029,6143.709319,-4519.963438
104.826016,3997.112087,5329.482782,-5132.839837
104.826326,-1776.494261,7920.203579,-2145.067394
104.826635,-1628.453072,10510.924376,2068.457845
104.826945,-3478.967927,10658.965565,0.000000
104.827254,-3478.967927,15026.180623,-6358.592633
104.827564,1036.288319,14730.098246,-9806.022374
104.827873,2294.638420,10955.047942,-9269.755526
104.828183,814.226536,11251.130318,-5286.058936
104.828492,1406.391290,10584.944971,3600.648841
104.828802,-592.164754,5329.482782,8044.002729
104.829111,-1702.473667,7698.141797,6741.640382
104.829421,3997.112087,6587.832884,1455.581446
104.829730,3775.050304,3478.967927,-1915.238745
104.830040,-2516.700203,7402.059420,3064.381992
104.830349,-2146.597232,10584.944971,2834.553343
104.830659,-1776.494261,11843.295072,-2604.724693
104.830969,-3256.906145,15544.324782,-7584.345430
104.831278,-1850.514855,15840.407159,-8886.707777
104.831588,3478.967927,9252.574275,-9576.193725
104.831897,592.164754,10140.821405,-2911.162892
104.832207,148.041188,8734.430116,5209.449386
104.832516,-0.000000,6735.874072,8656.879127
104.832826,-0.000000,6957.935855,7431.126331
104.833135,1480.411884,5625.565159,2987.772442
104.833445,3627.009116,6735.874072,-2987.772442
104.833754,1036.288319,7994.224174,-4673.182538
104.834064,-2442.679609,10510.924376,459.657299
104.834373,-3997.112087,12361.439231,76.609550
104.834683,-4071.132681,12287.418637,-7967.393179
104.834992,-1924.535449,13619.789333,-10572.117872
104.835302,3701.029710,10066.800811,-9959.241474
104.835611,1628.453072,6291.750507,-5822.325785
104.835921,-518.144159,9844.739029,2834.553343
104.836230,296.082377,6809.894666,10955.165621
104.836540,2072.576638,7476.080014,6741.640382
104.836849,592.164754,9400.615463,2757.943793
104.837159,1258.350101,9548.656652,76.609550
104.837468,2738.761985,7550.100608,-5132.839837
104.837778,-1110.308913,11177.109724,-4136.915689
104.838087,-4367.215058,14285.974681,306.438199
104.838397,-3627.009116,10955.047942,-4596.572988
104.838706,-1258.350101,13767.830521,-12257.527968
104.839016,222.061783,9252.574275,-6588.421283
104.839325,2812.782580,7698.141797,-5898.935335
104.839635,592.164754,6809.894666,0.000000
104.839944,1332.370696,7105.977043,10265.679673
104.840254,1480.411884,8068.244768,9806.022374
104.840563,1110.308913,9474.636058,4596.572988
104.840873,3627.009116,7402.059420,3524.039291
104.841182,2664.741391,7994.224174,-1685.410096
104.841492,-2072.576638,9622.677246,-2451.505594
104.841801,-3552.988522,12509.480420,0.000000
104.842111,-5921.647536,13841.851115,-3524.039291
104.842420,-1776.494261,16210.510130,-10495.508323
104.842730,888.247130,14359.995275,-11338.213370
104.843039,444.123565,11177.109724,-6971.469032
104.843349,444.123565,7254.018232,-1762.019645
104.843658,1702.473667,8068.244768,4443.353888
104.843968,592.164754,5181.441594,8810.098227
104.844277,518.144159,2960.823768,4443.353888
104.844587,3108.864956,2368.659014,2451.505594
104.844896,4367.215058,5921.647536,-1762.019645
104.845206,-666.185348,7328.038826,-2757.943793
104.845515,-2516.700203,11843.295072,-536.266849
104.845825,-1184.329507,13101.645173,-5515.887586
104.846134,-3775.050304,14285.974681,-9806.022374
104.846444,-3775.050304,15174.221811,-10035.851024
104.846753,3108.864956,12435.459826,-9959.241474
104.847063,-74.020594,9622.677246,-5898.935335
104.847372,-1036.288319,11325.150913,2451.505594
104.847682,2590.720797,7920.203579,6818.249932
104.847991,1776.494261,6883.915261,4903.011187
104.848301,814.226536,8512.368333,7277.907231
104.848610,6883.915261,5921.647536,2374.896044
104.848920,4737.318029,5625.565159,-3830.477490
104.849229,-3404.947333,10214.842000,1072.533697
104.849539,-3182.885551,11399.171507,3830.477490
104.849848,-4441.235652,9326.594869,-5056.230287
104.850158,-2590.720797,16506.592507,-5898.935335
104.850467,1332.370696,13027.624579,-8044.002729
104.850777,-0.000000,10066.800811,-9116.536426
104.851086,-1258.350101,11621.233289,-2911.162892
104.851396,-0.000000,9696.697840,2298.286494
104.851705,444.123565,7698.141797,5592.497135
104.852015,222.061783,7550.100608,6741.640382
104.852324,4293.194464,7920.203579,4903.011187
104.852634,5921.647536,4737.318029,-1838.629195
104.852943,2960.823768,5551.544565,766.095498
104.853253,-4515.256246,10658.965565,5056.230287
104.853562,-3997.112087,10362.883188,-3830.477490
104.853872,-2516.700203,12139.377449,-12487.356617
104.854181,444.123565,13989.892304,-10572.117872
104.854491,1184.329507,9474.636058,-10418.898773
104.854800,-1924.535449,9104.533087,-7660.954980
104.855110,-0.000000,8734.430116,3447.429741
104.855419,1258.350101,7031.956449,7201.297681
104.855729,1406.391290,7772.162391,5745.716235
104.856038,3701.029710,9326.594869,7048.078582
104.856348,6587.832884,5995.668130,0.000000
104.856657,2590.720797,8068.244768,-2681.334243
104.856967,-2368.659014,10510.924376,4290.134789
104.857276,-2886.803174,15470.304188,0.000000
104.857586,-3256.906145,15026.180623,-9116.536426
104.857895,-1628.453072,12583.501014,-9882.631924
104.858205,-444.123565,11843.295072,-9116.536426
104.858514,-0.000000,10881.027347,-9269.755526
104.858824,-2220.617826,10214.842000,0.000000
104.859133,592.164754,9252.574275,7124.688131
104.859443,-518.144159,7105.977043,7201.297681
104.859752,1702.473667,6069.688724,9193.145976
104.860062,5181.441594,5107.421000,4749.792088
104.860371,3775.050304,3997.112087,0.000000
104.860681,-1184.329507,8956.491898,3370.820191
104.860990,-4441.235652,12213.398043,2451.505594
104.861300,-4367.215058,11843.295072,-6588.421283
104.861609,-3701.029710,13767.830521,-9806.022374
104.861919,-814.226536,12731.542202,-14019.547613
104.862228,148.041188,9770.718434,-13023.623466
104.862538,-1406.391290,8586.388927,-2681.334243
104.862847,1702.473667,7476.080014,2451.505594
104.863157,518.144159,3034.844362,8733.488677
104.863466,-0.000000,4515.256246,10189.070123
104.863776,4663.297435,4219.173869,5056.230287
104.864085,7550.100608,4219.173869,-3140.991542
104.864395,-0.000000,8882.471304,-1685.410096
104.864704,-74.020594,11843.295072,689.485948
104.865014,-4441.235652,15174.221811,-6128.763984
104.865323,-5329.482782,13915.871710,-9729.412825
104.865633,-666.185348,16654.633695,-9193.145976
104.865942,2368.659014,11769.274478,-12487.356617
104.866252,1110.308913,9844.739029,-7354.516781
104.866561,-2294.638420,10214.842000,3983.696590
104.866871,222.061783,5033.400406,6894.859482
104.867180,1554.432478,7920.203579,5592.497135
104.867490,4071.132681,7624.121203,4903.011187
104.867799,5477.523971,4885.359217,-1762.019645
104.868109,2072.576638,4737.318029,842.705048
104.868418,-1924.535449,11769.274478,6358.592633
104.868728,-3775.050304,11843.295072,-612.876398
104.869037,-4441.235652,12139.377449,-5286.058936
104.869347,-1998.556043,12139.377449,-8350.440928
104.869656,-296.082377,10881.027347,-11644.651570
104.869966,-1258.350101,11843.295072,-9806.022374
104.870275,-2738.761985,11991.336260,-459.657299
104.870584,-1406.391290,11325.150913,4519.963438
104.870894,-0.000000,9548.656652,5822.325785
104.871203,2368.659014,7920.203579,3600.648841
104.871513,6069.688724,3775.050304,-7507.735880
104.871822,2812.782580,3478.967927,0.000000
104.872132,-1036.288319,5995.668130,5439.278036
104.872441,-2886.803174,8438.347739,4290.134789
104.872751,-2590.720797,9030.512492,-3447.429741
104.873060,-4663.297435,15618.345376,-11031.775171
104.873370,-296.082377,13027.624579,-14096.157163
104.873679,2146.597232,8438.347739,-14709.033562
104.873989,-3034.844362,10955.047942,-5132.839837
104.874298,-962.267725,10732.986159,5745.716235
104.874608,814.226536,6661.853478,4903.011187
104.874917,2294.638420,8882.471304,3370.820191
104.875227,5107.421000,7476.080014,1455.581446
104.875536,5773.606348,4515.256246,1532.190996
104.875846,-0.000000,9548.656652,5132.839837
104.876155,-2146.597232,12435.459826,4749.792088
104.876465,-3330.926739,10658.965565,-766.095498
104.876774,-3923.091493,12731.542202,-7507.735880
104.877084,888.247130,13915.871710,-11721.261119
104.877393,1776.494261,10214.842000,-12104.308868
104.877703,-3923.091493,9474.636058,-4290.134789
104.878012,-1628.453072,9548.656652,4290.134789
104.878322,-1924.535449,8438.347739,7354.516781
104.878631,-3478.967927,10658.965565,4519.963438
104.878941,5477.523971,8068.244768,1072.533697
104.879250,4959.379811,6809.894666,-995.924147
104.879560,1036.288319,4959.379811,2757.943793
104.879869,-1554.432478,9030.512492,6205.373534
104.880179,-2072.576638,8364.327145,3064.381992
104.880488,-5625.565159,12805.562797,-3217.601092
104.880798,-0.000000,12139.377449,-8656.879127
104.881107,1776.494261,9548.656652,-13100.233016
104.881417,-3034.844362,10288.862594,-12027.699319
104.881726,-3034.844362,11251.130318,0.000000
104.882036,-296.082377,8734.430116,1455.581446
104.882345,-1406.391290,7179.997637,1608.800546
104.882655,2960.823768,8956.491898,1608.800546
104.882964,6069.688724,2146.597232,0.000000
104.883274,3404.947333,2738.761985,2068.457845
104.883583,-2664.741391,8290.306550,9193.145976
104.883893,-74.020594,11029.068536,4903.011187
104.884202,-1850.514855,12805.562797,-5056.230287
104.884512,-1480.411884,15692.365970,-7967.393179
104.884821,2368.659014,13175.665768,-12640.575717
104.885131,-74.020594,10288.862594,-15475.129060
104.885440,-2738.761985,11251.130318,-3140.991542
104.885750,-2368.659014,9992.780217,7124.688131
104.886059,-370.102971,8290.306550,1455.581446
104.886369,2072.576638,7698.141797,2528.115143
104.886678,4885.359217,5773.606348,3370.820191
104.886988,4219.173869,4293.194464,1455.581446
104.887297,1258.350101,5107.421000,4903.011187
104.887607,-1258.350101,11177.109724,6741.640382
104.887916,-4219.173869,10436.903782,-1072.533697
104.888226,-1184.329507,14952.160028,-6665.030833
104.888535,2072.576638,12435.459826,-8273.831378
104.888845,296.082377,9474.636058,-13176.842566
104.889154,-3404.947333,11843.295072,-3217.601092
104.889463,-2812.782580,9104.533087,4060.306139
104.889773,-2590.720797,9696.697840,2451.505594
104.890082,-888.247130,8512.368333,459.657299
104.890392,6069.688724,7031.956449,-1685.410096
104.890701,4737.318029,4885.359217,-919.314598
104.891011,-1406.391290,6069.688724,4826.401637
104.891320,-2590.720797,9548.656652,5362.668486
104.891630,1776.494261,8512.368333,1149.143247
104.891939,-4441.235652,10732.986159,-4060.306139
104.892249,-1924.535449,11547.212695,-6128.763984
104.892558,2146.597232,9696.697840,-13406.671215
104.892868,-962.267725,9770.718434,-10495.508323
104.893177,-1406.391290,12213.398043,1532.190996
104.893487,-1924.535449,9400.615463,2298.286494
104.893796,-814.226536,8734.430116,-766.095498
104.894106,3182.885551,9178.553681,1149.143247
104.894415,3997.112087,5699.585753,612.876398
104.894725,2368.659014,4663.297435,536.266849
104.895034,1184.329507,8882.471304,4519.963438
104.895344,-222.061783,10732.986159,2451.505594
104.895653,-2590.720797,12435.459826,-4290.134789
104.895963,-1184.329507,13323.706956,-5439.278036
104.896272,3627.009116,12509.480420,-10648.727422
104.896582,-0.000000,10362.883188,-10495.508323
104.896891,-3478.967927,9326.594869,1302.362347
104.897201,-3108.864956,7920.203579,10112.460574
104.897510,-1406.391290,8068.244768,919.314598
104.897820,2072.576638,9474.636058,306.438199
104.898129,4737.318029,7179.997637,0.000000
104.898439,2516.700203,6143.709319,-1455.581446
104.898748,-1998.556043,9770.718434,3370.820191
104.899058,-814.226536,10436.903782,4060.306139
104.899367,-3701.029710,10658.965565,-2528.115143
104.899677,-1480.411884,13619.789333,-5286.058936
104.899986,3330.926739,9474.636058,-6588.421283
104.900296,740.205942,8586.388927,-9346.365076
104.900605,-1850.514855,10584.944971,-2221.676944
104.900915,-2368.659014,6365.771101,3677.258390
104.901224,-888.247130,6217.729913,1532.190996
104.901534,-1850.514855,6809.894666,612.876398
104.901843,2664.741391,5847.626942,-612.876398
104.902153,2368.659014,5477.523971,-3524.039291
104.902462,-0.000000,7698.141797,-1455.581446
104.902772,296.082377,9474.636058,1149.143247
104.903081,-3256.906145,10510.924376,0.000000
104.903391,-3701.029710,15248.242405,-1915.238745
104.903700,2886.803174,13693.809927,-6511.811733
104.904010,2146.597232,8956.491898,-9729.412825
104.904319,-1628.453072,5921.647536,-1685.410096
104.904629,-2442.679609,8882.471304,3677.258390
104.904938,296.082377,8290.306550,1915.238745
104.905248,-2442.679609,9326.594869,1685.410096
104.905557,2294.638420,12435.459826,229.828649
104.905867,4737.318029,9030.512492,-5592.497135
104.906176,740.205942,7846.182985,-3370.820191
104.906486,-592.164754,11399.171507,4749.792088
104.906795,-3330.926739,11695.253884,2528.115143
104.907105,444.123565,10807.006753,1838.629195
104.907414,-0.000000,12139.377449,-1838.629195
104.907724,3108.864956,9770.718434,-7584.345430
104.908033,962.267725,9474.636058,-7201.297681
104.908342,-1702.473667,10658.965565,3140.991542
104.908652,-740.205942,12287.418637,2145.067394
104.908961,-1110.308913,9696.697840,-2145.067394
104.909271,-296.082377,11843.295072,-459.657299
104.909580,1998.556043,7624.121203,-1685.410096
104.909890,2072.576638,4811.338623,-6052.154434
104.910199,-1258.350101,7179.997637,0.000000
104.910509,-2072.576638,7994.224174,4366.744339
104.910818,-4959.379811,6069.688724,2681.334243
104.911128,2072.576638,11991.336260,-2528.115143
104.911437,1110.308913,11917.315666,-11031.775171
104.911747,2146.597232,7105.977043,-8733.488677
104.912056,-222.061783,8882.471304,0.000000
104.912366,-1480.411884,8438.347739,1762.019645
104.912675,-1924.535449,9622.677246,919.314598
104.912985,-148.041188,9326.594869,-1455.581446
104.913294,3627.009116,9548.656652,-3140.991542
104.913604,4293.194464,9474.636058,-6205.373534
104.913913,-2220.617826,9622.677246,-1378.971896
104.914223,-1850.514855,11547.212695,2298.286494
104.914532,-2220.617826,11325.150913,153.219100
104.914842,-1480.411884,13175.665768,-4060.306139
104.915151,2294.638420,10214.842000,-5669.106685
104.915461,5625.565159,7920.203579,-7890.783629
104.915770,-5551.544565,7402.059420,-306.438199
104.916080,-518.144159,8438.347739,6971.469032
104.916389,-0.000000,7698.141797,4596.572988
104.916699,-444.123565,10214.842000,1532.190996
104.917008,1850.514855,11029.068536,1762.019645
104.917318,3034.844362,7328.038826,-5209.449386
104.917627,148.041188,8068.244768,-5132.839837
104.917937,-2368.659014,11325.150913,1532.190996
104.918246,-3701.029710,9252.574275,1378.971896
104.918556,-4589.276840,12509.480420,-2528.115143
104.918865,1480.411884,14878.139434,-5898.935335
104.919175,4663.297435,9622.677246,-9806.022374
104.919484,-666.185348,7328.038826,-4060.306139
104.919794,-3404.947333,7920.203579,5975.544884
104.920103,592.164754,6217.729913,4749.792088
104.920413,-1406.391290,5403.503377,1685.410096
104.920722,-1184.329507,8660.409521,2681.334243
104.921032,4959.379811,3256.906145,-3064.381992
104.921341,3330.926739,5033.400406,-9346.365076
104.921651,-2738.761985,13027.624579,229.828649
104.921960,-5403.503377,10362.883188,4749.792088
104.922270,-1998.556043,14137.933492,-2451.505594
104.922579,-74.020594,16136.489536,-9269.755526
104.922889,3923.091493,13915.871710,-11031.775171
104.923198,1110.308913,9622.677246,-8197.221829
104.923508,518.144159,7920.203579,1072.533697
104.923817,2368.659014,9252.574275,7124.688131
104.924127,-1850.514855,7698.141797,6358.592633
104.924436,296.082377,10288.862594,6741.640382
104.924746,3701.029710,6661.853478,1608.800546
104.925055,3478.967927,5477.523971,-5056.230287
104.925365,-518.144159,8142.265362,-1762.019645
104.925674,-3552.988522,12731.542202,-306.438199
104.925984,-5995.668130,11769.274478,-2221.676944
104.926293,-2442.679609,14656.077652,-6281.983084
104.926603,3330.926739,14878.139434,-10112.460574
104.926912,2886.803174,10288.862594,-9882.631924
104.927221,296.082377,8586.388927,3140.991542
104.927531,-1776.494261,8808.450710,8580.269578
104.927840,1480.411884,7105.977043,5439.278036
104.928150,666.185348,5699.585753,4443.353888
104.928459,740.205942,6661.853478,4826.401637
104.928769,4145.153275,5181.441594,-3600.648841
104.929078,444.123565,7328.038826,-4596.572988
104.929388,-3478.967927,11547.212695,1225.752797
104.929697,-7402.059420,11547.212695,-1915.238745
104.930007,-5921.647536,14063.912898,-8886.707777
104.930316,3627.009116,13101.645173,-12334.137518
104.930626,1628.453072,9104.533087,-10572.117872
104.930935,222.061783,8586.388927,-1915.238745
104.931245,-1554.432478,8290.306550,8656.879127
104.931554,2368.659014,9474.636058,5132.839837
104.931864,1110.308913,8586.388927,5362.668486
104.932173,2146.597232,9548.656652,3677.258390
104.932483,4811.338623,7846.182985,-3217.601092
104.932792,740.205942,7402.059420,-8810.098227
104.933102,-3182.885551,11843.295072,-1991.848295
104.933411,-3997.112087,12953.603985,-612.876398
104.933721,-2886.803174,10288.862594,-5439.278036
104.934030,-0.000000,14285.974681,-7354.516781
104.934340,1850.514855,7031.956449,-7354.516781
104.934649,1628.453072,5181.441594,-3294.210641
104.934959,-2368.659014,7550.100608,5592.497135
104.935268,370.102971,9030.512492,8350.440928
104.935578,1998.556043,7031.956449,3140.991542
104.935887,1480.411884,8956.491898,2145.067394
104.936197,2368.659014,8438.347739,0.000000
104.936506,1702.473667,7698.141797,-4826.401637
104.936816,-1702.473667,11547.212695,-919.314598
104.937125,-5625.565159,11547.212695,2604.724693
104.937435,-3923.091493,12065.356855,-3294.210641
104.937744,-888.247130,14285.974681,-9882.631924
104.938054,1406.391290,10214.842000,-10572.117872
104.938363,2368.659014,6513.812290,-6971.469032
104.938673,-2072.576638,5921.647536,-536.266849
104.938982,-814.226536,7105.977043,6435.202183
104.939292,1776.494261,6439.791695,6435.202183
104.939601,1258.350101,6217.729913,4903.011187
104.939911,3997.112087,7402.059420,1532.190996
104.940220,2738.761985,7031.956449,-1762.019645
104.940530,-0.000000,7254.018232,-2604.724693
104.940839,-3478.967927,11547.212695,229.828649
104.941149,-5995.668130,12805.562797,-2681.334243
104.941458,-1480.411884,15470.304188,-10342.289223
104.941768,2812.782580,15322.262999,-12257.527968
104.942077,2146.597232,10658.965565,-12180.918418
104.942387,-3182.885551,9030.512492,-2451.505594
104.942696,962.267725,8586.388927,6665.030833
104.943006,2146.597232,9252.574275,5209.449386
104.943315,2146.597232,6217.729913,5592.497135
104.943625,3478.967927,5477.523971,7354.516781
104.943934,6661.853478,6069.688724,153.219100
104.944244,-1258.350101,6217.729913,-995.924147
104.944553,-4367.215058,11325.150913,4366.744339
104.944863,-4441.235652,13619.789333,-1762.019645
104.945172,-1924.535449,13397.727550,-9576.193725
104.945482,-592.164754,16728.654289,-9652.803275
104.945791,-0.000000,9770.718434,-12870.404366
104.946100,-1702.473667,9252.574275,-6205.373534
104.946410,-1776.494261,10288.862594,4213.525239
104.946719,962.267725,8586.388927,5745.716235
104.947029,2516.700203,6439.791695,7277.907231
104.947338,-296.082377,7179.997637,5822.325785
104.947648,5033.400406,6439.791695,2604.724693
104.947957,2664.741391,4367.215058,-2604.724693
104.948267,-1702.473667,6957.935855,1302.362347
104.948576,-3108.864956,7105.977043,2987.772442
104.948886,-4737.318029,10807.006753,-5822.325785
104.949195,-1184.329507,13249.686362,-11338.213370
104.949505,2146.597232,13175.665768,-11261.603821
104.949814,740.205942,9030.512492,-10189.070123
104.950124,-1924.535449,11843.295072,-2145.067394
104.950433,148.041188,11547.212695,4749.792088
104.950743,2516.700203,6069.688724,4749.792088
104.951052,-148.041188,7476.080014,7201.297681
104.951362,3256.906145,7476.080014,4673.182538
104.951671,6069.688724,4663.297435,-3370.820191
104.951981,-0.000000,7476.080014,-2374.896044
104.952290,-3997.112087,11547.212695,3753.867940
104.952600,-4293.194464,12657.521608,-2145.067394
104.952909,-814.226536,15248.242405,-13100.233016
104.953219,-222.061783,15988.448347,-11491.432470
104.953528,1628.453072,10881.027347,-9806.022374
104.953838,-740.205942,8808.450710,-4136.915689
104.954147,-1850.514855,7994.224174,3370.820191
104.954457,-0.000000,6513.812290,6358.592633
104.954766,2738.761985,6439.791695,7814.174080
104.955076,2738.761985,8438.347739,7967.393179
104.955385,4959.379811,5551.544565,1302.362347
104.955695,444.123565,9326.594869,-4673.182538
104.956004,-3182.885551,10807.006753,-459.657299
104.956314,-6143.709319,11991.336260,-2604.724693
104.956623,-4219.173869,14137.933492,-8733.488677
104.956933,-1036.288319,14359.995275,-11644.651570
104.957242,666.185348,11843.295072,-10342.289223
104.957552,-2812.782580,8364.327145,-6281.983084
104.957861,-1036.288319,5995.668130,1532.190996
104.958170,2146.597232,5181.441594,5822.325785
104.958480,-2368.659014,4663.297435,8503.660028
104.958789,1184.329507,6069.688724,7431.126331
104.959099,6069.688724,5699.585753,-76.609550
104.959408,4145.153275,5995.668130,-4903.011187
104.959718,-296.082377,9696.697840,919.314598
104.960027,-2738.761985,11769.274478,4290.134789
104.960337,-4515.256246,12583.501014,-5975.544884
104.960646,-2368.659014,16580.613101,-6511.811733
104.960956,2368.659014,13619.789333,-11184.994271
104.961265,2368.659014,9622.677246,-12870.404366
104.961575,-3552.988522,11103.089130,-1072.533697
104.961884,-814.226536,9326.594869,5515.887586
104.962194,2590.720797,7328.038826,3753.867940
104.962503,3627.009116,9104.533087,5515.887586
104.962812,4219.173869,9326.594869,2374.896044
104.963122,6069.688724,6883.915261,-1072.533697
104.963431,296.082377,5847.626942,459.657299
104.963741,-4145.153275,9992.780217,6511.811733
104.964050,-2738.761985,11547.212695,612.876398
104.964360,-4367.215058,9696.697840,-7354.516781
104.964669,1258.350101,15840.407159,-10572.117872
104.964979,-74.020594,11843.295072,-12257.527968
104.965288,-1998.556043,9548.656652,-7814.174080
104.965598,-4071.132681,9400.615463,5362.668486
104.965907,-444.123565,6513.812290,5975.544884
104.966217,-1850.514855,9104.533087,6205.373534
104.966526,4145.153275,7031.956449,4903.011187
104.966836,6661.853478,3849.070898,-1685.410096
104.967145,814.226536,2738.761985,-1149.143247
104.967454,-2220.617826,6069.688724,5975.544884
104.967764,-5403.503377,7920.203579,2451.505594
104.968073,-4885.359217,11547.212695,-5669.106685
104.968383,-1110.308913,14211.954086,-8886.707777
104.968692,2442.679609,11991.336260,-14555.814462
104.969002,-0.000000,7402.059420,-12487.356617
104.969311,-1776.494261,9030.512492,-229.828649
104.969621,592.164754,9770.718434,5745.716235
104.969930,-2072.576638,8734.430116,3753.867940
104.970240,1924.535449,10584.944971,7354.516781
104.970549,7254.018232,7476.080014,-153.219100
104.970859,6069.688724,7920.203579,-6588.421283
104.971168,-1036.288319,8734.430116,3217.601092
104.971478,-2960.823768,9918.759623,7584.345430
104.971787,-3256.906145,14211.954086,-4060.306139
104.972096,370.102971,16580.613101,-8580.269578
104.972406,1924.535449,12731.542202,-9039.926876
104.972715,2442.679609,9178.553681,-9729.412825
104.973025,-3923.091493,9400.615463,-612.876398
104.973334,-1406.391290,8438.347739,7124.688131
104.973644,-1332.370696,5107.421000,4979.620737
104.973953,1702.473667,9918.759623,3370.820191
104.974263,4219.173869,7846.182985,2221.676944
104.974572,4663.297435,6883.915261,-3983.696590
104.974882,592.164754,9622.677246,1762.019645
104.975191,-5995.668130,9474.636058,7048.078582
104.975501,-3256.906145,12805.562797,76.609550
104.975810,-1850.514855,11843.295072,-4903.011187
104.976120,2368.659014,13915.871710,-9806.022374
104.976429,1258.350101,9252.574275,-11721.261119
104.976738,-3108.864956,8290.306550,-6435.202183
104.977048,-5921.647536,5995.668130,4979.620737
104.977357,-1036.288319,6957.935855,4979.620737
104.977667,-0.000000,6291.750507,2068.457845
104.977976,4811.338623,9326.594869,1685.410096
104.978286,7846.182985,6291.750507,-3370.820191
104.978595,370.102971,5551.544565,-1225.752797
104.978905,-2590.720797,10807.006753,5362.668486
104.979214,-2368.659014,9844.739029,3140.991542
104.979524,-2664.741391,12953.603985,-3524.039291
104.979833,1776.494261,16432.571912,-7660.954980
104.980143,2294.638420,10066.800811,-12410.747068
104.980452,-888.247130,10732.986159,-9269.755526
104.980762,-3775.050304,10807.006753,459.657299
104.981071,-1776.494261,9696.697840,536.266849
104.981380,2146.597232,6957.935855,1608.800546
104.981690,1776.494261,10510.924376,4903.011187
104.981999,8512.368333,6809.894666,612.876398
104.982309,3552.988522,2368.659014,-536.266849
104.982618,-1924.535449,5847.626942,7354.516781
104.982928,-4589.276840,5921.647536,7048.078582
104.983237,-1258.350101,11029.068536,-3907.087040
104.983547,-1184.329507,13101.645173,-8273.831378
104.983856,2146.597232,14434.015869,-9882.631924
104.984166,1184.329507,12213.398043,-9806.022374
104.984475,-2960.823768,11251.130318,-3294.210641
104.984785,-2220.617826,11843.295072,3294.210641
104.985094,-1628.453072,8142.265362,766.095498
104.985404,2072.576638,9770.718434,1455.581446
104.985713,4737.318029,7476.080014,-1455.581446
104.986022,4515.256246,3849.070898,-1302.362347
104.986332,-2072.576638,7105.977043,3753.867940
104.986641,-1480.411884,8068.244768,6741.640382
104.986951,-2442.679609,9548.656652,-1838.629195
104.987260,-4071.132681,10955.047942,-4903.011187
104.987570,2812.782580,13767.830521,-9346.365076
104.987879,962.267725,9252.574275,-13023.623466
104.988189,-1998.556043,11103.089130,-6435.202183
104.988498,-2812.782580,8586.388927,3600.648841
104.988808,-0.000000,9252.574275,1225.752797
104.989117,1406.391290,8660.409521,766.095498
104.989427,3330.926739,8734.430116,3677.258390
104.989736,6513.812290,9696.697840,-1532.190996
104.990046,-0.000000,5551.544565,2068.457845
104.990355,222.061783,10362.883188,6052.154434
104.990665,-3182.885551,10288.862594,2528.115143
104.990974,-1998.556043,12953.603985,-5209.449386
104.991283,814.226536,13989.892304,-8120.612279
104.991593,2220.617826,11843.295072,-11414.822920
104.991902,-888.247130,8882.471304,-8044.002729
104.992212,-3108.864956,10881.027347,3140.991542
104.992521,-148.041188,10214.842000,4136.915689
104.992831,4589.276840,7254.018232,229.828649
104.993140,2368.659014,9474.636058,3830.477490
104.993450,4589.276840,7254.018232,1915.238745
104.993759,3330.926739,7105.977043,-612.876398
104.994069,-2294.638420,9918.759623,3140.991542
104.994378,-3627.009116,10955.047942,306.438199
104.994688,-1702.473667,11029.068536,-5745.716235
104.994997,-0.000000,13989.892304,-8733.488677
104.995307,1850.514855,13693.809927,-9422.974625
104.995616,-148.041188,8216.285956,-5362.668486
104.995925,-3701.029710,7698.141797,2374.896044
104.996235,-740.205942,5921.647536,4979.620737
104.996544,-2960.823768,4441.235652,1762.019645
104.996854,-0.000000,5625.565159,2911.162892
104.997163,3627.009116,6587.832884,-1302.362347
104.997473,3849.070898,7550.100608,-5898.935335
104.997782,-296.082377,10214.842000,536.266849
104.998092,-1480.411884,10955.047942,2528.115143
104.998401,-1702.473667,12583.501014,-2834.553343
104.998711,-2960.823768,11843.295072,-1302.362347
104.999020,1628.453072,14211.954086,-5898.935335
104.999330,3997.112087,8586.388927,-11338.213370
104.999639,-1850.514855,7402.059420,-2911.162892
104.999949,-518.144159,7846.182985,4903.011187
105.000258,-148.041188,7920.203579,1149.143247
105.000567,-1036.288319,9622.677246,1302.362347
105.000877,4071.132681,10436.903782,2298.286494
105.001186,7402.059420,8586.388927,-6128.763984
105.001496,-1850.514855,9548.656652,-2145.067394
105.001805,-1998.556043,10807.006753,7814.174080
105.002115,-0.000000,9104.533087,306.438199
105.002424,-1184.329507,12731.542202,-5209.449386
105.002734,666.185348,11399.171507,-3524.039291
105.003043,1480.411884,10732.986159,-6894.859482
105.003353,-0.000000,10881.027347,-7967.393179
105.003662,-4663.297435,10510.924376,1838.629195
105.003972,-444.123565,9474.636058,2451.505594
105.004281,1110.308913,6217.729913,-919.314598
105.004591,444.123565,10140.821405,2145.067394
105.004900,3108.864956,8734.430116,-459.657299
105.005209,2294.638420,3478.967927,-3524.039291
105.005519,-1332.370696,6735.874072,3217.601092
105.005828,-4441.235652,5921.647536,5439.278036
105.006138,-3849.070898,8364.327145,-3140.991542
105.006447,-74.020594,11325.150913,-5056.230287
105.006757,2220.617826,13989.892304,-9882.631924
105.007066,1924.535449,7031.956449,-10955.165621
105.007376,-2220.617826,8364.327145,0.000000
105.007685,-3182.885551,11029.068536,3753.867940
105.007995,1036.288319,9474.636058,459.657299
105.008304,1554.432478,9622.677246,2604.724693
105.008614,5107.421000,9104.533087,-1455.581446
105.008923,3775.050304,5551.544565,-4136.915689
105.009233,-1258.350101,8438.347739,842.705048
105.009542,-1776.494261,10214.842000,3677.258390
105.009851,-3478.967927,11621.233289,-3064.381992
105.010161,-2368.659014,14359.995275,-5209.449386
105.010470,4071.132681,13619.789333,-8044.002729
105.010780,4071.132681,9770.718434,-11568.042020
105.011089,-888.247130,7328.038826,-306.438199
105.011399,-1554.432478,8364.327145,7354.516781
105.011708,592.164754,7105.977043,5439.278036
105.012018,222.061783,8734.430116,5056.230287
105.012327,2516.700203,8882.471304,3294.210641
105.012637,4367.215058,7698.141797,-4749.792088
105.012946,-740.205942,7846.182985,-2451.505594
105.013256,-3997.112087,9622.677246,1455.581446
105.013565,-5255.462188,13101.645173,-3524.039291
105.013875,-3849.070898,13619.789333,-4673.182538
105.014184,3034.844362,14211.954086,-6665.030833
105.014493,3404.947333,9696.697840,-11108.384721
105.014803,-592.164754,5921.647536,-3140.991542
105.015112,-3478.967927,5107.421000,10035.851024
105.015422,-74.020594,3775.050304,4749.792088
105.015731,1480.411884,4293.194464,2374.896044
105.016041,1332.370696,9548.656652,5286.058936
105.016350,5403.503377,8142.265362,-2451.505594
105.016660,2516.700203,9918.759623,-7354.516781
105.016969,-2294.638420,13841.851115,-1838.629195
105.017279,-5107.421000,10436.903782,919.314598
105.017588,-3552.988522,12361.439231,-5439.278036
105.017898,-0.000000,16062.468941,-7431.126331
105.018207,5551.544565,13323.706956,-12870.404366
105.018517,5625.565159,9104.533087,-11031.775171
105.018826,-2812.782580,9252.574275,7814.174080
105.019136,-666.185348,7624.121203,10955.165621
105.019445,2072.576638,5477.523971,2987.772442
105.019754,2960.823768,7920.203579,3830.477490
105.020064,888.247130,6365.771101,2604.724693
105.020373,3997.112087,7254.018232,-6052.154434
105.020683,-1628.453072,9918.759623,-3830.477490
105.020992,-4737.318029,11917.315666,2451.505594
105.021302,-5699.585753,12065.356855,-3677.258390
105.021611,-1702.473667,15988.448347,-7354.516781
105.021921,3108.864956,13619.789333,-9806.022374
105.022230,1776.494261,8882.471304,-8810.098227
105.022540,-1628.453072,7624.121203,1225.752797
105.022849,-2960.823768,8882.471304,6588.421283
105.023159,-296.082377,6365.771101,5286.058936
105.023468,1554.432478,7254.018232,4749.792088
105.023778,4663.297435,9770.718434,2451.505594
105.024087,2738.761985,5255.462188,-3983.696590
105.024396,-3627.009116,8882.471304,-2757.943793
105.024706,-4071.132681,10955.047942,-1532.190996
105.025015,-5921.647536,10362.883188,-5669.106685
105.025325,-3627.009116,13397.727550,-6281.983084
105.025634,592.164754,14582.057057,-8120.612279
105.025944,7402.059420,7698.141797,-14249.376263
105.026253,-74.020594,6439.791695,-612.876398
105.026563,-1998.556043,7105.977043,13253.452115
105.026872,1628.453072,8142.265362,7431.126331
105.027182,3182.885551,6439.791695,4826.401637
105.027491,3775.050304,8438.347739,4979.620737
105.027801,3478.967927,9326.594869,-4366.744339
105.028110,1702.473667,10881.027347,-8810.098227
105.028420,-6217.729913,11251.130318,-1991.848295
105.028729,-4515.256246,14359.995275,-2528.115143
105.029038,-3108.864956,15470.304188,-8810.098227
105.029348,2146.597232,14878.139434,-7201.297681
105.029657,3701.029710,10214.842000,-7660.954980
105.029967,518.144159,6809.894666,-5515.887586
105.030276,-1480.411884,5773.606348,8886.707777
105.030586,2072.576638,4737.318029,10265.679673
105.030895,1850.514855,5403.503377,4290.134789
105.031205,1554.432478,9770.718434,6435.202183
105.031514,2146.597232,11103.089130,2451.505594
105.031824,2886.803174,8660.409521,-7354.516781
105.032133,-3182.885551,11917.315666,-4903.011187
105.032443,-6957.935855,12953.603985,-1532.190996
105.032752,-6365.771101,13323.706956,-8656.879127
105.033062,-2220.617826,15766.386565,-9959.241474
105.033371,3330.926739,11029.068536,-7967.393179
105.033680,2072.576638,7624.121203,-6588.421283
105.033990,-3404.947333,7105.977043,4903.011187
105.034299,2664.741391,2442.679609,12334.137518
105.034609,2072.576638,4293.194464,4366.744339
105.034918,2146.597232,5329.482782,3370.820191
105.035228,3256.906145,6439.791695,3753.867940
105.035537,1258.350101,7772.162391,-5056.230287
105.035847,-814.226536,8660.409521,-3064.381992
105.036156,-3256.906145,12583.501014,612.876398
105.036466,-5181.441594,13545.768739,-5209.449386
105.036775,-4219.173869,14582.057057,-9422.974625
105.037085,2664.741391,13989.892304,-8963.317327
105.037394,2220.617826,11695.253884,-10342.289223
105.037704,-1998.556043,10732.986159,-306.438199
105.038013,518.144159,9400.615463,6511.811733
105.038322,3404.947333,5403.503377,3983.696590
105.038632,888.247130,6735.874072,6511.811733
105.038941,4219.173869,8512.368333,7737.564530
105.039251,5033.400406,6513.812290,-1225.752797
105.039560,296.082377,8734.430116,-1149.143247
105.039870,-4367.215058,11547.212695,-76.609550
105.040179,-3182.885551,10732.986159,-4366.744339
105.040489,-5181.441594,13545.768739,-8120.612279
105.040798,-2442.679609,16358.551318,-7814.174080
105.041108,1702.473667,11251.130318,-13023.623466
105.041417,-148.041188,8290.306550,-7814.174080
105.041727,-2220.617826,11695.253884,5822.325785
105.042036,1036.288319,8956.491898,4903.011187
105.042346,2368.659014,3701.029710,4979.620737
105.042655,1850.514855,7994.224174,11031.775171
105.042964,3701.029710,3997.112087,3524.039291
105.043274,3182.885551,4885.359217,-2911.162892
105.043583,-4293.194464,7328.038826,3830.477490
105.043893,-4959.379811,9400.615463,536.266849
105.044202,-6809.894666,11695.253884,-6435.202183
105.044512,-1998.556043,13693.809927,-10495.508323
105.044821,-0.000000,12213.398043,-12563.966167
105.045131,-0.000000,9918.759623,-11644.651570
105.045440,-1110.308913,9030.512492,0.000000
105.045750,740.205942,6957.935855,6971.469032
105.046059,3997.112087,7105.977043,5669.106685
105.046369,3034.844362,5403.503377,8733.488677
105.046678,4737.318029,10140.821405,6894.859482
105.046988,4663.297435,7031.956449,995.924147
105.047297,-1110.308913,6883.915261,-2068.457845
105.047607,-1924.535449,10584.944971,1072.533697
105.047916,-5107.421000,14211.954086,-6358.592633
105.048225,-2294.638420,17246.798449,-10648.727422
105.048535,3034.844362,11917.315666,-13866.328514
105.048844,2294.638420,13397.727550,-12257.527968
105.049154,-1776.494261,9104.533087,-3064.381992
105.049463,444.123565,8438.347739,5669.106685
105.049773,1628.453072,4515.256246,5056.230287
105.050082,1776.494261,7402.059420,7354.516781
105.050392,7105.977043,9104.533087,7431.126331
105.050701,3775.050304,6291.750507,459.657299
105.051011,1554.432478,7698.141797,2528.115143
105.051320,-4515.256246,11843.295072,5209.449386
105.051630,-3034.844362,11325.150913,-5439.278036
105.051939,-4737.318029,11399.171507,-9269.755526
105.052249,-4589.276840,15396.283594,-9193.145976
105.052558,518.144159,12583.501014,-14785.643111
105.052867,296.082377,9474.636058,-9116.536426
105.053177,-3552.988522,9622.677246,5439.278036
105.053486,-962.267725,5921.647536,8427.050478
105.053796,2960.823768,5033.400406,3140.991542
105.054105,1480.411884,4737.318029,9882.631924
105.054415,5551.544565,4367.215058,4979.620737
105.054724,3849.070898,4145.153275,0.000000
105.055034,-2516.700203,10288.862594,4596.572988
105.055343,-1776.494261,10436.903782,1991.848295
105.055653,-4589.276840,12509.480420,-8810.098227
105.055962,-3997.112087,15026.180623,-9806.022374
105.056271,444.123565,13767.830521,-13253.452115
105.056581,1554.432478,10881.027347,-14709.033562
105.056890,-1998.556043,11843.295072,-3294.210641
105.057200,444.123565,9104.533087,5822.325785
105.057509,2368.659014,8068.244768,5515.887586
105.057819,2812.782580,7550.100608,6971.469032
105.058128,6217.729913,7031.956449,7507.735880
105.058438,1184.329507,5107.421000,3983.696590
105.058747,2368.659014,5477.523971,2145.067394
105.059057,-1332.370696,9400.615463,2451.505594
105.059366,-4737.318029,13619.789333,-3294.210641
105.059675,-2590.720797,16136.489536,-7890.783629
105.059985,-1332.370696,13767.830521,-9652.803275
105.060294,814.226536,11325.150913,-13176.842566
105.060604,-1924.535449,10362.883188,-6511.811733
105.060913,-2146.597232,9400.615463,2528.115143
105.061223,-2368.659014,6957.935855,10495.508323
105.061532,1628.453072,9326.594869,6052.154434
105.061842,6513.812290,8586.388927,766.095498
105.062151,5921.647536,2738.761985,-766.095498
105.062460,518.144159,5847.626942,4979.620737
105.062770,-2960.823768,7031.956449,5132.839837
105.063079,-3923.091493,10066.800811,-3447.429741
105.063389,-1628.453072,12361.439231,-5822.325785
105.063698,-2146.597232,11177.109724,-9346.365076
105.064008,1110.308913,9770.718434,-14785.643111
105.064317,-1480.411884,9844.739029,-7354.516781
105.064627,-3923.091493,8882.471304,2451.505594
105.064936,-2664.741391,7105.977043,3907.087040
105.065246,1776.494261,9474.636058,3370.820191
105.065555,6735.874072,8956.491898,383.047749
105.065864,5921.647536,5477.523971,-1072.533697
105.066174,2294.638420,7328.038826,3524.039291
105.066483,-1628.453072,9030.512492,6511.811733
105.066793,-1628.453072,11843.295072,0.000000
105.067102,-1332.370696,12731.542202,-5515.887586
105.067412,-2146.597232,14137.933492,-4826.401637
105.067721,2368.659014,11547.212695,-11414.822920
105.068031,-814.226536,10955.047942,-13253.452115
105.068340,-2368.659014,9696.697840,-229.828649
105.068650,-3701.029710,7920.203579,4519.963438
105.068959,-518.144159,8956.491898,1915.238745
105.069268,3108.864956,9918.759623,4366.744339
105.069578,7179.997637,7328.038826,995.924147
105.069887,4885.359217,4441.235652,0.000000
105.070197,-2220.617826,7698.141797,8197.221829
105.070506,-1480.411884,9918.759623,7354.516781
105.070816,-1406.391290,8808.450710,-4826.401637
105.071125,-3404.947333,12731.542202,-6741.640382
105.071435,-2812.782580,10955.047942,-5439.278036
105.071744,-518.144159,10881.027347,-14555.814462
105.072053,-1776.494261,10732.986159,-8580.269578
105.072363,-4589.276840,9844.739029,2681.334243
105.072672,-4071.132681,7920.203579,2681.334243
105.072982,-0.000000,7624.121203,1378.971896
105.073291,6587.832884,7624.121203,1225.752797
105.073601,5329.482782,4737.318029,-766.095498
105.073910,740.205942,5477.523971,4826.401637
105.074220,-370.102971,7476.080014,7967.393179
105.074529,-1332.370696,8734.430116,1149.143247
105.074839,-518.144159,10584.944971,-3753.867940
105.075148,-1036.288319,12435.459826,-6588.421283
105.075457,2368.659014,10732.986159,-14019.547613
105.075767,-2590.720797,13323.706956,-8733.488677
105.076076,-2960.823768,10658.965565,1455.581446
105.076386,-1924.535449,10214.842000,1149.143247
105.076695,666.185348,11325.150913,0.000000
105.077005,6217.729913,12213.398043,612.876398
105.077314,5847.626942,6439.791695,0.000000
105.077624,2812.782580,5699.585753,1991.848295
105.077933,-1480.411884,9326.594869,8120.612279
105.078242,-1036.288319,10955.047942,1838.629195
105.078552,2590.720797,7402.059420,-6052.154434
105.078861,-2072.576638,13027.624579,-3294.210641
105.079171,1258.350101,13027.624579,-8886.707777
105.079480,-888.247130,8364.327145,-10265.679673
105.079790,-4071.132681,10140.821405,-1608.800546
105.080099,-4737.318029,11843.295072,1072.533697
105.080409,-814.226536,9104.533087,-2987.772442
105.080718,3034.844362,8734.430116,612.876398
105.081028,2960.823768,9326.594869,-1532.190996
105.081337,6217.729913,2960.823768,4213.525239
105.081646,-2590.720797,8438.347739,9269.755526
105.081956,-1554.432478,10510.924376,6511.811733
105.082265,-0.000000,7179.997637,-3217.601092
105.082575,-0.000000,10881.027347,-5669.106685
105.082884,-148.041188,8068.244768,-9882.631924
105.083194,740.205942,9400.615463,-12334.137518
105.083503,-4071.132681,9474.636058,-2528.115143
105.083813,-1776.494261,10288.862594,1149.143247
105.084122,740.205942,8586.388927,-3677.258390
105.084431,1776.494261,8364.327145,1685.410096
105.084741,2146.597232,6143.709319,2757.943793
105.085050,4145.153275,2738.761985,-1225.752797
105.085360,888.247130,8438.347739,3907.087040
105.085669,-1036.288319,8142.265362,1762.019645
105.085979,-370.102971,13545.768739,-2374.896044
105.086288,-2368.659014,13915.871710,-2987.772442
105.086598,222.061783,15618.345376,-5209.449386
105.086907,5699.585753,10955.047942,-15015.471761
105.087217,-2220.617826,9770.718434,-7584.345430
105.087526,-5625.565159,12509.480420,3140.991542
105.087835,962.267725,7698.141797,1685.410096
105.088145,148.041188,7105.977043,-612.876398
105.088454,1332.370696,9030.512492,2681.334243
105.088764,1924.535449,6883.915261,459.657299
105.089073,888.247130,5329.482782,-306.438199
105.089383,222.061783,11325.150913,2068.457845
105.089692,-2072.576638,10732.986159,-1762.019645
105.090002,-2294.638420,11177.109724,-2604.724693
105.090311,-1406.391290,13175.665768,-3983.696590
105.090621,2294.638420,10955.047942,-8503.660028
105.090930,-1332.370696,7105.977043,-5515.887586
105.091239,-888.247130,7328.038826,6511.811733
105.091549,-2072.576638,5847.626942,3217.601092
105.091858,-2072.576638,7476.080014,0.000000
105.092168,222.061783,8364.327145,-536.266849
105.092477,2738.761985,7179.997637,-4519.963438
105.092787,2072.576638,7105.977043,-1838.629195
105.093096,-1332.370696,10140.821405,3064.381992
105.093406,-0.000000,9770.718434,229.828649
105.093715,-2146.597232,9400.615463,-1378.971896
105.094024,-888.247130,11843.295072,0.000000
105.094334,2220.617826,10658.965565,-7354.516781
105.094643,4293.194464,8438.347739,-10265.679673
105.094953,-2664.741391,10436.903782,1685.410096
105.095262,-814.226536,10732.986159,5132.839837
105.095572,888.247130,7698.141797,4136.915689
105.095881,-222.061783,10140.821405,2298.286494
105.096191,1554.432478,10584.944971,919.314598
105.096500,4737.318029,8956.491898,-6741.640382
105.096810,1036.288319,8956.491898,-1762.019645
105.097119,-3034.844362,11695.253884,2911.162892
105.097428,-888.247130,12805.562797,-1685.410096
105.097738,-1184.329507,11325.150913,-2451.505594
105.098047,2072.576638,11843.295072,-1685.410096
105.098357,74.020594,10436.903782,-8197.221829
105.098666,-2886.803174,8882.471304,-2221.676944
105.098976,-2442.679609,9696.697840,3907.087040
105.099285,1258.350101,6439.791695,-3217.601092
105.099595,-814.226536,8068.244768,-1762.019645
105.099904,-3478.967927,10955.047942,3983.696590
105.100213,1850.514855,8512.368333,-1838.629195
105.100523,1332.370696,9400.615463,-3600.648841
105.100832,-592.164754,6587.832884,2757.943793
105.101142,-3478.967927,8364.327145,1225.752797
105.101451,-3108.864956,8512.368333,-1991.848295
105.101761,296.082377,11843.295072,-6052.154434
105.102070,4515.256246,8290.306550,-11414.822920
105.102380,-74.020594,6513.812290,-4673.182538
105.102689,-4885.359217,13989.892304,9422.974625
105.102999,1480.411884,8364.327145,2757.943793
105.103308,814.226536,7624.121203,306.438199
105.103617,740.205942,11325.150913,2068.457845
105.103927,2516.700203,7624.121203,-3983.696590
105.104236,2146.597232,6809.894666,-5745.716235
105.104546,-1850.514855,9548.656652,0.000000
105.104855,-1628.453072,10955.047942,1532.190996
105.105165,-1406.391290,12731.542202,-2145.067394
105.105474,-1554.432478,15396.283594,-2451.505594
105.105784,3701.029710,11251.130318,-6052.154434
105.106093,2368.659014,8142.265362,-7890.783629
105.106403,-1850.514855,8216.285956,1762.019645
105.106712,444.123565,10807.006753,3294.210641
105.107021,1628.453072,6069.688724,2374.896044
105.107331,-814.226536,8956.491898,5439.278036
105.107640,2664.741391,11843.295072,2145.067394
105.107950,2146.597232,6513.812290,-5898.935335
105.108259,-1110.308913,8734.430116,-2221.676944
105.108569,-6217.729913,9252.574275,2374.896044
105.108878,-2664.741391,10436.903782,-5439.278036
105.109188,-962.267725,11399.171507,-5822.325785
105.109497,-0.000000,12065.356855,-6435.202183
105.109806,2146.597232,6661.853478,-6128.763984
105.110116,444.123565,8142.265362,2604.724693
105.110425,-1776.494261,9252.574275,6894.859482
105.110735,296.082377,6661.853478,2528.115143
105.111044,444.123565,7179.997637,1072.533697
105.111354,-2368.659014,6513.812290,-2757.943793
105.111663,2442.679609,6809.894666,-5439.278036
105.111973,518.144159,7105.977043,-3983.696590
105.112282,-3478.967927,9770.718434,2451.505594
105.112592,-2886.803174,12435.459826,-229.828649
105.112901,-2368.659014,11251.130318,-4903.011187
105.113210,1554.432478,13101.645173,-6128.763984
105.113520,5181.441594,9326.594869,-11108.384721
105.113829,-370.102971,7328.038826,-5362.668486
105.114139,-2294.638420,11399.171507,7431.126331
105.114448,2146.597232,8068.244768,5669.106685
105.114758,4293.194464,9474.636058,3907.087040
105.115067,3849.070898,10807.006753,5132.839837
105.115377,1258.350101,6809.894666,-842.705048
105.115686,1628.453072,7328.038826,-3907.087040
105.115995,-4589.276840,8290.306550,919.314598
105.116305,-2072.576638,11547.212695,-2451.505594
105.116614,-3775.050304,13693.809927,-7048.078582
105.116924,-3701.029710,16506.592507,-4596.572988
105.117233,1480.411884,14063.912898,-8350.440928
105.117543,1184.329507,7846.182985,-7354.516781
105.117852,-592.164754,9030.512492,3753.867940
105.118162,-962.267725,6809.894666,6511.811733
105.118471,-1480.411884,8882.471304,7660.954980
105.118781,2368.659014,5107.421000,6971.469032
105.119090,2738.761985,6809.894666,2298.286494
105.119399,3849.070898,6587.832884,-2911.162892
105.119709,-4663.297435,6069.688724,1378.971896
105.120018,-5625.565159,9622.677246,919.314598
105.120328,-2146.597232,12139.377449,-9116.536426
105.120637,-1998.556043,14211.954086,-11184.994271
105.120947,1554.432478,11843.295072,-9039.926876
105.121256,-1850.514855,8734.430116,-13023.623466
105.121566,-1998.556043,9252.574275,1685.410096
105.121875,148.041188,9030.512492,10418.898773
105.122184,3701.029710,8068.244768,5975.544884
105.122494,4367.215058,8660.409521,3370.820191
105.122803,3182.885551,8068.244768,3677.258390
105.123113,2294.638420,7772.162391,-4060.306139
105.123422,-1702.473667,6883.915261,-4596.572988
105.123732,-4071.132681,11399.171507,0.000000
105.124041,-4145.153275,12509.480420,-5362.668486
105.124351,-296.082377,12731.542202,-9576.193725
105.124660,-222.061783,15766.386565,-6511.811733
105.124970,1776.494261,10955.047942,-7277.907231
105.125279,814.226536,4663.297435,-2757.943793
105.125588,-2886.803174,8216.285956,3677.258390
105.125898,2738.761985,9474.636058,6128.763984
105.126207,4589.276840,7328.038826,3677.258390
105.126517,2664.741391,9104.533087,5669.106685
105.126826,1480.411884,7550.100608,536.266849
105.127136,-0.000000,6957.935855,-4366.744339
105.127445,-5329.482782,10584.944971,0.000000
105.127755,-4959.379811,14137.933492,-5362.668486
105.128064,-2220.617826,14952.160028,-13559.890315
105.128374,-1480.411884,13027.624579,-11261.603821
105.128683,-666.185348,8290.306550,-6281.983084
105.128992,296.082377,5033.400406,-2451.505594
105.129302,-1110.308913,9770.718434,6818.249932
105.129611,-74.020594,6217.729913,9652.803275
105.129921,6513.812290,5625.565159,3983.696590
105.130230,3108.864956,6957.935855,1915.238745
105.130540,1110.308913,6143.709319,-306.438199
105.130849,-2294.638420,5551.544565,-3217.601092
105.131159,-2368.659014,11621.233289,-4826.401637
105.131468,-1554.432478,14508.036463,-1608.800546
105.131777,-814.226536,15100.201217,-7814.174080
105.132087,-2516.700203,12435.459826,-8044.002729
105.132396,-1184.329507,10955.047942,-7354.516781
105.132706,444.123565,3701.029710,-3524.039291
105.133015,-888.247130,5773.606348,2451.505594
105.133325,1258.350101,11325.150913,5286.058936
105.133634,3034.844362,8734.430116,2911.162892
105.133944,4663.297435,9400.615463,5439.278036
105.134253,4811.338623,10732.986159,4519.963438
105.134563,3256.906145,8734.430116,-3983.696590
105.134872,-3256.906145,6217.729913,612.876398
105.135181,-2886.803174,8808.450710,4060.306139
105.135491,-2590.720797,13619.789333,-4519.963438
105.135800,-814.226536,13175.665768,-9729.412825
105.136110,-2516.700203,13323.706956,-5362.668486
105.136419,-74.020594,10214.842000,-7507.735880
105.136729,-2368.659014,9326.594869,-3907.087040
105.137038,-2368.659014,13767.830521,612.876398
105.137348,2886.803174,7698.141797,1838.629195
105.137657,1628.453072,8290.306550,3140.991542
105.137966,2664.741391,8808.450710,7354.516781
105.138276,2442.679609,5403.503377,1302.362347
105.138585,1998.556043,2072.576638,919.314598
105.138895,-2738.761985,9252.574275,4749.792088
105.139204,-5995.668130,11547.212695,-842.705048
105.139514,-1998.556043,12139.377449,-8886.707777
105.139823,-518.144159,15988.448347,-6128.763984
105.140133,-1776.494261,11843.295072,-11261.603821
105.140442,-888.247130,9622.677246,-8810.098227
105.140752,-1998.556043,11029.068536,689.485948
105.141061,2072.576638,10807.006753,3217.601092
105.141370,5699.585753,8512.368333,4749.792088
105.141680,3404.947333,8586.388927,7814.174080
105.141989,4515.256246,8660.409521,4519.963438
105.142299,3330.926739,5477.523971,-306.438199
105.142608,-2368.659014,5403.503377,842.705048
105.142918,-2960.823768,8586.388927,0.000000
105.143227,-1628.453072,13841.851115,-8963.317327
105.143537,-1036.288319,14211.954086,-10572.117872
105.143846,-444.123565,13249.686362,-8810.098227
105.144156,-740.205942,9992.780217,-7890.783629
105.144465,-3256.906145,8438.347739,-612.876398
105.144774,1554.432478,8808.450710,3753.867940
105.145084,1998.556043,7624.121203,1455.581446
105.145393,4219.173869,9474.636058,4826.401637
105.145703,3775.050304,9696.697840,5592.497135
105.146012,3256.906145,8290.306550,-459.657299
105.146322,-592.164754,6513.812290,-383.047749
105.146631,-3997.112087,9474.636058,1991.848295
105.146941,-3256.906145,10955.047942,-5286.058936
105.147250,-1554.432478,12435.459826,-9499.584175
105.147559,-2368.659014,12805.562797,-9422.974625
105.147869,370.102971,10807.006753,-11951.089769
105.148178,-3182.885551,6661.853478,-5669.106685
105.148488,-1184.329507,7105.977043,5592.497135
105.148797,740.205942,6735.874072,5515.887586
105.149107,3997.112087,7624.121203,5056.230287
105.149416,3034.844362,6661.853478,6741.640382
105.149726,4811.338623,5181.441594,2451.505594
105.150035,-1110.308913,5773.606348,-1838.629195
105.150345,-3256.906145,9474.636058,1991.848295
105.150654,-1850.514855,11843.295072,-766.095498
105.150963,-3108.864956,12805.562797,-7737.564530
105.151273,-74.020594,16580.613101,-7124.688131
105.151582,518.144159,12139.377449,-11184.994271
105.151892,-3108.864956,8512.368333,-7277.907231
105.152201,-3701.029710,7846.182985,2911.162892
105.152511,962.267725,8216.285956,3983.696590
105.152820,4293.194464,8364.327145,1455.581446
105.153130,3849.070898,9622.677246,6818.249932
105.153439,5403.503377,9178.553681,4596.572988
105.153749,4145.153275,4737.318029,-306.438199
105.154058,-1554.432478,8512.368333,4366.744339
105.154368,-3256.906145,10807.006753,3524.039291
105.154677,-2368.659014,11769.274478,-6511.811733
105.154987,-962.267725,14285.974681,-8273.831378
105.155296,-74.020594,12657.521608,-8733.488677
105.155605,-1406.391290,8956.491898,-9806.022374
105.155915,-3478.967927,9474.636058,-1991.848295
105.156224,-2590.720797,9400.615463,5669.106685
105.156534,1036.288319,9548.656652,2451.505594
105.156843,2886.803174,10214.842000,4443.353888
105.157153,3627.009116,9474.636058,2451.505594
105.157462,2812.782580,5255.462188,0.000000
105.157772,1332.370696,5181.441594,2451.505594
105.158081,-3108.864956,8882.471304,4749.792088
105.158391,-5995.668130,9696.697840,-919.314598
105.158700,-444.123565,10658.965565,-5515.887586
105.159010,222.061783,11695.253884,-8656.879127
105.159319,-296.082377,10288.862594,-10189.070123
105.159629,-2812.782580,7846.182985,-4366.744339
105.159938,-3404.947333,9548.656652,2451.505594
105.160248,1480.411884,9326.594869,1378.971896
105.160557,3478.967927,9252.574275,2451.505594
105.160867,2664.741391,11843.295072,3370.820191
105.161176,1924.535449,9918.759623,919.314598
105.161486,2886.803174,4811.338623,459.657299
105.161795,-4071.132681,9622.677246,3447.429741
105.162105,-2072.576638,12361.439231,-1608.800546
105.162414,-1036.288319,11769.274478,-6205.373534
105.162724,-1036.288319,14878.139434,-3524.039291
105.163033,1480.411884,11769.274478,-10495.508323
105.163343,296.082377,6809.894666,-6435.202183
105.163652,-3775.050304,9104.533087,2757.943793
105.163962,-1036.288319,8660.409521,2681.334243
105.164271,1924.535449,6661.853478,1991.848295
105.164581,3627.009116,9326.594869,2145.067394
105.164890,3627.009116,7328.038826,-1455.581446
105.165200,1702.473667,6069.688724,-995.924147
105.165509,-740.205942,8586.388927,7890.783629
105.165819,-2368.659014,10881.027347,1838.629195
