#time,accel_x,accel_y,accel_z
72.637480,-0.000000,9844.739029,-1225.752797
72.637790,-0.000000,9474.636058,-1225.752797
72.638099,-1258.350101,9474.636058,-5439.278036
72.638409,-0.000000,8956.491898,-1225.752797
72.638719,-148.041188,9696.697840,-1378.971896
72.639028,-0.000000,9474.636058,-1225.752797
72.639338,-444.123565,10362.883188,1838.629195
72.639647,148.041188,9918.759623,-1225.752797
72.639957,444.123565,9326.594869,-1455.581446
72.640266,-0.000000,9104.533087,-1072.533697
72.640576,-222.061783,8660.409521,-995.924147
72.640885,814.226536,10066.800811,-6741.640382
72.641195,-0.000000,9326.594869,-842.705048
72.641504,-444.123565,9548.656652,-766.095498
72.641814,222.061783,9104.533087,-2221.676944
72.642123,814.226536,9918.759623,-1915.238745
72.642433,-1480.411884,9770.718434,-1072.533697
72.642742,740.205942,9696.697840,-383.047749
72.643052,-222.061783,9918.759623,-153.219100
72.643361,148.041188,8660.409521,-995.924147
72.643671,666.185348,7550.100608,-1608.800546
72.643980,-444.123565,9252.574275,-1072.533697
72.644290,814.226536,9474.636058,-153.219100
72.644599,-0.000000,8808.450710,0.000000
72.644909,1406.391290,8216.285956,766.095498
72.645218,3256.906145,5181.441594,383.047749
72.645528,4663.297435,5255.462188,1072.533697
72.645837,1776.494261,6513.812290,8810.098227
72.646147,1036.288319,6365.771101,12104.308868
72.646456,666.185348,5477.523971,7890.783629
72.646766,6809.894666,8142.265362,6588.421283
72.647075,3775.050304,5699.585753,4136.915689
72.647385,-1850.514855,7550.100608,9882.631924
72.647694,-814.226536,11399.171507,13330.061665
72.648004,1184.329507,13989.892304,6511.811733
72.648313,1776.494261,12287.418637,4903.011187
72.648623,-1480.411884,12805.562797,11644.651570
72.648932,-3775.050304,13101.645173,11031.775171
72.649242,-4737.318029,13249.686362,9346.365076
72.649551,2220.617826,19319.375086,2374.896044
72.649861,3182.885551,11843.295072,1302.362347
72.650171,-888.247130,17172.777854,10955.165621
72.650480,-16136.489536,9326.594869,24515.055936
72.650790,518.144159,18209.066173,2757.943793
72.651099,4071.132681,8734.430116,-6894.859482
72.651409,-1776.494261,11695.253884,3064.381992
72.651718,-9622.677246,7402.059420,11874.480219
72.652028,296.082377,7772.162391,4060.306139
72.652337,-1628.453072,6217.729913,6281.983084
72.652647,-2368.659014,2812.782580,19841.873398
72.652956,3701.029710,814.226536,15168.690860
72.653266,-3256.906145,-962.267725,11338.213370
72.653575,-1406.391290,5699.585753,12257.527968
72.653885,-3256.906145,8808.450710,6205.373534
72.654194,3627.009116,11473.192101,-6128.763984
72.654504,-592.164754,13027.624579,-1072.533697
72.654813,666.185348,13989.892304,2911.162892
72.655123,444.123565,10881.027347,2451.505594
72.655432,-1184.329507,9622.677246,18462.901502
72.655742,-1332.370696,8438.347739,22829.645840
72.656051,740.205942,6291.750507,7890.783629
72.656361,3256.906145,10658.965565,-4979.620737
72.656670,-4219.173869,13841.851115,-2221.676944
72.656980,3478.967927,18431.127956,-5286.058936
72.657289,6957.935855,14804.118840,-8810.098227
72.657599,-3627.009116,13841.851115,5975.544884
72.657908,-5625.565159,9770.718434,18309.682402
72.658218,-2886.803174,7550.100608,9959.241474
72.658527,4367.215058,7772.162391,-5439.278036
72.658837,3849.070898,6661.853478,-11951.089769
72.659146,6513.812290,5995.668130,-8810.098227
72.659456,2738.761985,6439.791695,3064.381992
72.659765,-1332.370696,8216.285956,13866.328514
72.660075,1258.350101,5699.585753,12257.527968
72.660384,-1332.370696,1924.535449,2298.286494
72.660694,-3775.050304,3997.112087,-5439.278036
72.661004,962.267725,7105.977043,-11414.822920
72.661313,3849.070898,12361.439231,-17007.320056
72.661623,-1850.514855,16062.468941,-8044.002729
72.661932,-2516.700203,15174.221811,2068.457845
72.662242,-2220.617826,14656.077652,0.000000
72.662551,2812.782580,7846.182985,-3447.429741
72.662861,1036.288319,7994.224174,0.000000
72.663170,3330.926739,8808.450710,0.000000
72.663480,-666.185348,6439.791695,5898.935335
72.663789,1850.514855,8068.244768,8273.831378
72.664099,6291.750507,7994.224174,-3447.429741
72.664408,5551.544565,7031.956449,-9346.365076
72.664718,-2516.700203,7328.038826,1838.629195
72.665027,-4663.297435,11103.089130,4596.572988
72.665337,-148.041188,12805.562797,-4213.525239
72.665646,2590.720797,10807.006753,-10035.851024
72.665956,-148.041188,6217.729913,-6358.592633
72.666265,1036.288319,5403.503377,-2145.067394
72.666575,-1480.411884,6809.894666,3830.477490
72.666884,-1776.494261,8586.388927,13866.328514
72.667194,1480.411884,8882.471304,10495.508323
72.667503,4737.318029,9548.656652,-2834.553343
72.667813,2664.741391,8586.388927,-8963.317327
72.668122,-8142.265362,7105.977043,-2374.896044
72.668432,-1850.514855,13545.768739,-1685.410096
72.668741,-0.000000,11917.315666,-9422.974625
72.669051,-2738.761985,11547.212695,-4519.963438
72.669360,-3923.091493,12583.501014,2681.334243
72.669670,1702.473667,10436.903782,-1225.752797
72.669979,-444.123565,8660.409521,2298.286494
72.670289,-2886.803174,9696.697840,13636.499864
72.670598,2664.741391,10214.842000,4443.353888
72.670908,6365.771101,9400.615463,-13176.842566
72.671217,2368.659014,11695.253884,-4213.525239
72.671527,-3627.009116,13693.809927,5975.544884
72.671836,-1850.514855,16358.551318,2221.676944
72.672146,-0.000000,14508.036463,153.219100
72.672456,-2072.576638,10732.986159,76.609550
72.672765,2294.638420,6883.915261,-7660.954980
72.673075,2960.823768,3997.112087,-7814.174080
72.673384,-4885.359217,5699.585753,7354.516781
72.673694,-148.041188,7105.977043,14325.985813
72.674003,4441.235652,8956.491898,4366.744339
72.674313,3849.070898,7254.018232,-1302.362347
72.674622,-370.102971,5551.544565,459.657299
72.674932,-4145.153275,7624.121203,536.266849
72.675241,-2294.638420,12731.542202,-459.657299
72.675551,814.226536,15470.304188,-3447.429741
72.675860,3775.050304,11843.295072,-7431.126331
72.676170,-222.061783,8586.388927,-6588.421283
72.676479,-6069.688724,6809.894666,3370.820191
72.676789,-4959.379811,8660.409521,10342.289223
72.677098,592.164754,11177.109724,612.876398
72.677408,3627.009116,10362.883188,-6588.421283
72.677717,370.102971,9400.615463,-6588.421283
72.678027,-1554.432478,8142.265362,-11031.775171
72.678336,-3775.050304,10436.903782,-5745.716235
72.678646,-3849.070898,14508.036463,0.000000
72.678955,-814.226536,14285.974681,-2987.772442
72.679265,5033.400406,9918.759623,-9039.926876
72.679574,1702.473667,6809.894666,-5822.325785
72.679884,-2590.720797,4441.235652,5362.668486
72.680193,-1924.535449,4441.235652,6971.469032
72.680503,1924.535449,5921.647536,0.000000
72.680812,2368.659014,7846.182985,-3370.820191
72.681122,3404.947333,7105.977043,-8427.050478
72.681431,740.205942,8956.491898,-6281.983084
72.681741,-3256.906145,11177.109724,1149.143247
72.682050,-962.267725,12139.377449,1072.533697
72.682360,6365.771101,9770.718434,-5592.497135
72.682669,5921.647536,7179.997637,-9652.803275
72.682979,-592.164754,7254.018232,2068.457845
72.683288,-444.123565,8142.265362,8733.488677
72.683598,2368.659014,9252.574275,2757.943793
72.683908,4367.215058,9844.739029,-459.657299
72.684217,3849.070898,9104.533087,-1991.848295
72.684527,1406.391290,8290.306550,-7201.297681
72.684836,-888.247130,10140.821405,-5439.278036
72.685146,-3552.988522,11843.295072,-1225.752797
72.685455,-0.000000,15026.180623,-3677.258390
72.685765,3627.009116,12583.501014,-10189.070123
72.686074,962.267725,9252.574275,-7124.688131
72.686384,-1036.288319,6365.771101,459.657299
72.686693,-1628.453072,6883.915261,5898.935335
72.687003,-1332.370696,8438.347739,6818.249932
72.687312,740.205942,7105.977043,2834.553343
72.687622,2738.761985,6957.935855,-5515.887586
72.687931,-2516.700203,6735.874072,-4979.620737
72.688241,-4885.359217,9622.677246,-1072.533697
72.688550,-4293.194464,12139.377449,-842.705048
72.688860,1184.329507,14285.974681,-7048.078582
72.689169,2960.823768,11917.315666,-8580.269578
72.689479,-4663.297435,9844.739029,-2681.334243
72.689788,-3404.947333,7105.977043,6741.640382
72.690098,-4367.215058,7328.038826,10112.460574
72.690407,1184.329507,8808.450710,6741.640382
72.690717,1702.473667,7772.162391,5745.716235
72.691026,1406.391290,8364.327145,-2987.772442
72.691336,518.144159,9548.656652,-2221.676944
72.691645,-2368.659014,11843.295072,-383.047749
72.691955,-4663.297435,12805.562797,2145.067394
72.692264,-2960.823768,13841.851115,-1149.143247
72.692574,962.267725,11251.130318,-9806.022374
72.692883,-0.000000,7994.224174,-8273.831378
72.693193,-2220.617826,7476.080014,2298.286494
72.693502,-3108.864956,7402.059420,10035.851024
72.693812,-296.082377,9548.656652,9039.926876
72.694121,3627.009116,6809.894666,2298.286494
72.694430,1702.473667,5403.503377,-3830.477490
72.694740,-1480.411884,6143.709319,-4749.792088
72.695049,-5699.585753,10510.924376,-612.876398
72.695359,-1924.535449,15914.427753,-2221.676944
72.695668,2516.700203,15618.345376,-8044.002729
72.695978,3034.844362,13397.727550,-9806.022374
72.696287,-2664.741391,8882.471304,-2681.334243
72.696597,-3404.947333,7179.997637,5209.449386
72.696906,-1332.370696,8438.347739,7584.345430
72.697215,1406.391290,9622.677246,5209.449386
72.697525,3849.070898,7624.121203,-229.828649
72.697834,2960.823768,5699.585753,-6205.373534
72.698144,-1776.494261,8290.306550,-4519.963438
72.698453,-3404.947333,11621.233289,995.924147
72.698763,296.082377,15544.324782,-2911.162892
72.699072,4885.359217,14359.995275,-10342.289223
72.699382,1258.350101,10807.006753,-6665.030833
72.699691,-814.226536,5477.523971,1608.800546
72.700000,-1480.411884,3404.947333,8656.879127
72.700310,1036.288319,4811.338623,8197.221829
72.700619,2886.803174,5921.647536,4903.011187
72.700929,3627.009116,6957.935855,-1455.581446
72.701238,1850.514855,7476.080014,-6358.592633
72.701548,-222.061783,11547.212695,-3600.648841
72.701857,-2220.617826,13545.768739,-842.705048
72.702166,-0.000000,14508.036463,-1991.848295
72.702476,4367.215058,14434.015869,-6511.811733
72.702785,2072.576638,10362.883188,-6665.030833
72.703095,-1850.514855,8956.491898,76.609550
72.703404,-1924.535449,9400.615463,7660.954980
72.703714,814.226536,9326.594869,8044.002729
72.704023,2812.782580,8956.491898,536.266849
72.704333,1998.556043,7698.141797,-3524.039291
72.704642,-2664.741391,6957.935855,-3294.210641
72.704951,-4293.194464,10732.986159,-1991.848295
72.705261,-3627.009116,14359.995275,-5745.716235
72.705570,666.185348,15026.180623,-10035.851024
72.705880,2590.720797,11991.336260,-10572.117872
72.706189,-666.185348,6661.853478,-3524.039291
72.706499,-2146.597232,4737.318029,9729.412825
72.706808,-2368.659014,3256.906145,11874.480219
72.707118,-888.247130,4737.318029,7737.564530
72.707427,1480.411884,5625.565159,459.657299
72.707736,1776.494261,6587.832884,-6128.763984
72.708046,-2072.576638,9474.636058,-8963.317327
72.708355,-3404.947333,12657.521608,-3753.867940
72.708665,-1776.494261,15322.262999,-1838.629195
72.708974,296.082377,13915.871710,-5132.839837
72.709284,444.123565,12805.562797,-2451.505594
72.709593,740.205942,9400.615463,-2145.067394
72.709903,-1924.535449,8142.265362,4749.792088
72.710212,-296.082377,8438.347739,8120.612279
72.710521,2368.659014,9178.553681,4749.792088
72.710831,3108.864956,6661.853478,-4673.182538
72.711140,740.205942,9474.636058,-4749.792088
72.711450,-2072.576638,10881.027347,-3753.867940
72.711759,-2516.700203,11769.274478,-3753.867940
72.712069,-1998.556043,16062.468941,-5515.887586
72.712378,592.164754,14211.954086,-11261.603821
72.712687,2368.659014,9844.739029,-11338.213370
72.712997,518.144159,5551.544565,-2834.553343
72.713306,-2294.638420,4737.318029,7584.345430
72.713616,-3552.988522,4071.132681,15398.519510
72.713925,1924.535449,4959.379811,8120.612279
72.714235,3923.091493,5625.565159,-2451.505594
72.714544,2812.782580,6365.771101,-9959.241474
72.714854,-1850.514855,8068.244768,-6205.373534
72.715163,-4219.173869,8956.491898,612.876398
72.715472,-1110.308913,14211.954086,-2987.772442
72.715782,3701.029710,13323.706956,-9116.536426
72.716091,2664.741391,11769.274478,-5439.278036
72.716401,-3256.906145,8586.388927,2987.772442
72.716710,-1924.535449,8290.306550,8580.269578
72.717020,2072.576638,7772.162391,6741.640382
72.717329,5033.400406,8734.430116,2221.676944
72.717639,2072.576638,7254.018232,-612.876398
72.717948,1332.370696,7846.182985,0.000000
72.718257,-2960.823768,11843.295072,-3140.991542
72.718567,-2516.700203,16210.510130,-4290.134789
72.718876,1850.514855,16580.613101,-8427.050478
72.719186,3478.967927,12879.583391,-10955.165621
72.719495,1850.514855,7402.059420,-5669.106685
72.719805,-962.267725,4885.359217,5515.887586
72.720114,-1998.556043,4219.173869,12104.308868
72.720423,-518.144159,3552.988522,9269.755526
72.720733,1184.329507,5773.606348,1302.362347
72.721042,2664.741391,5773.606348,-7814.174080
72.721352,740.205942,8512.368333,-9806.022374
72.721661,-3775.050304,11103.089130,-4596.572988
72.721971,-2738.761985,14211.954086,-2451.505594
72.722280,-0.000000,13693.809927,-10265.679673
72.722590,2590.720797,10066.800811,-8656.879127
72.722899,-2442.679609,8512.368333,-1991.848295
72.723208,-3404.947333,7476.080014,5515.887586
72.723518,-444.123565,8216.285956,7201.297681
72.723827,1406.391290,6957.935855,2528.115143
72.724137,3923.091493,8882.471304,-2834.553343
72.724446,-370.102971,8364.327145,-5515.887586
72.724756,-2590.720797,10214.842000,-4749.792088
72.725065,-4071.132681,13101.645173,-3370.820191
72.725375,-1776.494261,15840.407159,-6281.983084
72.725684,4367.215058,13397.727550,-9806.022374
72.725993,1184.329507,8438.347739,-9193.145976
72.726303,-222.061783,5403.503377,-995.924147
72.726612,-1998.556043,3775.050304,7277.907231
72.726922,-1776.494261,3923.091493,8886.707777
72.727231,-0.000000,5477.523971,5669.106685
72.727541,370.102971,6513.812290,-1685.410096
72.727850,2072.576638,7772.162391,-9116.536426
72.728159,-148.041188,9474.636058,-10342.289223
72.728469,-3256.906145,13989.892304,-2604.724693
72.728778,-2072.576638,14952.160028,-1685.410096
72.729088,1850.514855,14359.995275,-7201.297681
72.729397,-0.000000,11547.212695,-6894.859482
72.729707,-1406.391290,8734.430116,995.924147
72.730016,-3330.926739,8142.265362,6818.249932
72.730326,-1702.473667,7772.162391,6511.811733
72.730635,3627.009116,7994.224174,1149.143247
72.730944,1850.514855,9030.512492,-3677.258390
72.731254,-666.185348,8364.327145,-5132.839837
72.731563,-1406.391290,10140.821405,-4290.134789
72.731873,-3330.926739,13841.851115,-3447.429741
72.732182,296.082377,15322.262999,-4749.792088
72.732492,2442.679609,11473.192101,-6894.859482
72.732801,2442.679609,5995.668130,-4596.572988
72.733111,-296.082377,3849.070898,4979.620737
72.733420,-3034.844362,2146.597232,12334.137518
72.733729,-2072.576638,4959.379811,10801.946522
72.734039,3256.906145,8290.306550,1762.019645
72.734348,4811.338623,7031.956449,-8886.707777
72.734658,1628.453072,9400.615463,-8810.098227
72.734967,-4219.173869,12435.459826,766.095498
72.735277,-2516.700203,15470.304188,2068.457845
72.735586,1628.453072,16062.468941,-2757.943793
72.735896,4515.256246,13397.727550,-6358.592633
72.736205,1184.329507,8882.471304,-2451.505594
72.736514,-3701.029710,7550.100608,5822.325785
72.736824,1110.308913,9548.656652,8197.221829
72.737133,1776.494261,9030.512492,3907.087040
72.737443,2812.782580,9400.615463,-459.657299
72.737752,2072.576638,7624.121203,-2298.286494
72.738062,-296.082377,7624.121203,-3524.039291
72.738371,-2442.679609,13619.789333,-3447.429741
72.738680,-740.205942,15396.283594,-3447.429741
72.738990,3404.947333,14211.954086,-7507.735880
72.739299,1036.288319,7624.121203,-6511.811733
72.739609,888.247130,4737.318029,-1685.410096
72.739918,-3404.947333,3775.050304,7890.783629
72.740228,-2590.720797,5477.523971,11031.775171
72.740537,-296.082377,6587.832884,5822.325785
72.740847,2738.761985,8882.471304,-6052.154434
72.741156,1184.329507,7105.977043,-11644.651570
72.741465,-2368.659014,9696.697840,-7124.688131
72.741775,-2516.700203,13767.830521,-1149.143247
72.742084,-1850.514855,14285.974681,0.000000
72.742394,2590.720797,14359.995275,-5515.887586
72.742703,2294.638420,9770.718434,-4903.011187
72.743013,-1776.494261,7402.059420,-919.314598
72.743322,-2664.741391,6513.812290,6435.202183
72.743632,-1554.432478,8438.347739,9269.755526
72.743941,3108.864956,8364.327145,153.219100
72.744250,3552.988522,9104.533087,-4673.182538
72.744560,-740.205942,11547.212695,-4673.182538
72.744869,-2294.638420,12287.418637,-4213.525239
72.745179,-2664.741391,14211.954086,-2374.896044
72.745488,-370.102971,14878.139434,-4060.306139
72.745798,2442.679609,10732.986159,-7277.907231
72.746107,1332.370696,6587.832884,-6971.469032
72.746416,-2664.741391,3849.070898,3524.039291
72.746726,-3923.091493,4367.215058,8580.269578
72.747035,-1702.473667,5699.585753,6894.859482
72.747345,888.247130,7624.121203,-459.657299
72.747654,3108.864956,7328.038826,-7048.078582
72.747964,-1480.411884,10214.842000,-9116.536426
72.748273,-3478.967927,9252.574275,-2681.334243
72.748583,-3997.112087,13323.706956,1455.581446
72.748892,444.123565,13619.789333,-2528.115143
72.749201,3775.050304,12509.480420,-8350.440928
72.749511,1332.370696,10066.800811,-6435.202183
72.749820,-1850.514855,7328.038826,3140.991542
72.750130,-2368.659014,8808.450710,7737.564530
72.750439,3256.906145,8512.368333,6052.154434
72.750749,3108.864956,9770.718434,-2145.067394
72.751058,2220.617826,8068.244768,-2604.724693
72.751368,1184.329507,9474.636058,-3447.429741
72.751677,-3034.844362,11769.274478,-3677.258390
72.751986,-1554.432478,15470.304188,-2451.505594
72.752296,3701.029710,13545.768739,-3600.648841
72.752605,3330.926739,8956.491898,-8503.660028
72.752915,814.226536,7179.997637,-3217.601092
72.753224,-3552.988522,5033.400406,6511.811733
72.753534,-1480.411884,4737.318029,12870.404366
72.753843,1184.329507,7698.141797,4519.963438
72.754153,4071.132681,8290.306550,-4060.306139
72.754462,1702.473667,6365.771101,-7354.516781
72.754771,-740.205942,7105.977043,-5669.106685
72.755081,-1258.350101,10881.027347,919.314598
72.755390,-1702.473667,13175.665768,1225.752797
72.755700,592.164754,13323.706956,-995.924147
72.756009,2368.659014,10362.883188,-5439.278036
72.756319,1332.370696,7402.059420,-3600.648841
72.756628,-2590.720797,6957.935855,3983.696590
72.756937,-2146.597232,9474.636058,7431.126331
72.757247,1924.535449,10732.986159,2911.162892
72.757556,4293.194464,10288.862594,-3753.867940
72.757866,370.102971,12509.480420,-6818.249932
72.758175,-3108.864956,12731.542202,-1915.238745
72.758485,-2738.761985,12657.521608,-1378.971896
72.758794,-1776.494261,15988.448347,-4826.401637
72.759104,3775.050304,12583.501014,-10112.460574
72.759413,-666.185348,7698.141797,-9039.926876
72.759722,-2664.741391,5329.482782,229.828649
72.760032,-2220.617826,5107.421000,9039.926876
72.760341,-2812.782580,6587.832884,8580.269578
72.760651,-296.082377,6291.750507,1225.752797
72.760960,3108.864956,4663.297435,-6128.763984
72.761270,2664.741391,6069.688724,-10878.556072
72.761579,-2072.576638,8808.450710,-5056.230287
72.761889,-3404.947333,12361.439231,2757.943793
72.762198,-1332.370696,14434.015869,-1149.143247
72.762507,3330.926739,12435.459826,-8503.660028
72.762817,-0.000000,10214.842000,-6665.030833
72.763126,-2664.741391,9178.553681,2374.896044
72.763436,-1406.391290,9326.594869,5745.716235
72.763745,962.267725,10732.986159,3294.210641
72.764055,3330.926739,10658.965565,383.047749
72.764364,1258.350101,9770.718434,-2681.334243
72.764673,-1480.411884,9622.677246,-3140.991542
72.764983,-1702.473667,13989.892304,-2451.505594
72.765292,-1776.494261,15174.221811,-3907.087040
72.765602,1480.411884,14285.974681,-5745.716235
72.765911,2442.679609,10510.924376,-7354.516781
72.766221,1628.453072,6809.894666,-4366.744339
72.766530,-444.123565,2664.741391,3983.696590
72.766840,-3108.864956,4145.153275,10801.946522
72.767149,-518.144159,5921.647536,6281.983084
72.767458,5773.606348,6365.771101,-3677.258390
72.767768,4959.379811,6143.709319,-9193.145976
72.768077,-2664.741391,7328.038826,-4519.963438
72.768387,-4219.173869,10732.986159,3983.696590
72.768696,-2294.638420,11991.336260,0.000000
72.769006,3627.009116,13249.686362,-8810.098227
72.769315,2220.617826,10066.800811,-5898.935335
72.769625,-2590.720797,9548.656652,1302.362347
72.769934,-814.226536,9474.636058,4060.306139
72.770243,1480.411884,8216.285956,4366.744339
72.770553,2738.761985,9474.636058,5056.230287
72.770862,370.102971,7476.080014,4213.525239
72.771172,1628.453072,9548.656652,-2451.505594
72.771481,-0.000000,11325.150913,-4443.353888
72.771791,-2220.617826,13619.789333,-3140.991542
72.772100,1036.288319,13471.748144,-2834.553343
72.772410,2072.576638,11843.295072,-7737.564530
72.772719,2442.679609,8216.285956,-7967.393179
72.773028,-1776.494261,5329.482782,689.485948
72.773338,-2812.782580,4589.276840,8044.002729
72.773647,-2738.761985,7994.224174,9499.584175
72.773957,2294.638420,6957.935855,3064.381992
72.774266,3330.926739,6365.771101,-2987.772442
72.774576,1110.308913,5181.441594,-6818.249932
72.774885,-2516.700203,7846.182985,-2451.505594
72.775194,-3404.947333,11473.192101,1225.752797
72.775504,-740.205942,13915.871710,-3600.648841
72.775813,2294.638420,14359.995275,-9116.536426
72.776123,148.041188,10881.027347,-6511.811733
72.776432,592.164754,9474.636058,-919.314598
72.776742,-2146.597232,7772.162391,5975.544884
72.777051,370.102971,8216.285956,8197.221829
72.777361,2442.679609,9770.718434,4903.011187
72.777670,2072.576638,8882.471304,-1762.019645
72.777979,1850.514855,8290.306550,-5669.106685
72.778289,-1776.494261,11991.336260,-3600.648841
72.778598,-3330.926739,14656.077652,-2834.553343
72.778908,1258.350101,14434.015869,-5822.325785
72.779217,3849.070898,11917.315666,-10495.508323
72.779527,-518.144159,8216.285956,-5439.278036
72.779836,-1332.370696,6069.688724,4596.572988
72.780146,-2368.659014,6143.709319,9116.536426
72.780455,666.185348,6587.832884,7277.907231
72.780764,2072.576638,8438.347739,4136.915689
72.781074,2886.803174,5107.421000,-6052.154434
72.781383,-740.205942,5477.523971,-4366.744339
72.781693,-3775.050304,9622.677246,0.000000
72.782002,-3627.009116,13323.706956,-1991.848295
72.782312,2368.659014,16950.716072,-7431.126331
72.782621,1554.432478,13989.892304,-9116.536426
72.782930,296.082377,9178.553681,-4290.134789
72.783240,-1258.350101,7402.059420,5132.839837
72.783549,-3552.988522,9104.533087,8656.879127
72.783859,2664.741391,7994.224174,8733.488677
72.784168,3182.885551,8290.306550,2145.067394
72.784478,1036.288319,7846.182985,-2374.896044
72.784787,-1110.308913,11991.336260,-3370.820191
72.785097,-1110.308913,15248.242405,-4673.182538
72.785406,-444.123565,16136.489536,-5592.497135
72.785715,3108.864956,14878.139434,-7201.297681
72.786025,888.247130,7994.224174,-6971.469032
72.786334,-3552.988522,6957.935855,0.000000
72.786644,-3182.885551,7550.100608,10035.851024
72.786953,-2072.576638,4737.318029,9882.631924
72.787263,2368.659014,6587.832884,3983.696590
72.787572,4071.132681,5403.503377,-2681.334243
72.787882,-74.020594,5625.565159,-6281.983084
72.788191,-2590.720797,7476.080014,-2757.943793
72.788500,-3478.967927,12731.542202,-459.657299
72.788810,-666.185348,14359.995275,-5132.839837
72.789119,2368.659014,13841.851115,-8963.317327
72.789429,-0.000000,10807.006753,-4366.744339
72.789738,-296.082377,7179.997637,-153.219100
72.790048,-0.000000,7994.224174,6281.983084
72.790357,-518.144159,6735.874072,9806.022374
72.790666,3404.947333,7105.977043,3447.429741
72.790976,3182.885551,7994.224174,-1915.238745
72.791285,740.205942,9548.656652,-4749.792088
72.791595,-2072.576638,11695.253884,-2987.772442
72.791904,-1924.535449,14137.933492,-3677.258390
72.792214,2072.576638,15174.221811,-4366.744339
72.792523,2368.659014,12287.418637,-9806.022374
72.792832,-0.000000,9622.677246,-5898.935335
72.793142,-2368.659014,7179.997637,2604.724693
72.793451,-1036.288319,5921.647536,8733.488677
72.793761,-148.041188,5403.503377,8580.269578
72.794070,2738.761985,6291.750507,2987.772442
72.794379,2442.679609,4515.256246,-4903.011187
72.794689,-370.102971,5329.482782,-6971.469032
72.794998,-3256.906145,8438.347739,-4060.306139
72.795308,-4145.153275,13397.727550,-4290.134789
72.795617,370.102971,15544.324782,-7048.078582
72.795927,2590.720797,13101.645173,-9346.365076
72.796236,1332.370696,9178.553681,-5286.058936
72.796545,-1776.494261,5181.441594,5132.839837
72.796855,-1998.556043,4219.173869,12870.404366
72.797164,2368.659014,6809.894666,8350.440928
72.797474,4145.153275,7772.162391,306.438199
72.797783,1184.329507,7179.997637,-4366.744339
72.798092,-1110.308913,12213.398043,-6281.983084
72.798402,-2368.659014,15248.242405,-7201.297681
72.798711,-1628.453072,18283.086767,-6511.811733
72.799021,2294.638420,16580.613101,-8427.050478
72.799330,-1406.391290,8068.244768,-7890.783629
72.799639,-1036.288319,8068.244768,1685.410096
72.799949,-2368.659014,5033.400406,9652.803275
72.800258,-1776.494261,3478.967927,10878.556072
72.800568,3849.070898,5107.421000,5515.887586
72.800877,3849.070898,6291.750507,-1455.581446
72.801187,1332.370696,7031.956449,-6665.030833
72.801496,-3330.926739,7105.977043,-4136.915689
72.801805,-4515.256246,12879.583391,-3370.820191
72.802115,-2146.597232,14656.077652,-4903.011187
72.802424,2220.617826,14359.995275,-8810.098227
72.802734,814.226536,12213.398043,-6511.811733
72.803043,-370.102971,7624.121203,2068.457845
72.803352,-962.267725,6365.771101,8810.098227
72.803662,1480.411884,6291.750507,8733.488677
72.803971,2516.700203,7105.977043,5669.106685
72.804281,1850.514855,9104.533087,-383.047749
72.804590,148.041188,9474.636058,-6205.373534
72.804899,-2664.741391,12731.542202,-5439.278036
72.805209,-2442.679609,14582.057057,-5209.449386
72.805518,-0.000000,16580.613101,-6358.592633
72.805828,3404.947333,12953.603985,-8733.488677
72.806137,-222.061783,8068.244768,-4673.182538
72.806447,-1702.473667,6883.915261,4903.011187
72.806756,-1110.308913,4663.297435,11491.432470
72.807065,-0.000000,5699.585753,7124.688131
72.807375,2812.782580,6883.915261,919.314598
72.807684,2738.761985,6439.791695,-6281.983084
72.807994,1036.288319,7254.018232,-6358.592633
72.808303,-2960.823768,11177.109724,-4749.792088
72.808612,-3034.844362,14582.057057,-3907.087040
72.808922,370.102971,14878.139434,-6205.373534
72.809231,3849.070898,11843.295072,-9576.193725
72.809541,-74.020594,6661.853478,-3907.087040
72.809850,-2368.659014,4663.297435,4826.401637
72.810159,-1110.308913,4367.215058,9806.022374
72.810469,592.164754,5551.544565,8120.612279
72.810778,3404.947333,7105.977043,689.485948
72.811088,2220.617826,7402.059420,-6128.763984
72.811397,-814.226536,12509.480420,-7584.345430
72.811706,-2886.803174,14211.954086,-3753.867940
72.812016,-1332.370696,17764.942608,-5439.278036
72.812325,2220.617826,13989.892304,-7277.907231
72.812635,1998.556043,11325.150913,-6894.859482
72.812944,-740.205942,7328.038826,-383.047749
72.813254,-1776.494261,5329.482782,7048.078582
72.813563,-148.041188,5773.606348,11797.870669
72.813872,1036.288319,6365.771101,5592.497135
72.814182,2368.659014,6809.894666,-2145.067394
72.814491,1036.288319,6513.812290,-6741.640382
72.814801,-592.164754,8882.471304,-6894.859482
72.815110,-2738.761985,10732.986159,-4903.011187
72.815419,-2072.576638,14804.118840,-2298.286494
72.815729,1998.556043,14137.933492,-6205.373534
72.816038,3849.070898,9474.636058,-7814.174080
72.816348,-592.164754,7402.059420,-995.924147
72.816657,-4293.194464,5773.606348,11491.432470
72.816966,-0.000000,4885.359217,10955.165621
72.817276,3627.009116,7772.162391,2604.724693
72.817585,222.061783,7846.182985,-3370.820191
72.817895,-592.164754,8512.368333,-4903.011187
72.818204,-2516.700203,11473.192101,-5898.935335
72.818514,-1628.453072,16506.592507,-4673.182538
72.818823,1406.391290,16876.695478,-3447.429741
72.819132,1036.288319,14285.974681,-6435.202183
72.819442,2812.782580,8290.306550,-4673.182538
72.819751,-1628.453072,7550.100608,5132.839837
72.820061,-4737.318029,4811.338623,9806.022374
72.820370,2294.638420,5995.668130,6971.469032
72.820679,1628.453072,10955.047942,-1149.143247
72.820989,1850.514855,7328.038826,-6818.249932
72.821298,222.061783,7254.018232,-7660.954980
72.821608,-3552.988522,11695.253884,-4903.011187
72.821917,-2220.617826,13841.851115,-2451.505594
72.822226,2960.823768,13101.645173,-3064.381992
72.822536,1850.514855,10955.047942,-7354.516781
72.822845,-0.000000,5551.544565,-2221.676944
72.823155,-1924.535449,4515.256246,5898.935335
72.823464,-2146.597232,4959.379811,7354.516781
72.823773,1702.473667,6883.915261,5439.278036
72.824083,3627.009116,8734.430116,-1149.143247
72.824392,-0.000000,10288.862594,-6205.373534
72.824702,740.205942,12583.501014,-7201.297681
72.825011,-1850.514855,12361.439231,-3830.477490
72.825321,-2072.576638,16580.613101,-3294.210641
72.825630,2220.617826,15174.221811,-6281.983084
72.825939,1924.535449,11547.212695,-9039.926876
72.826249,-74.020594,6883.915261,-1838.629195
72.826558,-962.267725,4663.297435,7431.126331
72.826868,-1184.329507,4811.338623,8580.269578
72.827177,1702.473667,4811.338623,4290.134789
72.827486,1850.514855,6291.750507,-1991.848295
72.827796,1924.535449,8586.388927,-7890.783629
72.828105,666.185348,8734.430116,-8503.660028
72.828415,-4737.318029,12213.398043,-3830.477490
72.828724,-1184.329507,14434.015869,-2911.162892
72.829033,3108.864956,12139.377449,-7354.516781
72.829343,1480.411884,8956.491898,-5898.935335
72.829652,-1406.391290,7846.182985,2681.334243
72.829962,-3034.844362,5773.606348,7584.345430
72.830271,-148.041188,6809.894666,5822.325785
72.830581,1554.432478,7846.182985,1762.019645
72.830890,3404.947333,8956.491898,-3677.258390
72.831199,2072.576638,10881.027347,-7890.783629
72.831509,-962.267725,12065.356855,-4749.792088
72.831818,-2368.659014,15174.221811,459.657299
72.832128,-1258.350101,17764.942608,1915.238745
72.832437,2368.659014,12435.459826,-7124.688131
72.832746,1628.453072,9770.718434,-5132.839837
72.833056,-1036.288319,5329.482782,1455.581446
72.833365,-666.185348,4959.379811,6052.154434
72.833675,-1110.308913,7698.141797,7660.954980
72.833984,3330.926739,8142.265362,2911.162892
72.834293,1998.556043,7550.100608,-4290.134789
72.834603,962.267725,7476.080014,-5669.106685
72.834912,-962.267725,11251.130318,-2834.553343
72.835222,-2368.659014,12805.562797,-3064.381992
72.835531,2146.597232,13545.768739,-6052.154434
72.835841,888.247130,10658.965565,-5132.839837
72.836150,-222.061783,7402.059420,-2451.505594
72.836459,-5773.606348,6439.791695,2221.676944
72.836769,-2072.576638,6957.935855,8197.221829
72.837078,1850.514855,8438.347739,3677.258390
72.837388,2664.741391,9474.636058,-3753.867940
72.837697,2220.617826,9326.594869,-4979.620737
72.838006,-1258.350101,9992.780217,-5132.839837
72.838316,-1850.514855,12583.501014,-3370.820191
72.838625,-1258.350101,14656.077652,-536.266849
72.838935,814.226536,14878.139434,-4596.572988
72.839244,3330.926739,11029.068536,-10418.898773
72.839553,518.144159,7328.038826,-3753.867940
72.839863,-2960.823768,4293.194464,4366.744339
72.840172,-1036.288319,6143.709319,7201.297681
72.840482,1554.432478,7402.059420,3983.696590
72.840791,3627.009116,7698.141797,-3600.648841
72.841100,962.267725,7994.224174,-5592.497135
72.841410,-1776.494261,10362.883188,-4903.011187
72.841719,-1554.432478,11399.171507,-2911.162892
72.842029,-888.247130,15026.180623,-1378.971896
72.842338,740.205942,13175.665768,-7431.126331
72.842648,888.247130,9030.512492,-6281.983084
72.842957,-1110.308913,8068.244768,-689.485948
72.843266,-3478.967927,6439.791695,6435.202183
72.843576,-1998.556043,10288.862594,7048.078582
72.843885,2368.659014,7698.141797,1838.629195
72.844195,2220.617826,7105.977043,-4366.744339
72.844504,1406.391290,8364.327145,-5592.497135
72.844813,-1184.329507,10436.903782,-4136.915689
72.845123,-1924.535449,14211.954086,-1991.848295
72.845432,-666.185348,15174.221811,-2987.772442
72.845742,2664.741391,12879.583391,-8120.612279
72.846051,370.102971,8512.368333,-7431.126331
72.846360,-0.000000,4293.194464,2374.896044
72.846670,-1258.350101,5033.400406,6052.154434
72.846979,370.102971,7698.141797,6511.811733
72.847289,2590.720797,9252.574275,2528.115143
72.847598,1628.453072,7476.080014,-2681.334243
72.847908,1332.370696,7698.141797,-6358.592633
72.848217,-2072.576638,9548.656652,-4903.011187
72.848526,-2738.761985,13101.645173,-1838.629195
72.848836,814.226536,13915.871710,-5209.449386
72.849145,2442.679609,11325.150913,-9116.536426
72.849455,-0.000000,8808.450710,-4060.306139
72.849764,-3775.050304,6883.915261,5592.497135
72.850073,-1406.391290,6587.832884,7737.564530
72.850383,2294.638420,8734.430116,4443.353888
72.850692,1184.329507,10066.800811,3447.429741
72.851002,1184.329507,7476.080014,-2757.943793
72.851311,-518.144159,8660.409521,-3140.991542
72.851620,-1480.411884,12139.377449,-1608.800546
72.851930,-1184.329507,14285.974681,-1762.019645
72.852239,-0.000000,14804.118840,-5975.544884
72.852549,518.144159,11843.295072,-7890.783629
72.852858,1110.308913,8364.327145,-4443.353888
72.853168,-1406.391290,7328.038826,3140.991542
72.853477,-2590.720797,6587.832884,5669.106685
72.853786,740.205942,8438.347739,6741.640382
72.854096,2812.782580,7402.059420,459.657299
72.854405,1998.556043,7476.080014,-5056.230287
72.854715,-444.123565,9326.594869,-3830.477490
72.855024,-4737.318029,9548.656652,-1991.848295
72.855333,-1776.494261,13249.686362,-2451.505594
72.855643,1924.535449,13323.706956,-7277.907231
72.855952,1110.308913,8808.450710,-7277.907231
72.856262,-2664.741391,7328.038826,-229.828649
72.856571,-3552.988522,6291.750507,5898.935335
72.856880,-0.000000,7476.080014,6818.249932
72.857190,888.247130,8512.368333,2604.724693
72.857499,2738.761985,7476.080014,-1915.238745
72.857809,1924.535449,7254.018232,-4826.401637
72.858118,-1406.391290,9844.739029,-3524.039291
72.858427,-3552.988522,13767.830521,-383.047749
72.858737,-666.185348,15988.448347,-3677.258390
72.859046,2516.700203,13693.809927,-10801.946522
72.859356,-148.041188,10436.903782,-10725.336972
72.859665,-2812.782580,6957.935855,-153.219100
72.859975,-2516.700203,5921.647536,6818.249932
72.860284,1406.391290,6809.894666,7814.174080
72.860593,4441.235652,5181.441594,6358.592633
72.860903,1110.308913,5995.668130,-306.438199
72.861212,592.164754,6513.812290,-3907.087040
72.861522,-1628.453072,9918.759623,-5592.497135
72.861831,-1406.391290,12805.562797,-4903.011187
72.862140,-148.041188,16210.510130,-3830.477490
72.862450,2590.720797,13175.665768,-7737.564530
72.862759,-74.020594,11843.295072,-5745.716235
72.863069,-3034.844362,7920.203579,2221.676944
72.863378,-1628.453072,6439.791695,8503.660028
72.863687,2294.638420,6291.750507,5592.497135
72.863997,3849.070898,7402.059420,1532.190996
72.864306,2072.576638,7105.977043,-2145.067394
72.864616,-0.000000,6439.791695,-4443.353888
72.864925,-666.185348,9400.615463,-1608.800546
72.865235,-1702.473667,13841.851115,-1915.238745
72.865544,962.267725,15248.242405,-5975.544884
72.865853,2294.638420,12065.356855,-10418.898773
72.866163,814.226536,8512.368333,-5439.278036
72.866472,-2590.720797,6587.832884,2911.162892
72.866782,370.102971,4885.359217,7584.345430
72.867091,2220.617826,5107.421000,7354.516781
72.867400,1184.329507,7328.038826,5286.058936
72.867710,1036.288319,7994.224174,-842.705048
72.868019,296.082377,7402.059420,-6741.640382
72.868329,-444.123565,11399.171507,-5745.716235
72.868638,-2220.617826,16358.551318,-4443.353888
72.868947,1332.370696,14878.139434,-6588.421283
72.869257,1850.514855,10510.924376,-9193.145976
72.869566,-1406.391290,7254.018232,-2068.457845
72.869876,-2368.659014,6661.853478,7431.126331
72.870185,-666.185348,7105.977043,10572.117872
72.870495,2220.617826,7105.977043,5209.449386
72.870804,3552.988522,7624.121203,-1072.533697
72.871113,1776.494261,7476.080014,-3983.696590
72.871423,-2072.576638,8734.430116,-3753.867940
72.871732,-3478.967927,13175.665768,-1762.019645
72.872042,-1480.411884,15988.448347,-4366.744339
72.872351,1628.453072,15174.221811,-10342.289223
72.872660,962.267725,11029.068536,-9576.193725
72.872970,-1628.453072,6809.894666,-1455.581446
72.873279,-1702.473667,5107.421000,6128.763984
72.873589,1184.329507,4737.318029,8197.221829
72.873898,2220.617826,4959.379811,7201.297681
72.874207,1258.350101,4589.276840,1149.143247
72.874517,1776.494261,6291.750507,-4979.620737
72.874826,-1702.473667,9474.636058,-7737.564530
72.875136,-2368.659014,14063.912898,-3600.648841
72.875445,-1480.411884,16506.592507,-5362.668486
72.875754,1776.494261,14285.974681,-9882.631924
72.876064,1850.514855,11177.109724,-7967.393179
72.876373,-592.164754,8586.388927,1915.238745
72.876683,-3182.885551,7254.018232,10648.727422
72.876992,1480.411884,7254.018232,9116.536426
72.877302,3627.009116,6957.935855,2451.505594
72.877611,2738.761985,7254.018232,-1532.190996
72.877920,-74.020594,7105.977043,-3830.477490
72.878230,-2220.617826,10140.821405,-4596.572988
72.878539,-1036.288319,15100.201217,-4826.401637
72.878849,518.144159,17024.736666,-8427.050478
72.879158,962.267725,14063.912898,-9422.974625
72.879467,370.102971,8808.450710,-4366.744339
72.879777,-1036.288319,5107.421000,2911.162892
72.880086,-296.082377,4589.276840,8810.098227
72.880396,-740.205942,3627.009116,10725.336972
72.880705,1184.329507,5477.523971,7660.954980
72.881014,2516.700203,5847.626942,-3370.820191
72.881324,1776.494261,8438.347739,-9576.193725
72.881633,-1628.453072,12361.439231,-6894.859482
72.881943,-3775.050304,15174.221811,-2374.896044
72.882252,370.102971,16358.551318,-7354.516781
72.882562,2812.782580,11917.315666,-8886.707777
72.882871,-0.000000,9400.615463,-1302.362347
72.883180,-3923.091493,6439.791695,7967.393179
72.883490,-1924.535449,8882.471304,8886.707777
72.883799,4145.153275,8364.327145,4596.572988
72.884109,4441.235652,7328.038826,-612.876398
72.884418,1554.432478,7105.977043,-1685.410096
72.884727,-592.164754,10066.800811,-1838.629195
72.885037,-2516.700203,11843.295072,-4596.572988
72.885346,-2146.597232,17246.798449,-6128.763984
72.885656,2442.679609,16062.468941,-9882.631924
72.885965,2220.617826,11621.233289,-10572.117872
72.886274,-1850.514855,7698.141797,2451.505594
72.886584,-2072.576638,4367.215058,9882.631924
72.886893,-148.041188,4885.359217,11568.042020
72.887203,2072.576638,3182.885551,6511.811733
72.887512,1850.514855,4811.338623,1149.143247
72.887822,2220.617826,5255.462188,-5286.058936
72.888131,-296.082377,8216.285956,-9576.193725
72.888440,-1850.514855,12953.603985,-4290.134789
72.888750,-2146.597232,15100.201217,-2528.115143
72.889059,2738.761985,13915.871710,-8120.612279
72.889369,1554.432478,11621.233289,-5898.935335
72.889678,-3478.967927,7328.038826,4519.963438
72.889987,-2368.659014,6661.853478,9422.974625
72.890297,1332.370696,7994.224174,5056.230287
72.890606,4367.215058,7402.059420,-4290.134789
72.890916,1258.350101,7105.977043,-1302.362347
72.891225,-1110.308913,7920.203579,-3217.601092
72.891534,-592.164754,11325.150913,-5592.497135
72.891844,-296.082377,15840.407159,-4749.792088
72.892153,-0.000000,18875.251521,-7814.174080
72.892463,2294.638420,12953.603985,-9193.145976
72.892772,1036.288319,7031.956449,-6205.373534
72.893081,-1554.432478,4441.235652,2987.772442
72.893391,148.041188,2146.597232,10955.165621
72.893700,-1332.370696,4441.235652,11721.261119
72.894010,1480.411884,5033.400406,6435.202183
72.894320,1480.411884,6587.832884,-4213.525239
72.894629,1702.473667,9696.697840,-11184.994271
72.894939,-1702.473667,11991.336260,-7354.516781
72.895248,-4737.318029,15544.324782,-2298.286494
72.895558,-222.061783,18061.024985,-5056.230287
72.895868,4219.173869,13397.727550,-8810.098227
72.896177,-1258.350101,8438.347739,-1762.019645
72.896487,-5551.544565,6365.771101,10342.289223
72.896796,296.082377,6069.688724,7660.954980
72.897106,2516.700203,7179.997637,2068.457845
72.897416,2812.782580,8290.306550,995.924147
72.897725,1480.411884,6217.729913,-1991.848295
72.898035,-1480.411884,8586.388927,-5286.058936
72.898344,-2960.823768,11917.315666,-1762.019645
72.898654,-1998.556043,15618.345376,-3140.991542
72.898964,3701.029710,16284.530724,-10189.070123
72.899273,1184.329507,12213.398043,-5286.058936
72.899583,-0.000000,6291.750507,-383.047749
72.899892,-2516.700203,2516.700203,6818.249932
72.900202,-74.020594,3849.070898,10878.556072
72.900512,814.226536,6365.771101,10342.289223
72.900821,3701.029710,7179.997637,1302.362347
72.901131,1702.473667,7994.224174,-7124.688131
72.901440,-1480.411884,12213.398043,-7048.078582
72.901750,-1924.535449,13619.789333,-5515.887586
72.902060,-1776.494261,17764.942608,-2451.505594
72.902369,1480.411884,17320.819043,-6665.030833
72.902679,1184.329507,10510.924376,-3217.601092
72.902988,-2220.617826,9178.553681,4366.744339
72.903298,-3182.885551,6587.832884,9729.412825
72.903607,3108.864956,4219.173869,6435.202183
72.903917,2960.823768,4515.256246,1149.143247
72.904227,814.226536,6513.812290,-919.314598
72.904536,-222.061783,7179.997637,-3294.210641
72.904846,-592.164754,11473.192101,-5592.497135
72.905155,-1258.350101,17024.736666,-6358.592633
72.905465,518.144159,15026.180623,-7048.078582
72.905775,1110.308913,13027.624579,-7814.174080
72.906084,-518.144159,8808.450710,-3370.820191
72.906394,-1110.308913,3997.112087,4903.011187
72.906703,-1036.288319,2886.803174,7354.516781
72.907013,-1258.350101,4293.194464,10342.289223
72.907323,3034.844362,7179.997637,3677.258390
72.907632,2146.597232,9104.533087,-6128.763984
72.907942,1258.350101,10436.903782,-8427.050478
72.908251,-1850.514855,11843.295072,-6281.983084
72.908561,-2368.659014,13693.809927,-3064.381992
72.908871,-0.000000,14582.057057,-1991.848295
72.909180,3256.906145,11843.295072,-5286.058936
72.909490,740.205942,9548.656652,-4519.963438
72.909799,-3478.967927,6217.729913,5439.278036
72.910109,-1184.329507,7031.956449,8580.269578
72.910419,2664.741391,8142.265362,2221.676944
72.910728,4515.256246,11029.068536,-2987.772442
72.911038,-148.041188,7254.018232,-1991.848295
72.911347,666.185348,9178.553681,-4903.011187
72.911657,-740.205942,12583.501014,-5286.058936
72.911966,-3330.926739,14434.015869,-1915.238745
72.912276,-888.247130,14508.036463,-4596.572988
72.912586,2368.659014,9104.533087,-8656.879127
72.912895,296.082377,5181.441594,-4366.744339
72.913205,-1998.556043,4811.338623,5592.497135
72.913514,-4737.318029,5329.482782,4749.792088
72.913824,666.185348,5921.647536,4443.353888
72.914134,1924.535449,7105.977043,-1991.848295
72.914443,1258.350101,8068.244768,-7660.954980
72.914753,-148.041188,8438.347739,-7890.783629
72.915062,-3108.864956,13249.686362,-3447.429741
72.915372,-592.164754,15174.221811,153.219100
72.915682,3034.844362,12509.480420,-5132.839837
72.915991,666.185348,10955.047942,-6741.640382
72.916301,-3701.029710,9918.759623,4596.572988
72.916610,-1776.494261,6587.832884,6128.763984
72.916920,740.205942,6587.832884,3217.601092
72.917230,2886.803174,8808.450710,3600.648841
72.917539,2294.638420,8290.306550,919.314598
72.917849,-0.000000,10066.800811,-3294.210641
72.918158,-370.102971,10288.862594,-3983.696590
72.918468,-2738.761985,14434.015869,-2221.676944
72.918778,1184.329507,16728.654289,-5898.935335
72.919087,1924.535449,13027.624579,-8656.879127
72.919397,-370.102971,10066.800811,-4136.915689
72.919706,-1850.514855,4811.338623,2374.896044
72.920016,-1998.556043,4737.318029,6818.249932
72.920325,-1184.329507,4145.153275,7201.297681
72.920635,4441.235652,8068.244768,-1302.362347
72.920945,2146.597232,6957.935855,-6358.592633
72.921254,296.082377,7624.121203,-7890.783629
72.921564,-2072.576638,9474.636058,-4213.525239
72.921873,-1110.308913,11103.089130,-612.876398
72.922183,222.061783,13027.624579,-1532.190996
72.922493,444.123565,11177.109724,-3830.477490
72.922802,740.205942,9400.615463,-3677.258390
72.923112,-2220.617826,7105.977043,612.876398
72.923421,-0.000000,6513.812290,612.876398
72.923731,1554.432478,9474.636058,3370.820191
72.924041,2886.803174,10288.862594,229.828649
72.924350,1998.556043,8660.409521,-2528.115143
72.924660,666.185348,8808.450710,-3064.381992
72.924969,-5033.400406,11991.336260,-1225.752797
72.925279,-1998.556043,14730.098246,-2374.896044
72.925589,1702.473667,15988.448347,-6741.640382
72.925898,2590.720797,12065.356855,-10495.508323
72.926208,-222.061783,8290.306550,-4519.963438
72.926517,-2886.803174,4293.194464,5515.887586
72.926827,-2294.638420,3997.112087,9039.926876
72.927137,666.185348,6439.791695,4979.620737
72.927446,1998.556043,6069.688724,-1225.752797
72.927756,2072.576638,7105.977043,-8503.660028
72.928065,-1110.308913,7994.224174,-7124.688131
72.928375,-1776.494261,10881.027347,-1991.848295
72.928685,-1406.391290,13397.727550,-1072.533697
72.928994,1258.350101,13249.686362,-6358.592633
72.929304,1480.411884,12139.377449,-6281.983084
72.929613,-3552.988522,7550.100608,0.000000
72.929923,-1406.391290,6217.729913,4213.525239
72.930232,740.205942,7476.080014,2987.772442
72.930542,4145.153275,8586.388927,1915.238745
72.930852,1776.494261,10436.903782,306.438199
72.931161,296.082377,8956.491898,-3294.210641
72.931471,444.123565,10881.027347,-4903.011187
72.931780,-3256.906145,14211.954086,-2911.162892
72.932090,370.102971,13545.768739,-7967.393179
72.932400,1628.453072,12509.480420,-7737.564530
72.932709,370.102971,9252.574275,-7431.126331
72.933019,-74.020594,4811.338623,-536.266849
72.933328,-1554.432478,4367.215058,6205.373534
72.933638,-518.144159,5773.606348,8810.098227
72.933948,3108.864956,7254.018232,3983.696590
72.934257,3997.112087,7328.038826,-3907.087040
72.934567,740.205942,6587.832884,-6971.469032
72.934876,-1850.514855,9326.594869,306.438199
72.935186,-2738.761985,13175.665768,0.000000
72.935496,-740.205942,13767.830521,-4136.915689
72.935805,666.185348,13545.768739,-7201.297681
72.936115,-370.102971,10288.862594,-3983.696590
72.936424,-370.102971,7920.203579,1762.019645
72.936734,-666.185348,8586.388927,4826.401637
72.937044,1998.556043,7698.141797,5209.449386
72.937353,2590.720797,7846.182985,2374.896044
72.937663,1110.308913,8142.265362,-1072.533697
72.937972,-1850.514855,7105.977043,-229.828649
72.938282,-2368.659014,10955.047942,-1991.848295
72.938591,-2072.576638,14582.057057,-4596.572988
72.938901,1702.473667,15692.365970,-6665.030833
72.939211,444.123565,12805.562797,-7124.688131
72.939520,-888.247130,8586.388927,-6281.983084
72.939830,-1998.556043,5625.565159,2987.772442
72.940139,-814.226536,4589.276840,9116.536426
72.940449,444.123565,6809.894666,6358.592633
72.940759,1184.329507,7476.080014,-229.828649
72.941068,740.205942,6143.709319,-3447.429741
72.941378,444.123565,8660.409521,-6588.421283
72.941687,222.061783,11029.068536,-5132.839837
72.941997,-1036.288319,14508.036463,-2757.943793
72.942307,-962.267725,14730.098246,-3907.087040
72.942616,518.144159,11991.336260,-8120.612279
72.942926,148.041188,8438.347739,-3907.087040
72.943235,-2072.576638,6883.915261,4749.792088
72.943545,-1036.288319,6439.791695,9346.365076
72.943855,2664.741391,8068.244768,4136.915689
72.944164,2516.700203,7328.038826,0.000000
72.944474,2146.597232,8290.306550,-2604.724693
72.944783,-1924.535449,10362.883188,-6818.249932
72.945093,-3034.844362,13397.727550,-4366.744339
72.945403,-1628.453072,15322.262999,-4366.744339
72.945712,1184.329507,13915.871710,-8503.660028
72.946022,1036.288319,9770.718434,-9269.755526
72.946331,-1924.535449,8068.244768,0.000000
72.946641,-2664.741391,6069.688724,5592.497135
72.946950,-222.061783,6217.729913,8273.831378
72.947260,2516.700203,7476.080014,5362.668486
72.947570,2146.597232,4737.318029,-306.438199
72.947879,3330.926739,8068.244768,-6818.249932
72.948189,-1924.535449,7698.141797,-4979.620737
72.948498,-2886.803174,12879.583391,-2374.896044
72.948808,-1480.411884,14211.954086,-3907.087040
72.949118,1258.350101,14878.139434,-6741.640382
72.949427,1998.556043,12287.418637,-8044.002729
72.949737,-2368.659014,7550.100608,-536.266849
72.950046,-1628.453072,7846.182985,8350.440928
72.950356,1850.514855,7254.018232,9499.584175
72.950666,3256.906145,9770.718434,4596.572988
72.950975,2442.679609,7254.018232,76.609550
72.951285,-1258.350101,7772.162391,-1838.629195
72.951594,-2812.782580,11473.192101,-4060.306139
72.951904,-888.247130,16136.489536,-7354.516781
72.952214,888.247130,16284.530724,-10342.289223
72.952523,592.164754,14508.036463,-8427.050478
72.952833,962.267725,8882.471304,-4749.792088
72.953142,-3182.885551,4959.379811,3294.210641
72.953452,-3256.906145,7402.059420,10112.460574
72.953762,740.205942,3923.091493,9806.022374
72.954071,1998.556043,4959.379811,2604.724693
72.954381,2886.803174,5403.503377,-4136.915689
72.954690,814.226536,6661.853478,-7201.297681
72.955000,-3404.947333,11547.212695,-4443.353888
72.955309,-3108.864956,15174.221811,-2298.286494
72.955619,1998.556043,14656.077652,-7660.954980
72.955929,740.205942,13397.727550,-9499.584175
72.956238,-888.247130,10066.800811,-2757.943793
72.956548,-2590.720797,5107.421000,5056.230287
72.956857,-740.205942,7105.977043,7584.345430
72.957167,4515.256246,7698.141797,6435.202183
72.957477,2368.659014,6809.894666,1991.848295
72.957786,4293.194464,5699.585753,-2221.676944
72.958096,370.102971,8586.388927,-4903.011187
72.958405,-888.247130,13471.748144,-5209.449386
72.958715,-2812.782580,17616.901420,-4826.401637
72.959025,1036.288319,16284.530724,-6971.469032
72.959334,2812.782580,13397.727550,-7124.688131
72.959644,-296.082377,7476.080014,-2604.724693
72.959953,-2738.761985,3997.112087,6818.249932
72.960263,-0.000000,6291.750507,8963.317327
72.960573,3182.885551,4885.359217,8733.488677
72.960882,2738.761985,6587.832884,-1225.752797
72.961192,-0.000000,5995.668130,-4519.963438
72.961501,-1776.494261,6365.771101,-4979.620737
72.961811,-3256.906145,11843.295072,-1302.362347
72.962121,-2960.823768,15248.242405,-3600.648841
72.962430,1036.288319,14359.995275,-10955.165621
72.962740,1036.288319,11547.212695,-8044.002729
72.963049,-740.205942,7402.059420,306.438199
72.963359,-518.144159,5995.668130,6128.763984
72.963669,-0.000000,4811.338623,10265.679673
72.963978,1480.411884,6513.812290,7584.345430
72.964288,1258.350101,7031.956449,-306.438199
72.964597,814.226536,8216.285956,-5669.106685
72.964907,-1554.432478,13397.727550,-5898.935335
72.965216,-1406.391290,16728.654289,-6435.202183
72.965526,1628.453072,16950.716072,-8810.098227
72.965836,2368.659014,14359.995275,-9193.145976
72.966145,-1628.453072,9252.574275,-2221.676944
72.966455,-2590.720797,4515.256246,5132.839837
72.966764,-74.020594,4293.194464,8810.098227
72.967074,3701.029710,4885.359217,5439.278036
72.967384,1850.514855,5921.647536,2451.505594
72.967693,814.226536,5033.400406,153.219100
72.968003,-74.020594,8290.306550,-4443.353888
72.968312,-1628.453072,9548.656652,-6588.421283
72.968622,-3182.885551,15692.365970,-3983.696590
72.968932,-1998.556043,16802.674883,-4443.353888
72.969241,1850.514855,11473.192101,-8656.879127
72.969551,740.205942,9622.677246,-5898.935335
72.969860,-1628.453072,5699.585753,3983.696590
72.970170,-1110.308913,3256.906145,9193.145976
72.970480,888.247130,5033.400406,8656.879127
72.970789,1628.453072,7994.224174,5209.449386
72.971099,2294.638420,7698.141797,-1532.190996
72.971408,-0.000000,9474.636058,-6205.373534
72.971718,-1628.453072,12657.521608,-6128.763984
72.972028,-4737.318029,16284.530724,-4903.011187
72.972337,1036.288319,16580.613101,-7890.783629
72.972647,1850.514855,12879.583391,-9116.536426
72.972956,-444.123565,9030.512492,-689.485948
72.973266,-296.082377,6291.750507,7660.954980
72.973575,1036.288319,3775.050304,8656.879127
72.973885,1924.535449,4737.318029,6588.421283
72.974195,2516.700203,5551.544565,536.266849
72.974504,1998.556043,7254.018232,-6511.811733
72.974814,-4071.132681,10732.986159,-5745.716235
72.975123,-3552.988522,13915.871710,-3140.991542
72.975433,-666.185348,16728.654289,-5209.449386
72.975743,1628.453072,14656.077652,-10418.898773
72.976052,1036.288319,10732.986159,-7814.174080
72.976362,-2146.597232,5551.544565,-3600.648841
72.976671,-518.144159,3330.926739,7354.516781
72.976981,296.082377,2960.823768,10342.289223
72.977291,1850.514855,6957.935855,7354.516781
72.977600,2146.597232,7179.997637,76.609550
72.977910,666.185348,6587.832884,-6435.202183
72.978219,-1406.391290,12361.439231,-7431.126331
72.978529,-4071.132681,14952.160028,-5209.449386
72.978839,1184.329507,18505.148550,-7967.393179
72.979148,1702.473667,15544.324782,-10955.165621
72.979458,-444.123565,11177.109724,-3983.696590
72.979767,-2442.679609,3997.112087,7201.297681
72.980077,-1110.308913,3256.906145,9576.193725
72.980387,1554.432478,5921.647536,7507.735880
72.980696,2146.597232,6661.853478,2451.505594
72.981006,1850.514855,6883.915261,-4826.401637
72.981315,-592.164754,7994.224174,-7124.688131
72.981625,-2738.761985,11547.212695,-4596.572988
72.981934,-3330.926739,14063.912898,-1072.533697
72.982244,962.267725,16432.571912,-4903.011187
72.982554,444.123565,13397.727550,-6665.030833
72.982863,740.205942,8142.265362,-3064.381992
72.983173,222.061783,5551.544565,3370.820191
72.983482,-1184.329507,3404.947333,8044.002729
72.983792,1258.350101,5033.400406,8810.098227
72.984102,1850.514855,9178.553681,3294.210641
72.984411,1406.391290,9622.677246,-4826.401637
72.984721,-296.082377,10732.986159,-5898.935335
72.985030,-2886.803174,12361.439231,-5209.449386
72.985340,-1480.411884,15100.201217,-5439.278036
72.985650,2220.617826,17246.798449,-8427.050478
72.985959,2664.741391,10214.842000,-7967.393179
72.986269,-2590.720797,6883.915261,3753.867940
72.986578,-1554.432478,5625.565159,10189.070123
72.986888,1036.288319,3775.050304,7660.954980
72.987198,2738.761985,4663.297435,3907.087040
72.987507,444.123565,5403.503377,995.924147
72.987817,740.205942,5995.668130,-6818.249932
72.988126,518.144159,10658.965565,-8733.488677
72.988436,-2886.803174,13545.768739,-6281.983084
72.988746,-1702.473667,16802.674883,-3217.601092
72.989055,2072.576638,15100.201217,-5439.278036
72.989365,2072.576638,10807.006753,-6511.811733
72.989674,-148.041188,6439.791695,229.828649
72.989984,-2220.617826,3997.112087,8120.612279
72.990294,-0.000000,4219.173869,8810.098227
72.990603,1258.350101,4071.132681,4290.134789
72.990913,2368.659014,7105.977043,-1838.629195
72.991222,518.144159,9696.697840,-6665.030833
72.991532,-888.247130,9622.677246,-6128.763984
72.991841,-2590.720797,15396.283594,-3294.210641
72.992151,-1110.308913,19245.354492,-3677.258390
72.992461,3478.967927,13619.789333,-8656.879127
72.992770,-666.185348,9770.718434,-4826.401637
72.993080,-1924.535449,6217.729913,3830.477490
72.993389,592.164754,4293.194464,7431.126331
72.993699,1776.494261,6365.771101,4673.182538
72.994009,1850.514855,6365.771101,3447.429741
72.994318,1036.288319,7994.224174,-1762.019645
72.994628,-370.102971,7031.956449,-6435.202183
72.994937,-740.205942,11843.295072,-5209.449386
72.995247,-2442.679609,15100.201217,-3983.696590
72.995557,-148.041188,14063.912898,-3600.648841
72.995866,1998.556043,11843.295072,-5592.497135
72.996176,-222.061783,8586.388927,-1685.410096
72.996485,-1924.535449,5033.400406,5745.716235
72.996795,-518.144159,3849.070898,6741.640382
72.997105,518.144159,6957.935855,5745.716235
72.997414,3034.844362,9252.574275,306.438199
72.997724,-2072.576638,10732.986159,-3140.991542
72.998033,-1110.308913,10066.800811,-5669.106685
72.998343,-3034.844362,12879.583391,-2834.553343
72.998652,-2294.638420,15988.448347,-2834.553343
72.998962,2072.576638,15914.427753,-6205.373534
72.999272,1998.556043,13101.645173,-8350.440928
72.999581,-962.267725,6365.771101,-1149.143247
72.999891,-1628.453072,5181.441594,5592.497135
73.000200,962.267725,2590.720797,6128.763984
73.000510,74.020594,4515.256246,5209.449386
73.000820,666.185348,7105.977043,1991.848295
73.001129,-0.000000,7476.080014,-1991.848295
73.001439,1628.453072,9326.594869,-6128.763984
73.001748,-1998.556043,14285.974681,-4213.525239
73.002058,-814.226536,16728.654289,-1225.752797
73.002367,666.185348,13693.809927,-5669.106685
73.002677,1702.473667,11029.068536,-7354.516781
73.002987,-1480.411884,7624.121203,-1072.533697
73.003296,-1924.535449,6735.874072,6128.763984
73.003606,-0.000000,5847.626942,5975.544884
73.003915,1776.494261,7476.080014,2451.505594
73.004225,2072.576638,8142.265362,-2145.067394
73.004535,888.247130,8068.244768,-4903.011187
73.004844,-2294.638420,8586.388927,-7660.954980
73.005154,-2516.700203,12731.542202,-2068.457845
73.005463,-74.020594,14952.160028,-2911.162892
73.005773,2368.659014,13027.624579,-7431.126331
73.006082,740.205942,8438.347739,-4290.134789
73.006392,740.205942,5773.606348,1225.752797
73.006702,-1554.432478,3552.988522,4136.915689
73.007011,1332.370696,5921.647536,5515.887586
73.007321,518.144159,7698.141797,3217.601092
73.007630,2886.803174,8734.430116,-4979.620737
73.007940,1406.391290,10955.047942,-4749.792088
73.008250,-1850.514855,11991.336260,-4749.792088
73.008559,-2146.597232,13841.851115,-2221.676944
73.008869,-296.082377,15026.180623,-4136.915689
73.009178,2368.659014,11547.212695,-2221.676944
73.009488,518.144159,9622.677246,-4136.915689
73.009797,-2220.617826,7031.956449,1225.752797
73.010107,-1036.288319,5033.400406,5209.449386
73.010417,3182.885551,6217.729913,4673.182538
73.010726,2738.761985,5477.523971,1072.533697
73.011036,-1184.329507,7920.203579,-229.828649
73.011345,296.082377,7031.956449,-1762.019645
73.011655,-1702.473667,10807.006753,-4903.011187
73.011965,-1702.473667,16210.510130,-5362.668486
73.012274,-740.205942,14878.139434,-4596.572988
73.012584,1036.288319,12509.480420,-8580.269578
73.012893,1258.350101,8882.471304,-5209.449386
73.013203,-1850.514855,6365.771101,2451.505594
73.013513,-4589.276840,3923.091493,6511.811733
73.013822,1776.494261,6439.791695,5745.716235
73.014132,1406.391290,7994.224174,2528.115143
73.014441,1036.288319,8290.306550,-2145.067394
73.014751,370.102971,9326.594869,-6435.202183
73.015060,-1998.556043,11769.274478,-4903.011187
73.015370,-1480.411884,16210.510130,-2987.772442
73.015680,518.144159,14508.036463,-6358.592633
73.015989,2220.617826,12287.418637,-8044.002729
73.016299,-1406.391290,7994.224174,-2681.334243
73.016608,-2072.576638,5255.462188,5898.935335
73.016918,1036.288319,5033.400406,6741.640382
73.017228,2294.638420,7105.977043,4749.792088
73.017537,2738.761985,8586.388927,536.266849
73.017847,222.061783,7179.997637,0.000000
73.018156,-518.144159,9548.656652,-3600.648841
73.018466,-2886.803174,12731.542202,-3600.648841
73.018775,-962.267725,15470.304188,-4060.306139
73.019085,-2220.617826,13175.665768,-7277.907231
73.019395,-0.000000,10658.965565,-6588.421283
73.019704,-296.082377,6291.750507,-1149.143247
73.020014,-1480.411884,4441.235652,5592.497135
73.020323,370.102971,6661.853478,8963.317327
73.020633,2738.761985,7105.977043,4903.011187
73.020943,3108.864956,8142.265362,-1915.238745
73.021252,740.205942,8364.327145,-4979.620737
73.021562,-740.205942,10140.821405,-3753.867940
73.021871,-2368.659014,13767.830521,-1915.238745
73.022181,-962.267725,16580.613101,-5286.058936
73.022490,2442.679609,14285.974681,-8733.488677
73.022800,-222.061783,8660.409521,-6971.469032
73.023110,-3478.967927,5847.626942,1608.800546
73.023419,-222.061783,5625.565159,2604.724693
73.023729,3034.844362,6069.688724,3830.477490
73.024038,2072.576638,8364.327145,1685.410096
73.024348,1628.453072,8364.327145,1378.971896
73.024658,518.144159,7550.100608,-4136.915689
73.024967,-592.164754,12583.501014,-8197.221829
73.025277,-1702.473667,15174.221811,-1991.848295
73.025586,-1628.453072,15914.427753,-6205.373534
73.025896,2442.679609,15100.201217,-11338.213370
73.026205,-222.061783,8586.388927,-4749.792088
73.026515,-2294.638420,6217.729913,0.000000
73.026825,592.164754,4811.338623,5745.716235
73.027134,1628.453072,5551.544565,6971.469032
73.027444,1406.391290,5625.565159,6205.373534
73.027753,-148.041188,6883.915261,2681.334243
73.028063,-296.082377,7550.100608,-4826.401637
73.028373,-0.000000,9918.759623,-5822.325785
73.028682,-370.102971,16802.674883,-6665.030833
73.028992,-666.185348,17246.798449,-8886.707777
73.029301,-444.123565,12953.603985,-8197.221829
73.029611,-962.267725,9252.574275,-1838.629195
73.029920,-2072.576638,6513.812290,4749.792088
73.030230,-888.247130,5477.523971,8427.050478
73.030540,2368.659014,6365.771101,5822.325785
73.030849,2664.741391,6883.915261,-383.047749
73.031159,2220.617826,8882.471304,-4213.525239
73.031468,-1036.288319,9030.512492,-5132.839837
73.031778,-2812.782580,11399.171507,-3753.867940
73.032088,-888.247130,16580.613101,-2451.505594
73.032397,-888.247130,15322.262999,-7890.783629
73.032707,1480.411884,12731.542202,-8120.612279
73.033016,1036.288319,5551.544565,-3217.601092
73.033326,-0.000000,3775.050304,5056.230287
73.033636,296.082377,4071.132681,10112.460574
73.033945,888.247130,4811.338623,9039.926876
73.034255,2072.576638,5995.668130,2911.162892
73.034564,1702.473667,8512.368333,-4060.306139
73.034874,-518.144159,9400.615463,-5439.278036
73.035183,-1554.432478,15692.365970,-3753.867940
73.035493,-592.164754,15988.448347,-6818.249932
73.035803,1406.391290,15988.448347,-9116.536426
73.036112,-740.205942,12361.439231,-4673.182538
73.036422,-3182.885551,7846.182985,2298.286494
73.036731,-444.123565,7476.080014,6818.249932
73.037041,1332.370696,6809.894666,7124.688131
73.037351,2664.741391,7698.141797,2834.553343
73.037660,1628.453072,4959.379811,995.924147
73.037970,-1702.473667,7254.018232,-1685.410096
73.038279,-4293.194464,9474.636058,-1455.581446
73.038589,-1924.535449,14211.954086,-4596.572988
73.038898,1258.350101,15914.427753,-10189.070123
73.039208,2368.659014,12805.562797,-11184.994271
73.039518,-444.123565,8364.327145,-3983.696590
73.039827,-1184.329507,3182.885551,2681.334243
73.040137,1702.473667,2516.700203,7048.078582
73.040446,740.205942,4589.276840,9882.631924
73.040756,296.082377,6069.688724,6971.469032
73.041066,1110.308913,8364.327145,-2068.457845
73.041375,1628.453072,10140.821405,-10035.851024
73.041685,-0.000000,14508.036463,-9269.755526
73.041994,-2960.823768,17838.963202,-5209.449386
73.042304,-592.164754,15100.201217,-4826.401637
73.042613,1110.308913,15174.221811,-7354.516781
73.042923,-0.000000,10584.944971,-2911.162892
73.043233,-1850.514855,7402.059420,4903.011187
73.043542,148.041188,5995.668130,7814.174080
73.043852,3775.050304,6291.750507,3677.258390
73.044161,1702.473667,6291.750507,76.609550
73.044471,-148.041188,5625.565159,-766.095498
73.044781,-3849.070898,9252.574275,1532.190996
73.045090,-1036.288319,12509.480420,-4366.744339
73.045400,-1332.370696,16950.716072,-7507.735880
73.045709,-0.000000,15692.365970,-9806.022374
73.046019,1850.514855,10658.965565,-9116.536426
73.046328,1184.329507,5995.668130,-6511.811733
73.046638,-370.102971,3330.926739,4290.134789
73.046948,-888.247130,4071.132681,11338.213370
73.047257,518.144159,4811.338623,9422.974625
73.047567,1110.308913,7476.080014,1915.238745
73.047876,1110.308913,8068.244768,-5822.325785
73.048186,296.082377,9918.759623,-9499.584175
73.048496,-2146.597232,14137.933492,-8886.707777
73.048805,-1850.514855,15692.365970,-5669.106685
73.049115,1406.391290,16802.674883,-6205.373534
73.049424,1406.391290,13175.665768,-6052.154434
73.049734,-222.061783,8734.430116,1838.629195
73.050044,-1332.370696,4885.359217,10189.070123
73.050353,2146.597232,4885.359217,9193.145976
73.050663,2886.803174,7772.162391,689.485948
73.050972,2220.617826,5033.400406,766.095498
73.051282,-2442.679609,8882.471304,-1608.800546
73.051591,-2738.761985,12731.542202,-4366.744339
73.051901,-2442.679609,17690.922014,-4826.401637
73.052211,-814.226536,18801.230927,-8580.269578
73.052520,2220.617826,14878.139434,-11184.994271
73.052830,740.205942,8808.450710,-6511.811733
73.053139,-1924.535449,4441.235652,3370.820191
73.053449,-2368.659014,3404.947333,9882.631924
73.053759,-296.082377,3330.926739,12717.185267
73.054068,1332.370696,5477.523971,7354.516781
73.054378,-148.041188,5255.462188,-1685.410096
73.054687,1702.473667,6217.729913,-8886.707777
73.054997,-296.082377,9178.553681,-8350.440928
73.055306,-2072.576638,16432.571912,-4903.011187
73.055616,-814.226536,16358.551318,-5745.716235
73.055926,1702.473667,14211.954086,-6894.859482
73.056235,1036.288319,10214.842000,-2604.724693
73.056545,-2442.679609,5773.606348,6128.763984
73.056854,592.164754,4589.276840,9116.536426
73.057164,2738.761985,6143.709319,4596.572988
73.057474,1924.535449,6957.935855,0.000000
73.057783,1184.329507,9696.697840,-5975.544884
73.058093,-1036.288319,11177.109724,-4673.182538
73.058402,-2664.741391,15840.407159,-5822.325785
73.058712,-1924.535449,19171.333898,-5975.544884
73.059021,2368.659014,16506.592507,-11108.384721
73.059331,1258.350101,9918.759623,-9193.145976
73.059641,-814.226536,4959.379811,0.000000
73.059950,222.061783,1258.350101,5669.106685
73.060260,740.205942,1406.391290,8427.050478
73.060569,1702.473667,5033.400406,7660.954980
73.060879,666.185348,6587.832884,3983.696590
73.061189,296.082377,7254.018232,-5669.106685
73.061498,-0.000000,9770.718434,-10801.946522
73.061808,-814.226536,12139.377449,-7354.516781
73.062117,-370.102971,16802.674883,-6894.859482
73.062427,-222.061783,15100.201217,-6205.373534
73.062736,-444.123565,11769.274478,-2681.334243
73.063046,-74.020594,6809.894666,1991.848295
73.063356,-1480.411884,5551.544565,4903.011187
73.063665,-370.102971,5403.503377,8044.002729
73.063975,2738.761985,5551.544565,2681.334243
73.064284,1480.411884,7698.141797,-3830.477490
73.064594,-1332.370696,9178.553681,-3907.087040
73.064904,-5625.565159,11177.109724,-4443.353888
73.065213,-2368.659014,15544.324782,-6205.373534
73.065523,1110.308913,17098.757260,-8044.002729
73.065832,2072.576638,14137.933492,-7431.126331
73.066142,1406.391290,7624.121203,-5822.325785
73.066451,518.144159,3404.947333,1991.848295
73.066761,-888.247130,2072.576638,10418.898773
73.067071,1332.370696,3108.864956,10572.117872
73.067380,1406.391290,7402.059420,5362.668486
73.067690,1036.288319,10732.986159,0.000000
73.067999,148.041188,8660.409521,-7737.564530
73.068309,-592.164754,13397.727550,-8656.879127
73.068619,-2442.679609,14285.974681,-4290.134789
73.068928,-1036.288319,16802.674883,-3294.210641
73.069238,370.102971,16728.654289,-5515.887586
73.069547,888.247130,10288.862594,-2528.115143
73.069857,-1998.556043,6661.853478,6665.030833
73.070167,518.144159,5181.441594,9269.755526
73.070476,1702.473667,5329.482782,5898.935335
73.070786,1850.514855,5551.544565,689.485948
73.071095,-1628.453072,7846.182985,-689.485948
73.071405,-2294.638420,8586.388927,-2757.943793
73.071714,-2072.576638,13915.871710,-5056.230287
73.072024,-0.000000,15618.345376,-3217.601092
73.072334,2368.659014,15766.386565,-8044.002729
73.072643,1110.308913,10066.800811,-7584.345430
73.072953,444.123565,3997.112087,-766.095498
73.073262,-370.102971,1110.308913,6588.421283
73.073572,-1036.288319,2442.679609,10648.727422
73.073882,518.144159,6069.688724,8656.879127
73.074191,1184.329507,7624.121203,766.095498
73.074501,1110.308913,9104.533087,-8120.612279
73.074810,-296.082377,9030.512492,-11184.994271
73.075120,-962.267725,14359.995275,-4596.572988
73.075429,-3997.112087,17690.922014,-3294.210641
73.075739,666.185348,15914.427753,-4596.572988
73.076049,2220.617826,13175.665768,-5592.497135
73.076358,-148.041188,8068.244768,-3524.039291
73.076668,-222.061783,5477.523971,6205.373534
73.076977,-0.000000,5181.441594,6588.421283
73.077287,2146.597232,5403.503377,1072.533697
73.077597,1480.411884,7994.224174,-842.705048
73.077906,-2812.782580,10362.883188,-1532.190996
73.078216,-2220.617826,11547.212695,-4060.306139
73.078525,-962.267725,14508.036463,-4673.182538
73.078835,-814.226536,16950.716072,-7354.516781
73.079144,1036.288319,12805.562797,-8427.050478
73.079454,2294.638420,6587.832884,-7124.688131
73.079764,-1036.288319,3627.009116,2451.505594
73.080073,-2442.679609,3404.947333,8733.488677
73.080383,1332.370696,4737.318029,8810.098227
73.080692,666.185348,5181.441594,3983.696590
73.081002,1480.411884,7624.121203,-3064.381992
73.081312,1406.391290,7624.121203,-9039.926876
73.081621,-0.000000,10214.842000,-8810.098227
73.081931,-0.000000,14730.098246,-4903.011187
73.082240,-592.164754,15840.407159,-766.095498
73.082550,962.267725,14878.139434,-3907.087040
73.082859,888.247130,11399.171507,-3677.258390
73.083169,222.061783,5403.503377,1302.362347
73.083479,-814.226536,5255.462188,5209.449386
73.083788,1258.350101,7105.977043,4673.182538
73.084098,4219.173869,7476.080014,1762.019645
73.084407,666.185348,9696.697840,689.485948
73.084717,-2516.700203,11547.212695,-612.876398
73.085027,666.185348,12583.501014,-3140.991542
73.085336,-740.205942,16432.571912,-5439.278036
73.085646,888.247130,16432.571912,-7584.345430
73.085955,1480.411884,11325.150913,-7048.078582
73.086265,-3627.009116,7105.977043,-4213.525239
73.086575,-1776.494261,3775.050304,4060.306139
73.086884,-1702.473667,6069.688724,8963.317327
73.087194,-0.000000,6291.750507,6358.592633
73.087503,370.102971,6661.853478,383.047749
73.087813,518.144159,6809.894666,-3677.258390
73.088122,222.061783,8290.306550,-6818.249932
73.088432,-1110.308913,11177.109724,-4443.353888
73.088742,-2442.679609,14434.015869,76.609550
73.089051,444.123565,14434.015869,-3064.381992
73.089361,2442.679609,10214.842000,-7048.078582
73.089670,-222.061783,6883.915261,-2451.505594
73.089980,-1332.370696,5329.482782,3524.039291
73.090290,-148.041188,5107.421000,6435.202183
73.090599,962.267725,8290.306550,2145.067394
73.090909,2072.576638,9548.656652,1225.752797
73.091218,-0.000000,11325.150913,-2681.334243
73.091528,-1110.308913,11843.295072,-4443.353888
73.091837,-2368.659014,15544.324782,-4903.011187
73.092147,-0.000000,17764.942608,-6511.811733
73.092457,1406.391290,13619.789333,-8656.879127
73.092766,-518.144159,10214.842000,-3830.477490
73.093076,-0.000000,4959.379811,2451.505594
73.093385,-1110.308913,740.205942,3064.381992
73.093695,1258.350101,5255.462188,5439.278036
73.094005,148.041188,6217.729913,3907.087040
73.094314,666.185348,7179.997637,-1991.848295
73.094624,1998.556043,7105.977043,-6665.030833
73.094933,-666.185348,10066.800811,-4903.011187
73.095243,-1406.391290,11843.295072,-2451.505594
73.095552,-1850.514855,14359.995275,-689.485948
73.095862,1110.308913,13397.727550,-4443.353888
73.096171,1998.556043,9326.594869,-3217.601092
73.096481,-444.123565,7031.956449,-1225.752797
73.096790,-1184.329507,5403.503377,3753.867940
73.097100,666.185348,8142.265362,4673.182538
73.097409,1628.453072,9104.533087,2298.286494
73.097719,-1332.370696,10584.944971,-612.876398
73.098028,-0.000000,11325.150913,-2987.772442
73.098338,-1184.329507,12953.603985,-3294.210641
73.098647,-1184.329507,15248.242405,-4979.620737
73.098957,222.061783,13323.706956,-7507.735880
73.099266,1702.473667,11621.233289,-6511.811733
73.099576,888.247130,8512.368333,-3830.477490
73.099885,296.082377,4293.194464,2145.067394
73.100195,222.061783,3404.947333,6818.249932
73.100504,814.226536,3775.050304,6741.640382
73.100814,1850.514855,6883.915261,4213.525239
73.101123,296.082377,6439.791695,-1915.238745
73.101433,-0.000000,7550.100608,-4519.963438
73.101742,-592.164754,11769.274478,-4290.134789
73.102052,-1110.308913,13101.645173,-2451.505594
73.102361,666.185348,15396.283594,-4903.011187
73.102671,-444.123565,13249.686362,-5439.278036
73.102980,592.164754,9252.574275,-2681.334243
73.103290,-1998.556043,5921.647536,2374.896044
73.103599,518.144159,5329.482782,5975.544884
73.103909,518.144159,9548.656652,6358.592633
73.104218,1332.370696,10732.986159,995.924147
73.104528,-0.000000,8808.450710,-3064.381992
73.104837,-296.082377,7476.080014,-1072.533697
73.105147,-2220.617826,12583.501014,-2451.505594
73.105456,-296.082377,14508.036463,-5898.935335
73.105766,1110.308913,13249.686362,-8197.221829
73.106075,888.247130,9474.636058,-6435.202183
73.106385,222.061783,3923.091493,153.219100
73.106694,370.102971,4219.173869,5515.887586
73.107004,740.205942,4071.132681,7354.516781
73.107313,592.164754,6587.832884,4519.963438
73.107623,3849.070898,6735.874072,-383.047749
73.107932,518.144159,8216.285956,-4290.134789
73.108242,-444.123565,9622.677246,-5592.497135
73.108551,-2368.659014,13545.768739,-2987.772442
73.108861,-1406.391290,16876.695478,-4443.353888
73.109170,2516.700203,16506.592507,-8273.831378
73.109480,2664.741391,11177.109724,-8044.002729
73.109789,-592.164754,7402.059420,-842.705048
73.110099,-148.041188,6957.935855,6281.983084
73.110408,1036.288319,5403.503377,8656.879127
73.110718,2590.720797,6957.935855,5056.230287
73.111027,-0.000000,8290.306550,919.314598
73.111337,-2368.659014,9548.656652,-1685.410096
73.111646,-962.267725,11843.295072,-6588.421283
73.111956,740.205942,13323.706956,-9039.926876
73.112265,518.144159,16506.592507,-9116.536426
73.112575,-0.000000,13101.645173,-6741.640382
73.112884,-370.102971,7624.121203,-2987.772442
73.113194,518.144159,3775.050304,2987.772442
73.113503,-1776.494261,4515.256246,6971.469032
73.113813,-0.000000,4293.194464,8044.002729
73.114122,1924.535449,6513.812290,3294.210641
73.114432,1998.556043,6439.791695,-4673.182538
73.114741,444.123565,7994.224174,-7431.126331
73.115051,-1776.494261,10584.944971,-4749.792088
73.115360,-2072.576638,15396.283594,-3524.039291
73.115670,-0.000000,16580.613101,-6741.640382
73.115979,2442.679609,14285.974681,-8427.050478
73.116289,-296.082377,7994.224174,-3830.477490
73.116598,962.267725,5181.441594,3907.087040
73.116908,1702.473667,3997.112087,6741.640382
73.117217,666.185348,8956.491898,6511.811733
73.117527,1850.514855,8956.491898,5745.716235
73.117836,-444.123565,10214.842000,536.266849
73.118146,-0.000000,11325.150913,-5669.106685
73.118455,-2220.617826,13619.789333,-5515.887586
73.118765,-1924.535449,15470.304188,-6665.030833
73.119074,148.041188,16876.695478,-10189.070123
73.119384,1776.494261,12139.377449,-9116.536426
73.119693,444.123565,6513.812290,-1685.410096
73.120003,-296.082377,3330.926739,6358.592633
73.120312,740.205942,3849.070898,11414.822920
73.120622,-1184.329507,3034.844362,8733.488677
73.120931,1184.329507,5107.421000,2374.896044
73.121241,-0.000000,6217.729913,-4136.915689
73.121550,-1850.514855,7698.141797,-5515.887586
73.121860,-518.144159,12583.501014,-4366.744339
73.122169,-1776.494261,17098.757260,-8120.612279
73.122479,296.082377,16136.489536,-9576.193725
73.122788,-444.123565,11695.253884,-5975.544884
73.123098,-1184.329507,7698.141797,689.485948
73.123407,-592.164754,5995.668130,4826.401637
73.123717,1628.453072,5329.482782,7431.126331
73.124026,1332.370696,6809.894666,5362.668486
73.124336,518.144159,7328.038826,1838.629195
73.124645,814.226536,8438.347739,-3677.258390
73.124955,-1036.288319,12139.377449,-5132.839837
73.125264,-1924.535449,15618.345376,-5745.716235
73.125574,-1110.308913,18801.230927,-7431.126331
73.125883,1850.514855,14434.015869,-10725.336972
73.126193,1554.432478,9474.636058,-6435.202183
73.126502,-370.102971,4737.318029,3447.429741
73.126812,-962.267725,2220.617826,8350.440928
73.127121,296.082377,4219.173869,9499.584175
73.127431,1998.556043,5921.647536,4136.915689
73.127740,-0.000000,7179.997637,-3830.477490
73.128050,-1776.494261,8808.450710,-4826.401637
73.128359,-2072.576638,12065.356855,-4903.011187
73.128669,-370.102971,15322.262999,-8810.098227
73.128978,-1332.370696,16580.613101,-9422.974625
73.129288,-370.102971,14063.912898,-5592.497135
73.129597,1258.350101,7698.141797,-3907.087040
73.129907,592.164754,4441.235652,842.705048
73.130216,-148.041188,3256.906145,10189.070123
73.130526,-518.144159,3627.009116,11184.994271
73.130835,1110.308913,6365.771101,4903.011187
73.131145,592.164754,7179.997637,-3677.258390
73.131454,-2442.679609,10066.800811,-6511.811733
73.131764,-814.226536,14656.077652,-7890.783629
73.132073,-814.226536,17024.736666,-10725.336972
73.132383,814.226536,18061.024985,-10112.460574
73.132692,740.205942,12731.542202,-5669.106685
73.133002,-296.082377,7624.121203,689.485948
73.133311,-1480.411884,5551.544565,6665.030833
73.133621,518.144159,3182.885551,10265.679673
73.133930,2516.700203,5551.544565,6588.421283
73.134240,666.185348,5773.606348,1149.143247
73.134549,-0.000000,9030.512492,-4060.306139
73.134859,-1184.329507,8512.368333,-7201.297681
73.135168,-2590.720797,14730.098246,-7277.907231
73.135478,1110.308913,17468.860231,-7967.393179
73.135787,740.205942,16284.530724,-9269.755526
73.136097,-148.041188,12139.377449,-3830.477490
73.136406,1332.370696,5847.626942,3370.820191
73.136716,444.123565,2664.741391,7201.297681
73.137025,-74.020594,3478.967927,10878.556072
73.137334,-296.082377,5699.585753,9806.022374
73.137644,1036.288319,6513.812290,1225.752797
73.137953,370.102971,9992.780217,-7584.345430
73.138263,-2368.659014,13101.645173,-6665.030833
73.138572,-3034.844362,17024.736666,-6741.640382
73.138882,518.144159,17468.860231,-10572.117872
73.139191,-296.082377,14063.912898,-8810.098227
73.139501,-1036.288319,10140.821405,-919.314598
73.139810,518.144159,3997.112087,3524.039291
73.140120,1184.329507,2072.576638,7431.126331
73.140429,370.102971,3330.926739,10725.336972
73.140739,-0.000000,4885.359217,5592.497135
73.141048,2072.576638,7254.018232,-1838.629195
73.141358,370.102971,9400.615463,-6894.859482
73.141667,-888.247130,11473.192101,-7660.954980
73.141977,-1554.432478,16210.510130,-4443.353888
73.142286,-1702.473667,16654.633695,-5822.325785
73.142596,2294.638420,13175.665768,-7354.516781
73.142905,444.123565,9178.553681,-4673.182538
73.143215,-444.123565,5107.421000,2528.115143
73.143524,592.164754,2886.803174,7967.393179
73.143834,888.247130,5773.606348,9116.536426
73.144143,1998.556043,7698.141797,2987.772442
73.144453,148.041188,8512.368333,-3064.381992
73.144762,-3330.926739,8142.265362,-3447.429741
73.145072,-2072.576638,14804.118840,-7507.735880
73.145381,-814.226536,15988.448347,-9576.193725
73.145691,370.102971,17098.757260,-8580.269578
73.146000,-222.061783,12435.459826,-4826.401637
73.146310,888.247130,6439.791695,-5822.325785
73.146619,-222.061783,2812.782580,3677.258390
73.146929,-1036.288319,2072.576638,8886.707777
73.147238,148.041188,5107.421000,7660.954980
73.147548,2072.576638,6291.750507,1762.019645
73.147857,666.185348,7031.956449,-4290.134789
73.148167,-518.144159,8882.471304,-6741.640382
73.148476,-2368.659014,12657.521608,-6358.592633
73.148786,-0.000000,16062.468941,-7507.735880
73.149095,518.144159,18061.024985,-5286.058936
73.149405,1184.329507,12879.583391,-5975.544884
73.149714,444.123565,6809.894666,1225.752797
73.150024,666.185348,2812.782580,7967.393179
73.150333,-0.000000,3552.988522,10801.946522
73.150643,1036.288319,6735.874072,6205.373534
73.150952,444.123565,8956.491898,-459.657299
73.151262,-296.082377,10510.924376,-5592.497135
73.151571,296.082377,13545.768739,-7507.735880
73.151881,-2368.659014,15100.201217,-8044.002729
73.152190,-888.247130,18061.024985,-6281.983084
73.152500,518.144159,15026.180623,-6128.763984
73.152809,1332.370696,10214.842000,-3524.039291
73.153119,-74.020594,3923.091493,2681.334243
73.153428,-444.123565,1480.411884,7201.297681
73.153738,444.123565,2590.720797,10035.851024
73.154047,1258.350101,5329.482782,4596.572988
73.154357,-296.082377,7550.100608,-1532.190996
73.154666,-666.185348,9844.739029,-3830.477490
73.154976,-222.061783,10584.944971,-7660.954980
73.155285,-666.185348,15100.201217,-9193.145976
73.155595,-518.144159,16506.592507,-6741.640382
73.155904,-0.000000,13101.645173,-4979.620737
73.156214,-370.102971,7550.100608,-2681.334243
73.156523,592.164754,4885.359217,4903.011187
73.156833,-222.061783,2294.638420,10189.070123
73.157142,148.041188,3923.091493,9269.755526
73.157452,1110.308913,9178.553681,1991.848295
73.157761,1480.411884,9474.636058,-4903.011187
73.158071,-814.226536,12213.398043,-7967.393179
73.158380,-1776.494261,14434.015869,-6894.859482
73.158690,-1702.473667,16506.592507,-4903.011187
73.158999,-518.144159,18949.272115,-8197.221829
73.159309,2960.823768,12435.459826,-7048.078582
73.159618,-814.226536,5995.668130,0.000000
73.159928,666.185348,2960.823768,5439.278036
73.160237,666.185348,2294.638420,6665.030833
73.160547,444.123565,4293.194464,5898.935335
73.160856,-296.082377,8068.244768,1685.410096
73.161166,-0.000000,8364.327145,-5209.449386
73.161475,-0.000000,10362.883188,-7737.564530
73.161785,-592.164754,12805.562797,-5822.325785
73.162094,-2072.576638,14878.139434,-5439.278036
73.162404,-222.061783,13249.686362,-4136.915689
73.162713,1702.473667,10140.821405,-3064.381992
73.163023,-888.247130,4663.297435,-1378.971896
73.163332,1776.494261,3404.947333,9422.974625
73.163642,-1776.494261,5255.462188,8120.612279
73.163951,222.061783,8290.306550,3907.087040
73.164261,666.185348,9326.594869,-2604.724693
73.164570,-370.102971,11177.109724,-4903.011187
73.164880,-74.020594,13619.789333,-5439.278036
73.165189,-592.164754,13989.892304,-5286.058936
73.165499,222.061783,16580.613101,-4596.572988
73.165808,-0.000000,13323.706956,-4519.963438
73.166118,1850.514855,10214.842000,-7814.174080
73.166427,518.144159,3034.844362,-612.876398
73.166737,-740.205942,3182.885551,6205.373534
73.167046,222.061783,4219.173869,9422.974625
73.167356,740.205942,7328.038826,4290.134789
73.167665,2812.782580,6883.915261,-4290.134789
73.167975,-296.082377,8438.347739,-4366.744339
73.168284,-74.020594,10658.965565,-6511.811733
73.168594,-1036.288319,14211.954086,-4979.620737
73.168903,666.185348,17542.880825,-6281.983084
73.169213,-666.185348,15544.324782,-6281.983084
73.169522,1258.350101,10288.862594,-1915.238745
73.169832,-2072.576638,5033.400406,3830.477490
73.170141,-888.247130,4293.194464,7431.126331
73.170451,666.185348,5255.462188,6665.030833
73.170760,222.061783,8290.306550,536.266849
73.171070,1110.308913,9918.759623,-3064.381992
73.171379,-888.247130,9178.553681,-4673.182538
73.171689,-1110.308913,11991.336260,-4749.792088
73.171998,-1480.411884,15988.448347,-3600.648841
73.172308,1554.432478,14211.954086,-5592.497135
73.172617,370.102971,11325.150913,-6281.983084
73.172927,666.185348,7105.977043,-1685.410096
73.173236,740.205942,3478.967927,1762.019645
73.173546,666.185348,2590.720797,5056.230287
73.173855,962.267725,5403.503377,6358.592633
73.174165,148.041188,7772.162391,3524.039291
73.174474,-0.000000,9770.718434,-1762.019645
73.174784,444.123565,12287.418637,-5898.935335
73.175093,296.082377,12509.480420,-6435.202183
73.175403,-740.205942,15470.304188,-5439.278036
73.175712,-444.123565,15470.304188,-5898.935335
73.176022,-148.041188,10955.047942,-6128.763984
73.176331,-592.164754,7550.100608,-3140.991542
73.176641,296.082377,4293.194464,4060.306139
73.176950,-1850.514855,7031.956449,8350.440928
73.177260,962.267725,8216.285956,4673.182538
73.177569,4293.194464,7476.080014,1149.143247
73.177879,-0.000000,9548.656652,-2987.772442
73.178188,-814.226536,9992.780217,-3370.820191
73.178498,-1036.288319,11843.295072,-4290.134789
73.178807,-1110.308913,14434.015869,-5209.449386
73.179117,1702.473667,12509.480420,-6511.811733
73.179426,-1480.411884,9548.656652,-4519.963438
73.179736,-148.041188,4663.297435,-1532.190996
73.180045,-0.000000,3997.112087,2374.896044
73.180355,-518.144159,6883.915261,7048.078582
73.180664,666.185348,8808.450710,5362.668486
73.180974,666.185348,7179.997637,1455.581446
73.181283,444.123565,8734.430116,-3524.039291
73.181593,-222.061783,10584.944971,-5515.887586
73.181902,-962.267725,13397.727550,-6894.859482
73.182212,-592.164754,14952.160028,-5515.887586
73.182521,888.247130,14730.098246,-6358.592633
73.182831,888.247130,10362.883188,-4673.182538
73.183140,-518.144159,6439.791695,612.876398
73.183450,-74.020594,3552.988522,6281.983084
73.183759,148.041188,5477.523971,7201.297681
73.184069,2146.597232,9326.594869,2145.067394
73.184378,962.267725,9548.656652,-1532.190996
73.184688,1406.391290,8882.471304,-4366.744339
73.184997,-888.247130,9400.615463,-2911.162892
73.185307,-1036.288319,14137.933492,-3600.648841
73.185616,370.102971,15766.386565,-5669.106685
73.185926,-370.102971,12287.418637,-7354.516781
73.186235,-222.061783,8068.244768,-3217.601092
73.186545,444.123565,4959.379811,2145.067394
73.186854,-148.041188,4589.276840,6741.640382
73.187164,-814.226536,6735.874072,7660.954980
73.187473,-74.020594,7476.080014,4290.134789
73.187783,888.247130,8068.244768,-919.314598
73.188092,-222.061783,9326.594869,-5362.668486
73.188402,-1480.411884,11177.109724,-5209.449386
73.188711,-1184.329507,14063.912898,-4903.011187
73.189021,2960.823768,14211.954086,-7890.783629
73.189330,-1332.370696,13175.665768,-5515.887586
73.189640,444.123565,7624.121203,-689.485948
73.189949,-74.020594,3997.112087,3064.381992
73.190259,1628.453072,6217.729913,5975.544884
73.190568,-0.000000,7105.977043,6358.592633
73.190878,1332.370696,8438.347739,1532.190996
73.191187,1258.350101,7994.224174,-3753.867940
73.191497,-592.164754,9104.533087,-4136.915689
73.191806,-1554.432478,13323.706956,-2145.067394
73.192116,-1924.535449,15248.242405,-4903.011187
73.192425,592.164754,15914.427753,-8810.098227
73.192735,-148.041188,12065.356855,-6665.030833
73.193044,1332.370696,7328.038826,-3140.991542
73.193354,2072.576638,4219.173869,2068.457845
73.193663,740.205942,4737.318029,9116.536426
73.193973,592.164754,6957.935855,8580.269578
73.194282,-222.061783,7402.059420,2451.505594
73.194592,814.226536,9178.553681,-2987.772442
73.194901,-74.020594,8956.491898,-6128.763984
73.195211,-1924.535449,12287.418637,-7354.516781
73.195520,-1480.411884,14508.036463,-6894.859482
73.195830,-74.020594,13915.871710,-7660.954980
73.196139,-0.000000,12657.521608,-6205.373534
73.196449,-1110.308913,6143.709319,1378.971896
73.196758,-0.000000,5181.441594,6741.640382
73.197068,-0.000000,5625.565159,6741.640382
73.197377,1702.473667,7254.018232,4290.134789
73.197687,518.144159,7254.018232,3677.258390
73.197996,-74.020594,9178.553681,-3983.696590
73.198306,296.082377,9474.636058,-6128.763984
73.198615,-2516.700203,14359.995275,-4826.401637
73.198925,-740.205942,17542.880825,-6205.373534
73.199234,1628.453072,13767.830521,-10035.851024
73.199544,148.041188,9474.636058,-5822.325785
73.199853,740.205942,5625.565159,1762.019645
73.200163,1036.288319,2664.741391,6052.154434
73.200472,-370.102971,2220.617826,7890.783629
73.200781,740.205942,7031.956449,8503.660028
73.201091,1554.432478,7772.162391,919.314598
73.201400,296.082377,7920.203579,-5745.716235
73.201710,-296.082377,12435.459826,-5669.106685
73.202019,-1702.473667,15248.242405,-5592.497135
73.202329,740.205942,17098.757260,-9193.145976
73.202638,1332.370696,14285.974681,-7814.174080
73.202948,-1702.473667,9770.718434,-1608.800546
73.203257,-666.185348,5699.585753,2298.286494
73.203567,222.061783,5329.482782,8044.002729
73.203876,-296.082377,7179.997637,7890.783629
73.204186,814.226536,7105.977043,4213.525239
73.204495,1332.370696,6439.791695,-1302.362347
73.204805,-74.020594,9622.677246,-6128.763984
73.205114,-1924.535449,11177.109724,-4903.011187
73.205424,-962.267725,15396.283594,-8044.002729
73.205733,-592.164754,15470.304188,-9882.631924
73.206043,962.267725,11991.336260,-7507.735880
73.206352,740.205942,7698.141797,-2298.286494
73.206662,1702.473667,3849.070898,3907.087040
73.206971,518.144159,3256.906145,10112.460574
73.207281,-0.000000,4811.338623,10648.727422
73.207590,-1480.411884,5699.585753,6435.202183
73.207900,740.205942,9030.512492,-4903.011187
73.208209,518.144159,10807.006753,-9499.584175
73.208519,-888.247130,13397.727550,-9039.926876
73.208828,-0.000000,17616.901420,-7967.393179
73.209138,888.247130,15692.365970,-5975.544884
73.209447,-0.000000,12435.459826,-3753.867940
73.209757,592.164754,6587.832884,1915.238745
73.210066,444.123565,2738.761985,6281.983084
73.210375,2220.617826,3997.112087,8656.879127
73.210685,1776.494261,5699.585753,6511.811733
73.210994,-740.205942,8882.471304,1072.533697
73.211304,-444.123565,8438.347739,-4213.525239
73.211613,-2368.659014,10214.842000,-6588.421283
73.211923,-1554.432478,14211.954086,-7201.297681
73.212232,-1480.411884,17320.819043,-9576.193725
73.212542,962.267725,16210.510130,-10572.117872
73.212851,370.102971,9252.574275,-5515.887586
73.213161,962.267725,4071.132681,2911.162892
73.213470,1110.308913,1850.514855,8427.050478
73.213780,1184.329507,1480.411884,10725.336972
73.214089,-518.144159,4959.379811,9576.193725
73.214399,-148.041188,7624.121203,1838.629195
73.214708,592.164754,7105.977043,-6205.373534
73.215018,-666.185348,10510.924376,-10342.289223
73.215327,-1258.350101,16728.654289,-7967.393179
73.215637,-1036.288319,18357.107362,-7967.393179
73.215946,2146.597232,14952.160028,-8656.879127
73.216256,1554.432478,11547.212695,-1455.581446
73.216565,296.082377,5995.668130,6665.030833
73.216875,-222.061783,4219.173869,9729.412825
73.217184,1332.370696,6217.729913,8656.879127
73.217494,1332.370696,7476.080014,5439.278036
73.217803,1480.411884,7698.141797,-919.314598
73.218113,-1258.350101,9474.636058,-4749.792088
73.218422,-2220.617826,13323.706956,-6818.249932
73.218732,-1110.308913,17172.777854,-9806.022374
73.219041,-1258.350101,18875.251521,-9576.193725
73.219350,-0.000000,12583.501014,-7124.688131
73.219660,-888.247130,7476.080014,229.828649
73.219969,1850.514855,2220.617826,5439.278036
73.220279,1554.432478,148.041188,8810.098227
73.220588,-814.226536,2368.659014,9576.193725
73.220898,666.185348,4737.318029,6358.592633
73.221207,-74.020594,7179.997637,-3064.381992
73.221517,1628.453072,9770.718434,-8810.098227
73.221826,518.144159,13101.645173,-9193.145976
73.222136,-2072.576638,16728.654289,-7201.297681
73.222445,-740.205942,17690.922014,-7277.907231
73.222755,2368.659014,12953.603985,-6894.859482
73.223064,-370.102971,8438.347739,-306.438199
73.223374,-2072.576638,3552.988522,7124.688131
73.223683,1184.329507,3775.050304,8963.317327
73.223993,1480.411884,7550.100608,4903.011187
73.224302,-148.041188,8512.368333,2145.067394
73.224612,-296.082377,10140.821405,-2221.676944
73.224921,-74.020594,12731.542202,-8273.831378
73.225231,-518.144159,16358.551318,-10495.508323
73.225540,-222.061783,17320.819043,-9652.803275
73.225850,814.226536,13397.727550,-9116.536426
73.226159,1480.411884,7402.059420,-2068.457845
73.226469,-0.000000,4145.153275,5439.278036
73.226778,518.144159,-1036.288319,9499.584175
73.227088,370.102971,1036.288319,9576.193725
73.227397,-0.000000,4811.338623,6971.469032
73.227707,666.185348,7846.182985,-3294.210641
73.228016,666.185348,9770.718434,-11338.213370
73.228326,148.041188,13323.706956,-11261.603821
73.228635,-4589.276840,16950.716072,-5669.106685
73.228944,-0.000000,18431.127956,-7124.688131
73.229254,-74.020594,15840.407159,-8350.440928
73.229563,1110.308913,10214.842000,-2451.505594
73.229873,370.102971,3552.988522,4290.134789
73.230182,-592.164754,2368.659014,7890.783629
73.230492,-888.247130,4737.318029,10035.851024
73.230801,296.082377,5773.606348,3524.039291
73.231111,-222.061783,9400.615463,-2528.115143
73.231420,-296.082377,10955.047942,-5898.935335
73.231730,-1258.350101,13323.706956,-8656.879127
73.232039,-814.226536,16654.633695,-9193.145976
73.232349,148.041188,15914.427753,-8350.440928
73.232658,592.164754,12287.418637,-4903.011187
73.232968,1406.391290,6809.894666,76.609550
73.233277,2442.679609,-0.000000,5975.544884
73.233587,740.205942,1628.453072,9652.803275
73.233896,-592.164754,5551.544565,9039.926876
73.234206,888.247130,7254.018232,2374.896044
73.234515,296.082377,9622.677246,-5362.668486
73.234825,-518.144159,13175.665768,-8963.317327
73.235134,-0.000000,14582.057057,-8963.317327
73.235444,-2072.576638,16950.716072,-6818.249932
73.235753,-740.205942,16802.674883,-5592.497135
73.236063,1110.308913,12361.439231,-3677.258390
73.236372,740.205942,5033.400406,1915.238745
73.236682,-370.102971,4293.194464,7431.126331
73.236991,148.041188,3404.947333,8886.707777
73.237301,1406.391290,5921.647536,4903.011187
73.237610,-148.041188,6365.771101,2757.943793
73.237920,-814.226536,9400.615463,-3447.429741
73.238229,1036.288319,11325.150913,-7124.688131
73.238538,-666.185348,14137.933492,-7354.516781
73.238848,-1554.432478,16580.613101,-5898.935335
73.239157,1184.329507,12731.542202,-6435.202183
73.239467,888.247130,9326.594869,-4596.572988
73.239776,-222.061783,3923.091493,842.705048
73.240086,962.267725,962.267725,5056.230287
73.240395,-0.000000,1924.535449,7737.564530
73.240705,-1998.556043,8660.409521,6665.030833
73.241014,-74.020594,9770.718434,306.438199
73.241324,1184.329507,10955.047942,-7890.783629
73.241633,1332.370696,12139.377449,-9576.193725
73.241943,-592.164754,16580.613101,-8120.612279
73.242252,-1258.350101,16432.571912,-4060.306139
73.242562,-74.020594,14359.995275,-3983.696590
73.242871,-0.000000,11177.109724,-2145.067394
73.243181,1036.288319,4441.235652,1762.019645
73.243490,-0.000000,3404.947333,5132.839837
73.243800,148.041188,5255.462188,5362.668486
73.244109,-370.102971,8438.347739,3600.648841
73.244419,-740.205942,9104.533087,-842.705048
73.244728,-1998.556043,10881.027347,1072.533697
73.245038,-0.000000,13323.706956,-6511.811733
73.245347,-1554.432478,14137.933492,-6281.983084
73.245657,222.061783,15248.242405,-6741.640382
73.245966,-74.020594,12139.377449,-6665.030833
73.246276,1702.473667,5699.585753,-1149.143247
73.246585,592.164754,2960.823768,3140.991542
73.246895,-888.247130,1628.453072,7431.126331
73.247204,-1702.473667,5403.503377,7890.783629
73.247513,-1776.494261,7846.182985,3370.820191
73.247823,1850.514855,9178.553681,-5669.106685
73.248132,1406.391290,10584.944971,-9499.584175
73.248442,962.267725,12435.459826,-6435.202183
73.248751,-962.267725,14508.036463,-2604.724693
73.249061,1850.514855,11843.295072,-1225.752797
73.249370,-0.000000,12435.459826,-1378.971896
73.249680,222.061783,6513.812290,0.000000
73.249989,1184.329507,4589.276840,2298.286494
73.250299,296.082377,4663.297435,4060.306139
73.250608,296.082377,9400.615463,5209.449386
73.250918,-222.061783,10288.862594,2298.286494
73.251227,-444.123565,9918.759623,-1608.800546
73.251537,296.082377,10510.924376,-3677.258390
73.251846,-1480.411884,12657.521608,-8120.612279
73.252156,-666.185348,15396.283594,-5745.716235
73.252465,370.102971,14878.139434,-5515.887586
73.252775,222.061783,10955.047942,-4673.182538
73.253084,148.041188,4737.318029,-536.266849
73.253394,222.061783,2886.803174,5975.544884
73.253703,-666.185348,2960.823768,7814.174080
73.254013,-1036.288319,7624.121203,4443.353888
73.254322,-592.164754,9030.512492,995.924147
73.254632,1554.432478,8586.388927,-6894.859482
73.254941,1258.350101,10658.965565,-8810.098227
73.255251,370.102971,12583.501014,-3983.696590
73.255560,-1480.411884,13619.789333,-2987.772442
73.255870,-666.185348,13027.624579,-3983.696590
73.256179,-1554.432478,10066.800811,-6511.811733
73.256489,592.164754,5181.441594,0.000000
73.256798,814.226536,4293.194464,3447.429741
73.257107,296.082377,7105.977043,5975.544884
73.257417,-0.000000,10807.006753,4290.134789
73.257726,444.123565,10881.027347,-1302.362347
73.258036,592.164754,10140.821405,-5286.058936
73.258345,-888.247130,12213.398043,-5286.058936
73.258655,-518.144159,14952.160028,-5898.935335
73.258964,-2368.659014,16210.510130,-5898.935335
73.259274,148.041188,11991.336260,-5515.887586
73.259583,666.185348,8216.285956,-2451.505594
73.259893,-148.041188,2146.597232,766.095498
73.260202,962.267725,2664.741391,4596.572988
73.260512,-296.082377,3627.009116,9729.412825
73.260821,222.061783,7402.059420,3294.210641
73.261131,222.061783,8734.430116,-2451.505594
73.261440,2368.659014,8882.471304,-6128.763984
73.261750,-370.102971,9622.677246,-8197.221829
73.262059,-1110.308913,13619.789333,-3064.381992
73.262369,-1184.329507,14730.098246,-2757.943793
73.262678,-0.000000,12731.542202,-5745.716235
73.262988,740.205942,10362.883188,-5515.887586
73.263297,1036.288319,6513.812290,459.657299
73.263607,740.205942,5699.585753,4903.011187
73.263916,-1258.350101,8956.491898,6435.202183
73.264226,518.144159,9770.718434,4213.525239
73.264535,148.041188,10288.862594,-766.095498
73.264845,1110.308913,10584.944971,-5439.278036
73.265154,222.061783,10510.924376,-6052.154434
73.265464,-2220.617826,13471.748144,-5362.668486
73.265773,-148.041188,14952.160028,-6818.249932
73.266083,74.020594,11103.089130,-6128.763984
73.266392,962.267725,6439.791695,-383.047749
73.266701,-592.164754,3330.926739,4903.011187
73.267011,962.267725,3849.070898,7201.297681
73.267320,-518.144159,6291.750507,6588.421283
73.267630,-1332.370696,6587.832884,1225.752797
73.267939,2368.659014,8808.450710,-4826.401637
73.268249,-0.000000,9252.574275,-6588.421283
73.268558,-1480.411884,11029.068536,-4213.525239
73.268868,-2664.741391,14359.995275,-2604.724693
73.269177,-370.102971,15396.283594,-4290.134789
73.269487,1480.411884,12509.480420,-4596.572988
73.269796,-0.000000,6957.935855,-1072.533697
73.270106,-592.164754,6069.688724,4903.011187
73.270415,814.226536,4811.338623,5898.935335
73.270725,1480.411884,7179.997637,3983.696590
73.271034,-592.164754,9770.718434,2145.067394
73.271344,-148.041188,9770.718434,-689.485948
73.271653,222.061783,10955.047942,-4749.792088
73.271963,-2294.638420,13175.665768,-6894.859482
73.272272,-888.247130,14656.077652,-6665.030833
73.272582,370.102971,13471.748144,-6971.469032
73.272891,1776.494261,10214.842000,-5669.106685
73.273201,1702.473667,3997.112087,2834.553343
73.273510,148.041188,3182.885551,7584.345430
73.273820,-444.123565,4515.256246,8350.440928
73.274129,-222.061783,7402.059420,4826.401637
73.274439,962.267725,10140.821405,-766.095498
73.274748,3849.070898,7254.018232,-3983.696590
73.275058,-592.164754,9548.656652,-6435.202183
73.275367,-1924.535449,14211.954086,-3830.477490
73.275676,-1924.535449,14359.995275,-5056.230287
73.275986,-592.164754,14508.036463,-6588.421283
73.276295,1702.473667,10362.883188,-3217.601092
73.276605,1110.308913,5921.647536,229.828649
73.276914,814.226536,4959.379811,4903.011187
73.277224,370.102971,6957.935855,7584.345430
73.277533,-148.041188,8438.347739,7048.078582
73.277843,444.123565,8586.388927,-306.438199
73.278152,592.164754,8586.388927,-4290.134789
73.278462,-1258.350101,12139.377449,-6128.763984
73.278771,-1998.556043,13989.892304,-6588.421283
73.279081,-888.247130,16506.592507,-10189.070123
73.279390,-0.000000,12509.480420,-8580.269578
73.279700,1036.288319,7846.182985,-3217.601092
73.280009,740.205942,3997.112087,2911.162892
73.280319,962.267725,3701.029710,7737.564530
73.280628,-0.000000,5921.647536,7660.954980
73.280938,-814.226536,6809.894666,4290.134789
73.281247,1406.391290,7476.080014,-2681.334243
73.281557,2072.576638,7476.080014,-8273.831378
73.281866,-0.000000,10214.842000,-6128.763984
73.282176,-2886.803174,15248.242405,-2221.676944
73.282485,-1850.514855,16136.489536,-4596.572988
73.282795,962.267725,14063.912898,-6971.469032
73.283104,740.205942,9030.512492,-3217.601092
73.283414,444.123565,3849.070898,3677.258390
73.283723,814.226536,4293.194464,7277.907231
73.284033,814.226536,8882.471304,8044.002729
73.284342,-518.144159,8660.409521,5822.325785
73.284652,1036.288319,9474.636058,-3370.820191
73.284961,-0.000000,9622.677246,-3600.648841
73.285270,-2294.638420,13323.706956,-6894.859482
73.285580,-370.102971,16432.571912,-8656.879127
73.285889,-444.123565,16358.551318,-8733.488677
73.286199,-2664.741391,11177.109724,-2221.676944
73.286508,1110.308913,5107.421000,1225.752797
73.286818,1776.494261,1924.535449,4596.572988
73.287127,518.144159,3775.050304,8886.707777
73.287437,-1258.350101,5329.482782,7814.174080
73.287746,-0.000000,7105.977043,2221.676944
73.288056,2516.700203,8068.244768,-5209.449386
73.288365,-222.061783,7698.141797,-6665.030833
73.288675,-1850.514855,13323.706956,-5822.325785
73.288984,-1628.453072,18061.024985,-9576.193725
73.289294,-222.061783,16062.468941,-8886.707777
73.289603,148.041188,12287.418637,-5592.497135
73.289913,1850.514855,7698.141797,-153.219100
73.290222,962.267725,3701.029710,6741.640382
73.290532,1480.411884,4219.173869,10418.898773
73.290841,-0.000000,7846.182985,8197.221829
73.291151,-74.020594,8216.285956,1685.410096
73.291460,1554.432478,9252.574275,-5515.887586
73.291770,-296.082377,10807.006753,-10265.679673
73.292079,-1702.473667,15544.324782,-9882.631924
73.292389,-518.144159,16802.674883,-9346.365076
73.292698,-1480.411884,15100.201217,-6435.202183
73.293008,1628.453072,9104.533087,-1532.190996
73.293317,3923.091493,-222.061783,4903.011187
73.293627,592.164754,296.082377,8197.221829
73.293936,-0.000000,2368.659014,10035.851024
73.294246,-1184.329507,5255.462188,6281.983084
73.294555,740.205942,7994.224174,-1915.238745
73.294864,-0.000000,9548.656652,-8656.879127
73.295174,-0.000000,12805.562797,-8886.707777
73.295483,-2072.576638,16506.592507,-8120.612279
73.295793,-2442.679609,17468.860231,-7507.735880
73.296102,-370.102971,14952.160028,-5286.058936
73.296412,1628.453072,7994.224174,-3064.381992
73.296721,2368.659014,3478.967927,3600.648841
73.297030,-148.041188,1258.350101,9882.631924
73.297340,-444.123565,4663.297435,10878.556072
73.297649,-1702.473667,8290.306550,7048.078582
73.297959,222.061783,10288.862594,-3830.477490
73.298268,518.144159,12657.521608,-9039.926876
73.298577,-0.000000,13545.768739,-10418.898773
73.298887,-1332.370696,16580.613101,-10878.556072
73.299196,-1628.453072,15544.324782,-8197.221829
73.299506,296.082377,12583.501014,-3830.477490
73.299815,2072.576638,4737.318029,1608.800546
73.300124,1332.370696,1406.391290,7967.393179
73.300434,1628.453072,4885.359217,9346.365076
73.300743,-1184.329507,5403.503377,8197.221829
73.301053,296.082377,8068.244768,1302.362347
73.301362,962.267725,9030.512492,-6281.983084
73.301671,-0.000000,10732.986159,-9729.412825
73.301981,-740.205942,12731.542202,-8197.221829
73.302290,-1406.391290,16950.716072,-6971.469032
73.302600,296.082377,18579.169144,-5975.544884
73.302909,-1258.350101,11325.150913,-1072.533697
73.303218,-1184.329507,5699.585753,3524.039291
73.303528,2442.679609,1924.535449,5515.887586
73.303837,1924.535449,4219.173869,7277.907231
73.304146,-518.144159,8364.327145,6588.421283
73.304456,-1776.494261,8586.388927,1455.581446
73.304765,-148.041188,9696.697840,-7814.174080
73.305075,1850.514855,13101.645173,-8044.002729
73.305384,-1110.308913,14730.098246,-7890.783629
73.305693,-2072.576638,16284.530724,-6128.763984
73.306003,-814.226536,12583.501014,-5209.449386
73.306312,1184.329507,8142.265362,-2681.334243
73.306622,2146.597232,3627.009116,1455.581446
73.306931,444.123565,2442.679609,6741.640382
73.307240,-0.000000,5699.585753,8044.002729
73.307550,-2590.720797,6365.771101,5592.497135
73.307859,1184.329507,8290.306550,-1685.410096
73.308169,-222.061783,11177.109724,-8427.050478
73.308478,444.123565,11991.336260,-7660.954980
73.308787,-2072.576638,15248.242405,-5898.935335
73.309097,-148.041188,16876.695478,-8197.221829
73.309406,-0.000000,12879.583391,-6511.811733
73.309716,222.061783,8586.388927,-842.705048
73.310025,2960.823768,2368.659014,4749.792088
73.310334,-1184.329507,1924.535449,4519.963438
73.310644,-1036.288319,5181.441594,9499.584175
73.310953,-2220.617826,8068.244768,7354.516781
73.311262,592.164754,9770.718434,-3370.820191
73.311572,1258.350101,10066.800811,-10878.556072
73.311881,-740.205942,13249.686362,-7890.783629
73.312191,-888.247130,16284.530724,-8810.098227
73.312500,-888.247130,17394.839637,-8350.440928
73.312809,-592.164754,13027.624579,-4136.915689
73.313119,1702.473667,7031.956449,3600.648841
73.313428,1258.350101,2516.700203,5362.668486
73.313738,518.144159,222.061783,8197.221829
73.314047,-2072.576638,4219.173869,8886.707777
73.314356,-962.267725,7031.956449,1378.971896
73.314666,2960.823768,9400.615463,-9806.022374
73.314975,666.185348,11325.150913,-9652.803275
73.315285,-1332.370696,13693.809927,-6511.811733
73.315594,-962.267725,17838.963202,-8120.612279
73.315903,296.082377,14804.118840,-7507.735880
73.316213,-592.164754,10881.027347,229.828649
73.316522,1554.432478,4885.359217,3140.991542
73.316831,3330.926739,1258.350101,3907.087040
73.317141,148.041188,2738.761985,8733.488677
73.317450,-4219.173869,5699.585753,12027.699319
73.317760,-148.041188,10955.047942,842.705048
73.318069,2146.597232,11843.295072,-7890.783629
73.318378,592.164754,13101.645173,-9039.926876
73.318688,-2738.761985,17024.736666,-8656.879127
73.318997,-518.144159,16876.695478,-11108.384721
73.319307,-814.226536,14656.077652,-5669.106685
73.319616,-0.000000,8364.327145,-612.876398
73.319925,2812.782580,1702.473667,3524.039291
73.320235,-1110.308913,666.185348,9039.926876
73.320544,-1628.453072,3478.967927,11414.822920
73.320854,-0.000000,5699.585753,4903.011187
73.321163,1406.391290,7698.141797,-4903.011187
73.321472,1702.473667,10214.842000,-7048.078582
73.321782,-296.082377,12287.418637,-7660.954980
73.322091,-370.102971,14285.974681,-7814.174080
73.322401,-1554.432478,16432.571912,-6052.154434
73.322710,-1998.556043,13619.789333,-1225.752797
73.323019,1332.370696,8364.327145,-766.095498
73.323329,3108.864956,3108.864956,2451.505594
73.323638,296.082377,3997.112087,6818.249932
73.323947,-1036.288319,6587.832884,8197.221829
73.324257,-888.247130,9622.677246,2145.067394
73.324566,-222.061783,11399.171507,-6128.763984
73.324876,2220.617826,11769.274478,-6894.859482
73.325185,-74.020594,11991.336260,-8503.660028
73.325494,-666.185348,14434.015869,-7507.735880
73.325804,-2442.679609,16284.530724,-3830.477490
73.326113,-74.020594,9770.718434,-2528.115143
73.326423,2072.576638,5477.523971,-919.314598
73.326732,1036.288319,3108.864956,2757.943793
73.327041,1776.494261,1554.432478,6128.763984
73.327351,-1702.473667,5329.482782,5745.716235
73.327660,-2146.597232,8142.265362,3830.477490
73.327970,962.267725,9104.533087,-2451.505594
73.328279,1332.370696,11769.274478,-8810.098227
73.328588,-222.061783,13767.830521,-8656.879127
73.328898,-2442.679609,14359.995275,-919.314598
73.329207,-0.000000,15100.201217,-6205.373534
73.329517,814.226536,11843.295072,-5515.887586
73.329826,1702.473667,7105.977043,229.828649
73.330135,370.102971,3404.947333,6128.763984
73.330445,-962.267725,4145.153275,6358.592633
73.330754,-2146.597232,7254.018232,6205.373534
73.331063,-1628.453072,9548.656652,1072.533697
73.331373,2664.741391,10066.800811,-7354.516781
73.331682,-0.000000,11917.315666,-7354.516781
73.331992,-1776.494261,14878.139434,-6971.469032
73.332301,-0.000000,14952.160028,-6435.202183
73.332610,-0.000000,14211.954086,-5669.106685
73.332920,-370.102971,10288.862594,0.000000
73.333229,-1036.288319,3849.070898,4060.306139
73.333539,1406.391290,814.226536,4673.182538
73.333848,-444.123565,2664.741391,8273.831378
73.334157,-1554.432478,7179.997637,7890.783629
73.334467,-0.000000,8586.388927,-1149.143247
73.334776,4737.318029,11621.233289,-9882.631924
73.335086,-518.144159,12509.480420,-7660.954980
73.335395,-2146.597232,15026.180623,-5669.106685
73.335704,-2146.597232,15840.407159,-4826.401637
73.336014,-1776.494261,13397.727550,-6281.983084
73.336323,1850.514855,8660.409521,-1455.581446
73.336633,1776.494261,4293.194464,2451.505594
73.336942,1184.329507,3256.906145,6665.030833
73.337251,-1406.391290,5773.606348,7431.126331
73.337561,-2960.823768,12805.562797,3907.087040
73.337870,148.041188,11399.171507,-2451.505594
73.338179,2220.617826,11547.212695,-6741.640382
73.338489,-148.041188,12139.377449,-7354.516781
73.338798,-1036.288319,14211.954086,-5592.497135
73.339108,-1702.473667,14804.118840,-4673.182538
73.339417,-1258.350101,10510.924376,-3524.039291
73.339726,1332.370696,5847.626942,-919.314598
73.340036,2516.700203,3034.844362,766.095498
73.340345,444.123565,1628.453072,1608.800546
73.340655,-1702.473667,7402.059420,7048.078582
73.340964,-2072.576638,9326.594869,4443.353888
73.341273,1998.556043,10288.862594,-3524.039291
73.341583,1110.308913,9844.739029,-8273.831378
73.341892,518.144159,10658.965565,-6665.030833
73.342202,-1184.329507,13619.789333,-4596.572988
73.342511,-2738.761985,15840.407159,-4290.134789
73.342820,592.164754,12361.439231,-4826.401637
73.343130,3108.864956,6217.729913,536.266849
73.343439,-1110.308913,5181.441594,3753.867940
73.343748,-962.267725,5551.544565,7354.516781
73.344058,-1110.308913,7402.059420,5362.668486
73.344367,-1258.350101,10140.821405,766.095498
73.344677,4145.153275,7328.038826,-2451.505594
73.344986,2368.659014,9474.636058,-8197.221829
73.345295,-74.020594,12287.418637,-7277.907231
73.345605,-2072.576638,13915.871710,-3064.381992
73.345914,-1850.514855,13249.686362,-2604.724693
73.346224,-0.000000,11029.068536,-4903.011187
73.346533,2812.782580,5329.482782,-995.924147
73.346842,296.082377,2146.597232,3140.991542
73.347152,-888.247130,3849.070898,5132.839837
73.347461,-2886.803174,10066.800811,6894.859482
73.347771,-0.000000,9252.574275,612.876398
73.348080,2220.617826,9030.512492,-6281.983084
73.348389,740.205942,11621.233289,-6511.811733
73.348699,-1332.370696,13619.789333,-4443.353888
73.349008,-592.164754,15174.221811,-7354.516781
73.349318,-1850.514855,13175.665768,-5592.497135
73.349627,1332.370696,9548.656652,-2757.943793
73.349936,3256.906145,5107.421000,-459.657299
73.350246,740.205942,3627.009116,459.657299
73.350555,-888.247130,4959.379811,8963.317327
73.350864,-1776.494261,8142.265362,8963.317327
73.351174,666.185348,9252.574275,766.095498
73.351483,1258.350101,9622.677246,-5209.449386
73.351793,814.226536,10584.944971,-6435.202183
73.352102,-1110.308913,14804.118840,-7890.783629
73.352411,-1924.535449,16284.530724,-8656.879127
73.352721,-1110.308913,14359.995275,-4979.620737
73.353030,1702.473667,8586.388927,-1915.238745
73.353340,1998.556043,5107.421000,1532.190996
73.353649,-74.020594,3478.967927,8427.050478
73.353958,-740.205942,3923.091493,9039.926876
73.354268,-518.144159,6513.812290,4290.134789
73.354577,2664.741391,7698.141797,-306.438199
73.354887,1850.514855,8068.244768,-7201.297681
73.355196,444.123565,11029.068536,-9193.145976
73.355505,-1850.514855,14804.118840,-5745.716235
73.355815,-2812.782580,15396.283594,-2987.772442
73.356124,-2886.803174,12731.542202,-4903.011187
73.356434,1406.391290,8882.471304,-2451.505594
73.356743,1184.329507,4515.256246,2528.115143
73.357052,592.164754,5477.523971,5056.230287
73.357362,-444.123565,6661.853478,4519.963438
73.357671,-518.144159,9400.615463,3370.820191
73.357980,1110.308913,10362.883188,-612.876398
73.358290,2664.741391,12065.356855,-6052.154434
73.358599,-1554.432478,12731.542202,-5975.544884
73.358909,-5477.523971,17246.798449,-995.924147
73.359218,-1776.494261,13249.686362,-6665.030833
73.359527,962.267725,11029.068536,-8503.660028
73.359837,2368.659014,6217.729913,-3753.867940
73.360146,296.082377,2072.576638,3600.648841
73.360456,-222.061783,3849.070898,8044.002729
73.360765,-1776.494261,6809.894666,8580.269578
73.361074,-888.247130,8290.306550,4826.401637
73.361384,2590.720797,8364.327145,-3217.601092
73.361693,2072.576638,8734.430116,-8273.831378
73.362003,-1110.308913,13101.645173,-6052.154434
73.362312,-2368.659014,14582.057057,-6205.373534
73.362621,-2442.679609,15470.304188,-6894.859482
73.362931,592.164754,13175.665768,-5132.839837
73.363240,2146.597232,8290.306550,-3524.039291
73.363549,1184.329507,5107.421000,2298.286494
73.363859,-1554.432478,5255.462188,8427.050478
73.364168,-2368.659014,7328.038826,7354.516781
73.364478,-0.000000,6809.894666,-153.219100
73.364787,2738.761985,9400.615463,-5362.668486
73.365096,888.247130,10436.903782,-6128.763984
73.365406,-1628.453072,12435.459826,-6588.421283
73.365715,-1702.473667,14582.057057,-6205.373534
73.366025,-3701.029710,14285.974681,-4060.306139
73.366334,2146.597232,10066.800811,-4366.744339
73.366643,3478.967927,4885.359217,-919.314598
73.366953,666.185348,2886.803174,6741.640382
73.367262,-1628.453072,4145.153275,10572.117872
73.367572,370.102971,5625.565159,7431.126331
73.367881,370.102971,9548.656652,-153.219100
73.368190,2738.761985,9918.759623,-7124.688131
73.368500,814.226536,11695.253884,-8810.098227
73.368809,-1924.535449,15766.386565,-8656.879127
73.369119,-3330.926739,17172.777854,-4136.915689
73.369428,-296.082377,14582.057057,-5132.839837
73.369737,1554.432478,9030.512492,-2298.286494
73.370047,2442.679609,5625.565159,3983.696590
73.370356,-2368.659014,3034.844362,4903.011187
73.370665,-1036.288319,4885.359217,8273.831378
73.370975,-2146.597232,7846.182985,6511.811733
73.371284,1036.288319,9104.533087,-1072.533697
73.371594,2368.659014,10140.821405,-8580.269578
73.371903,-1480.411884,12065.356855,-8503.660028
73.372212,-3256.906145,14434.015869,-6511.811733
73.372522,-2368.659014,15396.283594,-7967.393179
73.372831,-0.000000,11843.295072,-5975.544884
73.373141,1480.411884,6661.853478,-1378.971896
73.373450,2960.823768,2220.617826,3830.477490
73.373759,592.164754,1850.514855,10035.851024
73.374069,-2590.720797,5995.668130,12180.918418
73.374378,-1776.494261,9030.512492,4749.792088
73.374688,3849.070898,8512.368333,-9576.193725
73.374997,1850.514855,10658.965565,-12410.747068
73.375306,-1110.308913,14137.933492,-9806.022374
73.375616,-3330.926739,16358.551318,-6588.421283
73.375925,-3108.864956,17542.880825,-7201.297681
73.376235,1480.411884,12287.418637,-3294.210641
73.376544,4737.318029,5699.585753,-842.705048
73.376853,2368.659014,3627.009116,5132.839837
73.377163,-1332.370696,3775.050304,10878.556072
73.377472,296.082377,5255.462188,11874.480219
73.377781,-1850.514855,8142.265362,2374.896044
73.378091,1480.411884,9474.636058,-6435.202183
73.378400,1702.473667,11547.212695,-10801.946522
73.378710,-2442.679609,14211.954086,-10342.289223
73.379019,-3997.112087,18209.066173,-9499.584175
73.379328,-2072.576638,15100.201217,-7048.078582
73.379638,2072.576638,8808.450710,-3217.601092
73.379947,4441.235652,4145.153275,1685.410096
73.380257,592.164754,74.020594,6818.249932
73.380566,-592.164754,1480.411884,12027.699319
73.380875,-3775.050304,5551.544565,10878.556072
73.381185,666.185348,7254.018232,76.609550
73.381494,3701.029710,9992.780217,-11031.775171
73.381804,3552.988522,12213.398043,-12104.308868
73.382113,-3108.864956,16506.592507,-7890.783629
73.382422,-3997.112087,17838.963202,-5286.058936
73.382732,-370.102971,16876.695478,-4519.963438
73.383041,2886.803174,10510.924376,-1991.848295
73.383351,3478.967927,4589.276840,3447.429741
73.383660,1258.350101,1628.453072,9116.536426
73.383969,-1332.370696,4071.132681,11108.384721
73.384279,-1628.453072,7031.956449,7814.174080
73.384588,1702.473667,11547.212695,842.705048
73.384897,1776.494261,11991.336260,-8503.660028
73.385207,-0.000000,14508.036463,-11184.994271
73.385516,-3108.864956,16580.613101,-9576.193725
73.385826,-2072.576638,15692.365970,-6818.249932
73.386135,-148.041188,13619.789333,-6205.373534
73.386444,2590.720797,6217.729913,-612.876398
73.386754,1924.535449,148.041188,7507.735880
73.387063,518.144159,-370.102971,11721.261119
73.387373,-2516.700203,1924.535449,11414.822920
73.387682,-2368.659014,7550.100608,6358.592633
73.387991,1776.494261,8364.327145,-6511.811733
73.388301,3923.091493,11917.315666,-14249.376263
73.388610,-222.061783,16284.530724,-10035.851024
73.388920,-5477.523971,17616.901420,-4903.011187
73.389229,-3108.864956,17912.983796,-4596.572988
73.389538,888.247130,13545.768739,-2757.943793
73.389848,4145.153275,7698.141797,689.485948
73.390157,3108.864956,2738.761985,4060.306139
73.390466,-592.164754,1036.288319,9039.926876
73.390776,-3108.864956,6217.729913,9576.193725
73.391085,-1776.494261,9178.553681,2987.772442
73.391395,3478.967927,10732.986159,-7201.297681
73.391704,814.226536,11843.295072,-8810.098227
73.392013,-1406.391290,15396.283594,-8656.879127
73.392323,-2886.803174,14434.015869,-7584.345430
73.392632,-2294.638420,14063.912898,-6435.202183
73.392942,2812.782580,8512.368333,-3140.991542
73.393251,3256.906145,3256.906145,2374.896044
73.393560,3256.906145,-0.000000,7201.297681
73.393870,-3404.947333,1850.514855,12870.404366
73.394179,-3997.112087,5847.626942,9422.974625
73.394489,-444.123565,8290.306550,-1225.752797
73.394798,4367.215058,12731.542202,-12104.308868
73.395107,2368.659014,11991.336260,-13559.890315
73.395417,-2516.700203,17838.963202,-8656.879127
73.395726,-4367.215058,16950.716072,-4290.134789
73.396036,-222.061783,13101.645173,-2221.676944
73.396345,2146.597232,10140.821405,153.219100
73.396654,3849.070898,3330.926739,2987.772442
73.396964,-0.000000,888.247130,5975.544884
73.397273,-2220.617826,3256.906145,8656.879127
73.397582,-2220.617826,7698.141797,8427.050478
73.397892,592.164754,9770.718434,-2374.896044
73.398201,3404.947333,12139.377449,-10342.289223
73.398511,-222.061783,14804.118840,-11184.994271
73.398820,-2590.720797,15396.283594,-10265.679673
73.399129,-1480.411884,15174.221811,-5669.106685
73.399439,1998.556043,12657.521608,-3370.820191
73.399748,3923.091493,7105.977043,0.000000
73.400057,3775.050304,1036.288319,6128.763984
73.400367,-592.164754,-2516.700203,9422.974625
73.400676,-3108.864956,4145.153275,9806.022374
73.400986,814.226536,9548.656652,2528.115143
73.401295,2590.720797,9918.759623,-6741.640382
73.401604,1480.411884,14137.933492,-11721.261119
73.401914,-148.041188,14952.160028,-7354.516781
73.402223,-2516.700203,15618.345376,-5898.935335
73.402532,-3182.885551,16802.674883,-2834.553343
73.402842,-0.000000,14063.912898,-689.485948
73.403151,5033.400406,5181.441594,0.000000
73.403461,2886.803174,2072.576638,3983.696590
73.403770,-1776.494261,2368.659014,10035.851024
73.404079,-3775.050304,6365.771101,9269.755526
73.404389,-222.061783,8438.347739,1838.629195
73.404698,1480.411884,11917.315666,-7354.516781
73.405008,740.205942,11991.336260,-9959.241474
73.405317,-1554.432478,14582.057057,-9729.412825
73.405626,-3701.029710,14063.912898,-6971.469032
73.405936,-222.061783,11843.295072,-6741.640382
73.406245,2220.617826,9030.512492,-2068.457845
73.406554,2664.741391,2738.761985,2681.334243
73.406864,1406.391290,-814.226536,7967.393179
73.407173,-3108.864956,592.164754,9806.022374
73.407483,-222.061783,5699.585753,4673.182538
73.407792,1036.288319,10140.821405,-3064.381992
73.408101,3404.947333,12509.480420,-11414.822920
73.408411,2368.659014,14359.995275,-11414.822920
73.408720,-2664.741391,15026.180623,-5822.325785
73.409029,-3997.112087,17690.922014,-2834.553343
73.409339,-296.082377,15766.386565,-1991.848295
73.409648,4219.173869,10584.944971,-3217.601092
73.409958,1998.556043,3552.988522,153.219100
73.410267,-222.061783,2812.782580,5669.106685
73.410576,-2738.761985,4811.338623,7431.126331
73.410886,-888.247130,8364.327145,3753.867940
73.411195,740.205942,11769.274478,-2834.553343
73.411504,2960.823768,10436.903782,-7814.174080
73.411814,-0.000000,13249.686362,-7737.564530
73.412123,-3256.906145,13101.645173,-5592.497135
73.412433,-2368.659014,13545.768739,-3830.477490
73.412742,666.185348,10732.986159,-5209.449386
73.413051,2516.700203,3923.091493,-6128.763984
73.413361,1702.473667,3330.926739,3140.991542
73.413670,-3701.029710,2664.741391,9269.755526
73.413979,-2738.761985,4737.318029,7967.393179
73.414289,-1554.432478,9252.574275,995.924147
73.414598,7031.956449,9770.718434,-6665.030833
73.414908,3849.070898,10214.842000,-11031.775171
73.415217,-1184.329507,13767.830521,-6741.640382
73.415526,-4071.132681,14434.015869,-842.705048
73.415836,-444.123565,16062.468941,-1225.752797
73.416145,962.267725,13027.624579,-3140.991542
73.416454,3552.988522,7698.141797,-2298.286494
73.416764,2960.823768,3849.070898,1685.410096
73.417073,-2368.659014,3701.029710,6971.469032
73.417383,-2664.741391,11029.068536,4749.792088
73.417692,-296.082377,11325.150913,1838.629195
73.418001,3849.070898,10955.047942,-6588.421283
73.418311,1480.411884,12213.398043,-7354.516781
73.418620,-2516.700203,13101.645173,-3983.696590
73.418929,-2368.659014,13693.809927,-4979.620737
73.419239,-1406.391290,12953.603985,-3907.087040
73.419548,2368.659014,10436.903782,-3064.381992
73.419858,1998.556043,3923.091493,-766.095498
73.420167,-0.000000,1776.494261,1838.629195
73.420476,-4663.297435,3849.070898,9346.365076
73.420786,-2960.823768,7772.162391,5745.716235
73.421095,1998.556043,8438.347739,-3294.210641
73.421404,4219.173869,10214.842000,-9269.755526
73.421714,2294.638420,10510.924376,-5898.935335
73.422023,-3034.844362,12287.418637,-2374.896044
73.422333,-3404.947333,13693.809927,0.000000
73.422642,-74.020594,12953.603985,-1762.019645
73.422951,3404.947333,10732.986159,-4903.011187
73.423261,3849.070898,4367.215058,-1915.238745
73.423570,-888.247130,2812.782580,4290.134789
73.423879,-3034.844362,7698.141797,9116.536426
73.424189,-2516.700203,11547.212695,5975.544884
73.424498,1480.411884,14952.160028,-2221.676944
73.424808,2960.823768,12583.501014,-8120.612279
73.425117,-222.061783,12731.542202,-8120.612279
73.425426,-4367.215058,14137.933492,-4903.011187
73.425736,-3034.844362,14582.057057,-4826.401637
73.426045,1406.391290,13101.645173,-6511.811733
73.426354,4441.235652,7105.977043,-4290.134789
73.426664,2146.597232,2368.659014,2604.724693
73.426973,-3256.906145,1998.556043,9499.584175
