#time,accel_x,accel_y,accel_z
95.248840,1110.308913,8512.368333,153.219100
95.249150,-0.000000,8882.471304,-1685.410096
95.249460,-0.000000,8512.368333,-2604.724693
95.249770,-296.082377,9400.615463,-1532.190996
95.250079,1332.370696,9918.759623,-2374.896044
95.250389,444.123565,10140.821405,-1685.410096
95.250699,222.061783,9252.574275,-919.314598
95.251009,-0.000000,9474.636058,-1455.581446
95.251318,-0.000000,8956.491898,-1838.629195
95.251628,444.123565,9252.574275,-1532.190996
95.251938,-370.102971,10140.821405,-153.219100
95.252248,-370.102971,9474.636058,-1072.533697
95.252558,814.226536,9030.512492,-2757.943793
95.252867,444.123565,9548.656652,-2451.505594
95.253177,-962.267725,10436.903782,-383.047749
95.253487,666.185348,9474.636058,76.609550
95.253797,222.061783,9770.718434,-153.219100
95.254107,444.123565,8882.471304,-766.095498
95.254416,-1702.473667,8068.244768,-7814.174080
95.254726,-222.061783,9400.615463,-2757.943793
95.255036,666.185348,9474.636058,-383.047749
95.255346,-74.020594,9030.512492,995.924147
95.255656,1702.473667,8512.368333,995.924147
95.255965,1406.391290,10362.883188,-1455.581446
95.256275,4441.235652,5921.647536,689.485948
95.256585,1776.494261,6069.688724,7814.174080
95.256895,1480.411884,6809.894666,11874.480219
95.257204,-962.267725,5921.647536,7737.564530
95.257514,8512.368333,8734.430116,6818.249932
95.257824,4737.318029,5921.647536,2757.943793
95.258134,-1702.473667,8142.265362,9806.022374
95.258444,-1776.494261,11621.233289,15245.300410
95.258753,2738.761985,9992.780217,2987.772442
95.259063,962.267725,11399.171507,3753.867940
95.259373,-2368.659014,13027.624579,12563.966167
95.259683,-8290.306550,16358.551318,12410.747068
95.259993,4959.379811,22946.384202,-4596.572988
95.260302,5329.482782,5329.482782,-1225.752797
95.260612,444.123565,13693.809927,18079.853753
95.260922,-18801.230927,9252.574275,29954.333972
95.261232,4219.173869,20281.642811,4060.306139
95.261541,2590.720797,4145.153275,-1455.581446
95.261851,-2738.761985,11325.150913,4366.744339
95.262161,-10881.027347,7402.059420,9269.755526
95.262471,296.082377,12509.480420,689.485948
95.262781,-0.000000,6735.874072,3447.429741
95.263090,-6513.812290,5847.626942,17083.929605
95.263400,5107.421000,4219.173869,15245.300410
95.263710,-6217.729913,-1406.391290,14402.595362
95.264020,4145.153275,5181.441594,14632.424012
95.264330,-3404.947333,6291.750507,9422.974625
95.264639,-592.164754,7698.141797,153.219100
95.264949,-592.164754,9918.759623,3753.867940
95.265259,1332.370696,14804.118840,919.314598
95.265569,4071.132681,12435.459826,-153.219100
95.265879,5255.462188,10214.842000,14709.033562
95.266188,666.185348,8068.244768,24974.713235
95.266498,-1628.453072,3108.864956,19918.482948
95.266808,4589.276840,7105.977043,10725.336972
95.267118,-814.226536,6439.791695,5745.716235
95.267427,3701.029710,13989.892304,-1991.848295
95.267737,4959.379811,16580.613101,-2987.772442
95.268047,-518.144159,15248.242405,8427.050478
95.268357,-3182.885551,15692.365970,16164.615008
95.268667,-6587.832884,10881.027347,9959.241474
95.268976,2590.720797,11917.315666,2834.553343
95.269286,3256.906145,7550.100608,-4596.572988
95.269596,4293.194464,9104.533087,-842.705048
95.269906,370.102971,9400.615463,13330.061665
95.270216,-3330.926739,9326.594869,14249.376263
95.270525,1258.350101,8512.368333,9729.412825
95.270835,5107.421000,4811.338623,1455.581446
95.271145,-2590.720797,2960.823768,2221.676944
95.271455,-9178.553681,5551.544565,7277.907231
95.271764,-2220.617826,8956.491898,689.485948
95.272074,7105.977043,8512.368333,-10495.508323
95.272384,6883.915261,10510.924376,-3907.087040
95.272694,-6291.750507,8438.347739,14479.204912
95.273004,-11769.274478,10436.903782,20991.016645
95.273313,1480.411884,12805.562797,5286.058936
95.273623,4959.379811,9918.759623,-10418.898773
95.273933,-2220.617826,10288.862594,-5515.887586
95.274243,-10510.924376,11399.171507,2145.067394
95.274553,-1332.370696,16432.571912,-7124.688131
95.274862,7698.141797,14434.015869,-13942.938064
95.275172,4071.132681,11251.130318,3064.381992
95.275482,-7476.080014,1702.473667,21757.112143
95.275792,-3478.967927,2294.638420,15092.081311
95.276101,14434.015869,3330.926739,-2681.334243
95.276411,-3182.885551,-1480.411884,-4290.134789
95.276721,-7105.977043,6587.832884,10495.508323
95.277031,6143.709319,7179.997637,-4060.306139
95.277341,13323.706956,9252.574275,-23902.179538
95.277650,-1628.453072,9474.636058,6894.859482
95.277960,-6809.894666,9104.533087,29801.114872
95.278270,2886.803174,5921.647536,12334.137518
95.278580,6291.750507,7920.203579,-7048.078582
95.278890,-0.000000,9918.759623,-3830.477490
95.279199,-7624.121203,12953.603985,-3140.991542
95.279509,1036.288319,19467.416275,-10955.165621
95.279819,10066.800811,20577.725188,-15168.690860
95.280129,1036.288319,17024.736666,-4519.963438
95.280439,-10288.862594,14359.995275,20837.797546
95.280748,-4071.132681,11769.274478,22293.378992
95.281058,6217.729913,7328.038826,-1915.238745
95.281368,5995.668130,7698.141797,-9882.631924
95.281678,-3182.885551,10510.924376,153.219100
95.281987,2368.659014,10955.047942,-4673.182538
95.282297,8290.306550,12805.562797,-4903.011187
95.282607,-3182.885551,13915.871710,9116.536426
95.282917,-6143.709319,12139.377449,20071.702048
95.283227,-4515.256246,2886.803174,9882.631924
95.283536,-2072.576638,2294.638420,-3217.601092
95.283846,-888.247130,5551.544565,-8427.050478
95.284156,1850.514855,9030.512492,-15704.957709
95.284466,2960.823768,8956.491898,-6511.811733
95.284776,-4811.338623,13175.665768,11338.213370
95.285085,-296.082377,12805.562797,13559.890315
95.285395,-814.226536,6513.812290,5515.887586
95.285705,-4441.235652,3775.050304,6741.640382
95.286015,-6587.832884,1628.453072,6894.859482
95.286324,4515.256246,4959.379811,-13713.109414
95.286634,5699.585753,5995.668130,-15934.786358
95.286944,-3478.967927,11843.295072,4136.915689
95.287254,-3923.091493,14063.912898,11108.384721
95.287564,1480.411884,11769.274478,5669.106685
95.287873,-0.000000,9844.739029,1915.238745
95.288183,-6957.935855,9030.512492,4673.182538
95.288493,1036.288319,12805.562797,-6665.030833
95.288803,8216.285956,8956.491898,-19075.777900
95.289113,3404.947333,15470.304188,-8120.612279
95.289422,-4737.318029,14285.974681,10342.289223
95.289732,-1406.391290,11103.089130,9346.365076
95.290042,2812.782580,12287.418637,229.828649
95.290352,-3923.091493,10955.047942,76.609550
95.290661,-1628.453072,11177.109724,-3830.477490
95.290971,5773.606348,4811.338623,-16317.834107
95.291281,3701.029710,7550.100608,-13330.061665
95.291591,-2368.659014,7846.182985,7584.345430
95.291901,-2368.659014,6069.688724,7431.126331
95.292210,740.205942,9696.697840,3294.210641
95.292520,-2220.617826,12361.439231,2298.286494
95.292830,814.226536,9696.697840,-7660.954980
95.293140,8290.306550,6661.853478,-19918.482948
95.293450,4441.235652,5995.668130,-12947.013916
95.293759,-2294.638420,7476.080014,8197.221829
95.294069,814.226536,6735.874072,7967.393179
95.294379,3997.112087,5921.647536,2451.505594
95.294689,-888.247130,9992.780217,4979.620737
95.294999,-2590.720797,11399.171507,1378.971896
95.295308,8364.327145,8956.491898,-17773.415554
95.295618,7254.018232,7624.121203,-18079.853753
95.295928,-5181.441594,7031.956449,2604.724693
95.296238,-962.267725,6661.853478,8503.660028
95.296547,1702.473667,6069.688724,2757.943793
95.296857,-3108.864956,12435.459826,4749.792088
95.297167,-3849.070898,14508.036463,3600.648841
95.297477,6365.771101,13323.706956,-14709.033562
95.297787,9030.512492,10881.027347,-19075.777900
95.298096,-3256.906145,10510.924376,842.705048
95.298406,-6291.750507,8364.327145,13559.890315
95.298716,2960.823768,6291.750507,4903.011187
95.299026,740.205942,7328.038826,1302.362347
95.299336,-8882.471304,11029.068536,6971.469032
95.299645,-814.226536,12509.480420,-5592.497135
95.299955,7994.224174,10955.047942,-18999.168350
95.300265,-1776.494261,10732.986159,-7660.954980
95.300575,-6513.812290,8290.306550,8886.707777
95.300884,-1628.453072,6661.853478,7201.297681
95.301194,-3552.988522,8882.471304,3983.696590
95.301504,-7254.018232,12583.501014,6741.640382
95.301814,1924.535449,11177.109724,-5286.058936
95.302124,8290.306550,8586.388927,-20071.702048
95.302433,1110.308913,9918.759623,-6894.859482
95.302743,-6883.915261,6957.935855,12717.185267
95.303053,-740.205942,5773.606348,9882.631924
95.303363,3478.967927,4959.379811,689.485948
95.303672,-7105.977043,6661.853478,11951.089769
95.303982,-3775.050304,9104.533087,4596.572988
95.304291,9992.780217,8068.244768,-17773.415554
95.304601,5773.606348,11325.150913,-12027.699319
95.304910,-3256.906145,9474.636058,10112.460574
95.305220,-74.020594,9548.656652,8120.612279
95.305529,-1332.370696,8586.388927,-306.438199
95.305839,-4071.132681,14952.160028,4213.525239
95.306148,-3108.864956,16432.571912,306.438199
95.306458,9918.759623,13471.748144,-19688.654299
95.306767,6143.709319,13101.645173,-15092.081311
95.307077,-4441.235652,11991.336260,9652.803275
95.307386,-2960.823768,6291.750507,12870.404366
95.307696,4367.215058,3330.926739,2757.943793
95.308005,-1036.288319,7624.121203,8963.317327
95.308315,-7402.059420,10066.800811,9729.412825
95.308624,5477.523971,8882.471304,-14172.766713
95.308934,6365.771101,7624.121203,-16930.710506
95.309244,-2886.803174,10066.800811,536.266849
95.309553,-4145.153275,8882.471304,6971.469032
95.309863,-1776.494261,7254.018232,2068.457845
95.310172,-5921.647536,12287.418637,7277.907231
95.310482,-6809.894666,13249.686362,2987.772442
95.310791,5551.544565,12361.439231,-17160.539155
95.311101,3404.947333,10288.862594,-17543.586904
95.311410,-5625.565159,11103.089130,3907.087040
95.311720,-1406.391290,8290.306550,8810.098227
95.312029,3478.967927,3627.009116,0.000000
95.312339,518.144159,5921.647536,3370.820191
95.312648,-7402.059420,7105.977043,9576.193725
95.312958,3108.864956,7254.018232,-3983.696590
95.313267,10658.965565,7920.203579,-19535.435199
95.313577,-0.000000,9770.718434,-2451.505594
95.313886,-1480.411884,7550.100608,8350.440928
95.314196,-666.185348,4219.173869,689.485948
95.314506,592.164754,9326.594869,-2221.676944
95.314815,-6735.874072,16950.716072,4366.744339
95.315125,2072.576638,15988.448347,-9499.584175
95.315434,9696.697840,11325.150913,-19841.873398
95.315744,5403.503377,11843.295072,-4673.182538
95.316053,-3701.029710,9178.553681,10495.508323
95.316363,-888.247130,5921.647536,7890.783629
95.316672,5033.400406,7476.080014,1378.971896
95.316982,-814.226536,9474.636058,842.705048
95.317291,-1258.350101,11325.150913,1149.143247
95.317601,4071.132681,8956.491898,-11108.384721
95.317910,2072.576638,7105.977043,-9193.145976
95.318220,-2960.823768,8438.347739,2834.553343
95.318529,-2368.659014,6587.832884,7737.564530
95.318839,-814.226536,6069.688724,3294.210641
95.319148,-4367.215058,14137.933492,766.095498
95.319458,-74.020594,15840.407159,-5286.058936
95.319767,7624.121203,11843.295072,-16394.443657
95.320077,3552.988522,9474.636058,-5669.106685
95.320387,-4589.276840,7920.203579,11721.261119
95.320696,-3256.906145,5181.441594,10035.851024
95.321006,1998.556043,5477.523971,842.705048
95.321315,-2368.659014,7550.100608,2298.286494
95.321625,-8290.306550,9030.512492,3524.039291
95.321934,6217.729913,11251.130318,-13483.280765
95.322244,3256.906145,8882.471304,-15245.300410
95.322553,-2442.679609,10584.944971,4596.572988
95.322863,-5329.482782,7402.059420,10878.556072
95.323172,-1332.370696,8216.285956,0.000000
95.323482,-4885.359217,12361.439231,1072.533697
95.323791,-3701.029710,15396.283594,-306.438199
95.324101,4663.297435,13767.830521,-14249.376263
95.324410,6217.729913,10362.883188,-18922.558801
95.324720,-1036.288319,10214.842000,3294.210641
95.325029,-5551.544565,6143.709319,13023.623466
95.325339,3478.967927,5625.565159,5286.058936
95.325649,666.185348,5181.441594,1991.848295
95.325958,-4811.338623,11843.295072,2681.334243
95.326268,-370.102971,7846.182985,-4290.134789
95.326577,5699.585753,8216.285956,-14632.424012
95.326887,444.123565,11695.253884,-6588.421283
95.327196,-4959.379811,9326.594869,8810.098227
95.327506,-2146.597232,9474.636058,5439.278036
95.327815,-1184.329507,9844.739029,3370.820191
95.328125,-2886.803174,13175.665768,2451.505594
95.328434,-0.000000,12213.398043,-5822.325785
95.328744,5625.565159,8512.368333,-14402.595362
95.329053,5329.482782,10510.924376,-5669.106685
95.329363,-3034.844362,10584.944971,5515.887586
95.329672,148.041188,7698.141797,5209.449386
95.329982,3997.112087,5403.503377,1991.848295
95.330291,-2812.782580,7254.018232,1532.190996
95.330601,-3923.091493,8512.368333,2987.772442
95.330910,6143.709319,8438.347739,-8656.879127
95.331220,6143.709319,6735.874072,-12334.137518
95.331530,-0.000000,10288.862594,-229.828649
95.331839,-3552.988522,8142.265362,7354.516781
95.332149,-962.267725,8956.491898,3830.477490
95.332458,814.226536,13841.851115,-383.047749
95.332768,-2368.659014,13249.686362,-6052.154434
95.333077,5477.523971,11029.068536,-13789.718964
95.333387,2072.576638,10214.842000,-8810.098227
95.333696,-1480.411884,12805.562797,-2298.286494
95.334006,370.102971,6809.894666,1302.362347
95.334315,1702.473667,7105.977043,306.438199
95.334625,-1184.329507,6809.894666,3753.867940
95.334934,-4145.153275,8142.265362,2221.676944
95.335244,4441.235652,6661.853478,-6665.030833
95.335553,3182.885551,5181.441594,-10801.946522
95.335863,1110.308913,5255.462188,229.828649
95.336172,-2368.659014,5625.565159,6052.154434
95.336482,-3330.926739,8956.491898,689.485948
95.336792,-2368.659014,12213.398043,-2145.067394
95.337101,-3923.091493,13767.830521,-3677.258390
95.337411,888.247130,13989.892304,-10418.898773
95.337720,2590.720797,11843.295072,-13713.109414
95.338030,-518.144159,9474.636058,-5056.230287
95.338339,-4663.297435,7846.182985,4749.792088
95.338649,222.061783,6069.688724,4749.792088
95.338958,3256.906145,5847.626942,1225.752797
95.339268,-4441.235652,8216.285956,4749.792088
95.339577,-1110.308913,9030.512492,1762.019645
95.339887,7402.059420,7328.038826,-10955.165621
95.340196,3108.864956,9178.553681,-11414.822920
95.340506,-2664.741391,7624.121203,4443.353888
95.340815,-4071.132681,9844.739029,5669.106685
95.341125,-814.226536,10510.924376,76.609550
95.341434,-1184.329507,13841.851115,-1915.238745
95.341744,444.123565,16062.468941,-7277.907231
95.342053,3330.926739,13841.851115,-11031.775171
95.342363,3182.885551,12287.418637,-7277.907231
95.342673,-1998.556043,9474.636058,2451.505594
95.342982,148.041188,7994.224174,7431.126331
95.343292,2220.617826,5329.482782,3294.210641
95.343601,-0.000000,6587.832884,1991.848295
95.343911,-3330.926739,7328.038826,3217.601092
95.344220,2368.659014,6513.812290,-6435.202183
95.344530,5773.606348,6809.894666,-12257.527968
95.344839,-2368.659014,7550.100608,153.219100
95.345149,-4071.132681,8586.388927,7048.078582
95.345458,-370.102971,9918.759623,766.095498
95.345768,-3849.070898,11917.315666,-3677.258390
95.346077,-1776.494261,14285.974681,-2604.724693
95.346387,1258.350101,13915.871710,-10572.117872
95.346696,4071.132681,12805.562797,-12947.013916
95.347006,740.205942,10658.965565,-689.485948
95.347315,-1776.494261,8956.491898,8886.707777
95.347625,2664.741391,5403.503377,6205.373534
95.347935,-666.185348,6735.874072,5669.106685
95.348244,-3775.050304,8216.285956,5209.449386
95.348554,1628.453072,9400.615463,-4979.620737
95.348863,8068.244768,8808.450710,-15858.176809
95.349173,370.102971,9252.574275,-6741.640382
95.349482,-4589.276840,9326.594869,8963.317327
95.349792,-1406.391290,8438.347739,7048.078582
95.350101,-1184.329507,9474.636058,-2604.724693
95.350411,-3256.906145,12509.480420,1455.581446
95.350720,-1998.556043,14137.933492,-2987.772442
95.351030,6439.791695,15026.180623,-14938.862211
95.351339,5477.523971,12509.480420,-10878.556072
95.351649,-592.164754,10955.047942,5362.668486
95.351958,814.226536,7772.162391,8810.098227
95.352268,962.267725,5921.647536,4826.401637
95.352577,-2368.659014,6735.874072,7124.688131
95.352887,-1258.350101,5699.585753,4290.134789
95.353196,7105.977043,6661.853478,-12563.966167
95.353506,6217.729913,6883.915261,-13789.718964
95.353816,-2516.700203,6957.935855,842.705048
95.354125,-6661.853478,8586.388927,9882.631924
95.354435,-1258.350101,6217.729913,7124.688131
95.354744,-2220.617826,12435.459826,-1532.190996
95.355054,-3034.844362,16284.530724,-3677.258390
95.355363,3923.091493,14582.057057,-10725.336972
95.355673,2812.782580,11399.171507,-13483.280765
95.355982,-1480.411884,12509.480420,-2451.505594
95.356292,-814.226536,9770.718434,7354.516781
95.356601,1332.370696,5033.400406,2451.505594
95.356911,-4441.235652,7920.203579,2757.943793
95.357220,-1628.453072,8216.285956,5362.668486
95.357530,4515.256246,8364.327145,-10265.679673
95.357839,3997.112087,7105.977043,-16777.491406
95.358149,-1332.370696,7698.141797,-1225.752797
95.358458,-4589.276840,6809.894666,8656.879127
95.358768,-1924.535449,8882.471304,2681.334243
95.359078,-1850.514855,11399.171507,1149.143247
95.359387,-3997.112087,13693.809927,459.657299
95.359697,1924.535449,12879.583391,-10035.851024
95.360006,4959.379811,12509.480420,-11797.870669
95.360316,1184.329507,11177.109724,-4673.182538
95.360625,-3256.906145,7698.141797,3064.381992
95.360935,-592.164754,6661.853478,4596.572988
95.361244,-296.082377,9992.780217,2987.772442
95.361554,-4071.132681,8660.409521,2374.896044
95.361863,1480.411884,11103.089130,-5362.668486
95.362173,7105.977043,8142.265362,-12334.137518
95.362482,3627.009116,4737.318029,-6052.154434
95.362792,-4367.215058,5625.565159,8273.831378
95.363101,-3627.009116,4885.359217,10572.117872
95.363411,3923.091493,9474.636058,0.000000
95.363720,-2368.659014,11769.274478,-2604.724693
95.364030,296.082377,15248.242405,-4903.011187
95.364339,3849.070898,13471.748144,-15321.909960
95.364649,4589.276840,11251.130318,-9959.241474
95.364959,-1702.473667,10807.006753,3064.381992
95.365268,-1480.411884,6143.709319,8350.440928
95.365578,740.205942,7105.977043,3524.039291
95.365887,-2590.720797,9474.636058,2911.162892
95.366197,-1184.329507,11695.253884,-1608.800546
95.366506,9844.739029,8142.265362,-12487.356617
95.366816,3182.885551,6439.791695,-10572.117872
95.367125,-6143.709319,5847.626942,8427.050478
95.367435,-2738.761985,7698.141797,12410.747068
95.367744,2146.597232,8142.265362,-1762.019645
95.368054,-2886.803174,11251.130318,-1532.190996
95.368363,-2664.741391,15470.304188,-612.876398
95.368673,3330.926739,13323.706956,-14249.376263
95.368982,4737.318029,13101.645173,-13176.842566
95.369292,-2812.782580,10658.965565,3983.696590
95.369601,-2960.823768,6661.853478,6588.421283
95.369911,1184.329507,6809.894666,2145.067394
95.370221,-4145.153275,11695.253884,4213.525239
95.370530,-2516.700203,11843.295072,0.000000
95.370840,8734.430116,9326.594869,-13636.499864
95.371149,7105.977043,9030.512492,-13100.233016
95.371459,-4811.338623,7031.956449,3830.477490
95.371768,-5255.462188,7031.956449,11721.261119
95.372078,1110.308913,6587.832884,4826.401637
95.372387,-1036.288319,8808.450710,-689.485948
95.372697,-4737.318029,13175.665768,-2451.505594
95.373006,444.123565,14656.077652,-14096.157163
95.373316,6217.729913,13545.768739,-15934.786358
95.373625,1554.432478,11177.109724,-5056.230287
95.373935,-5107.421000,9844.739029,8197.221829
95.374244,-740.205942,7846.182985,8503.660028
95.374554,1702.473667,9252.574275,689.485948
95.374863,-3478.967927,8438.347739,-612.876398
95.375173,1776.494261,9252.574275,-3983.696590
95.375482,6587.832884,7550.100608,-10955.165621
95.375792,888.247130,8364.327145,-3447.429741
95.376102,-4737.318029,7698.141797,9193.145976
95.376411,-3478.967927,7105.977043,9346.365076
95.376721,1406.391290,7105.977043,-919.314598
95.377030,-4663.297435,12361.439231,-2298.286494
95.377340,-2812.782580,16876.695478,-6358.592633
95.377649,4441.235652,12435.459826,-14096.157163
95.377959,2664.741391,12509.480420,-9652.803275
95.378268,-3478.967927,9696.697840,4673.182538
95.378578,-4367.215058,8734.430116,11951.089769
95.378887,1332.370696,8660.409521,1608.800546
95.379197,-3182.885551,9474.636058,-153.219100
95.379506,-222.061783,10214.842000,-1608.800546
95.379816,7994.224174,8586.388927,-11797.870669
95.380125,3997.112087,6735.874072,-12334.137518
95.380435,-4737.318029,7846.182985,6588.421283
95.380744,-3256.906145,5625.565159,9729.412825
95.381054,2886.803174,5921.647536,-1838.629195
95.381364,-3034.844362,11843.295072,-2298.286494
95.381673,-4367.215058,14285.974681,306.438199
95.381983,5033.400406,13915.871710,-11951.089769
95.382292,6143.709319,10362.883188,-15092.081311
95.382602,-888.247130,9326.594869,-76.609550
95.382911,-4663.297435,6365.771101,6128.763984
95.383221,1258.350101,7476.080014,4826.401637
95.383530,592.164754,9622.677246,1838.629195
95.383840,-2368.659014,11029.068536,536.266849
95.384149,4441.235652,9326.594869,-7737.564530
95.384459,5181.441594,6069.688724,-14862.252661
95.384768,-1998.556043,7105.977043,-766.095498
95.385078,-2590.720797,6217.729913,7890.783629
95.385387,1850.514855,7179.997637,2298.286494
95.385697,-1406.391290,10732.986159,995.924147
95.386006,-3330.926739,11917.315666,4213.525239
95.386316,148.041188,12657.521608,-5898.935335
95.386625,6661.853478,11251.130318,-14709.033562
95.386935,2590.720797,10436.903782,-4060.306139
95.387245,-6217.729913,8142.265362,7431.126331
95.387554,2072.576638,8068.244768,4596.572988
95.387864,666.185348,8438.347739,919.314598
95.388173,-4071.132681,10214.842000,4903.011187
95.388483,1480.411884,9622.677246,-1991.848295
95.388792,4737.318029,8586.388927,-11721.261119
95.389102,-0.000000,7328.038826,-5822.325785
95.389411,-4071.132681,9548.656652,5898.935335
95.389721,296.082377,9104.533087,1455.581446
95.390030,2812.782580,11177.109724,-2604.724693
95.390340,-5921.647536,11621.233289,2451.505594
95.390649,-2072.576638,12583.501014,-612.876398
95.390959,6513.812290,10066.800811,-12180.918418
95.391268,4071.132681,7994.224174,-7201.297681
95.391578,-4663.297435,5403.503377,8044.002729
95.391887,-1776.494261,5847.626942,6971.469032
95.392197,2886.803174,6513.812290,153.219100
95.392507,-2220.617826,9696.697840,766.095498
95.392816,-2368.659014,13175.665768,-919.314598
95.393126,4071.132681,9326.594869,-9729.412825
95.393435,2072.576638,9178.553681,-9576.193725
95.393745,-2442.679609,9844.739029,766.095498
95.394054,-3627.009116,8068.244768,4903.011187
95.394364,-74.020594,9918.759623,3600.648841
95.394673,-2146.597232,11547.212695,3217.601092
95.394983,-2812.782580,12213.398043,2374.896044
95.395292,5107.421000,12435.459826,-7048.078582
95.395602,4737.318029,9622.677246,-10878.556072
95.395911,-2072.576638,8660.409521,-2068.457845
95.396221,-3627.009116,7994.224174,7354.516781
95.396530,1628.453072,6587.832884,4673.182538
95.396840,-0.000000,9474.636058,1991.848295
95.397149,-1110.308913,10807.006753,6128.763984
95.397459,1702.473667,9178.553681,-3370.820191
95.397768,4663.297435,8586.388927,-10265.679673
95.398078,-370.102971,9252.574275,-3140.991542
95.398388,-2294.638420,8734.430116,3753.867940
95.398697,-222.061783,11251.130318,2987.772442
95.399007,-888.247130,11177.109724,1072.533697
95.399316,-5699.585753,13027.624579,5056.230287
95.399626,3108.864956,12139.377449,-4443.353888
95.399935,7550.100608,7846.182985,-13330.061665
95.400245,444.123565,9696.697840,-3983.696590
95.400554,-5625.565159,7179.997637,9422.974625
95.400864,1110.308913,6883.915261,3600.648841
95.401173,3404.947333,9474.636058,-2757.943793
95.401483,-3256.906145,8586.388927,1455.581446
95.401792,-1702.473667,10955.047942,-153.219100
95.402102,5403.503377,11399.171507,-10342.289223
95.402411,2516.700203,9030.512492,-9039.926876
95.402721,-1702.473667,8808.450710,3677.258390
95.403030,-2220.617826,9474.636058,8733.488677
95.403340,2368.659014,7254.018232,2068.457845
95.403650,-3701.029710,11843.295072,1455.581446
95.403959,-3034.844362,12953.603985,689.485948
95.404269,5551.544565,10214.842000,-12870.404366
95.404578,5329.482782,10066.800811,-14479.204912
95.404888,-3478.967927,8882.471304,1225.752797
95.405197,-4515.256246,8586.388927,9806.022374
95.405506,3034.844362,6735.874072,2068.457845
95.405816,-2442.679609,11621.233289,536.266849
95.406125,-5033.400406,9770.718434,4673.182538
95.406434,3923.091493,9252.574275,-5439.278036
95.406744,7476.080014,7105.977043,-15092.081311
95.407053,-1406.391290,9918.759623,-2451.505594
95.407362,-3923.091493,8586.388927,8580.269578
95.407672,1924.535449,7105.977043,2681.334243
95.407981,-962.267725,11843.295072,536.266849
95.408290,-5551.544565,13323.706956,3370.820191
95.408600,1850.514855,11029.068536,-9499.584175
95.408909,7105.977043,8586.388927,-17083.929605
95.409218,-814.226536,8734.430116,-3140.991542
95.409528,-4515.256246,8660.409521,11261.603821
95.409837,2664.741391,6957.935855,4673.182538
95.410146,1850.514855,5403.503377,153.219100
95.410456,-7105.977043,8956.491898,6205.373534
95.410765,1332.370696,11399.171507,-536.266849
95.411074,6809.894666,8290.306550,-16700.881856
95.411383,-0.000000,11029.068536,-7967.393179
95.411693,-5255.462188,8882.471304,10572.117872
95.412002,740.205942,8068.244768,4136.915689
95.412311,-0.000000,12509.480420,-2834.553343
95.412621,-7105.977043,13175.665768,4519.963438
95.412930,-0.000000,13027.624579,-3064.381992
95.413239,7846.182985,9178.553681,-19535.435199
95.413549,1998.556043,8586.388927,-8963.317327
95.413858,-6809.894666,6587.832884,12257.527968
95.414167,370.102971,7698.141797,7354.516781
95.414477,4737.318029,7846.182985,-3753.867940
95.414786,-3701.029710,8734.430116,5362.668486
95.415095,-4515.256246,10066.800811,3524.039291
95.415405,4441.235652,9030.512492,-12870.404366
95.415714,5995.668130,9918.759623,-12563.966167
95.416023,-4441.235652,11029.068536,3064.381992
95.416333,-3404.947333,8734.430116,7507.735880
95.416642,-592.164754,9770.718434,1225.752797
95.416951,-5033.400406,12657.521608,2221.676944
95.417261,-2516.700203,16136.489536,-4136.915689
95.417570,5329.482782,11399.171507,-15781.567259
95.417879,5181.441594,8142.265362,-14632.424012
95.418188,-2368.659014,8586.388927,5592.497135
95.418498,-3552.988522,6365.771101,13559.890315
95.418807,3775.050304,7105.977043,1378.971896
95.419116,-148.041188,6365.771101,1915.238745
95.419426,-5921.647536,9326.594869,6665.030833
95.419735,3923.091493,9992.780217,-6971.469032
95.420044,6291.750507,9918.759623,-17543.586904
95.420354,-1776.494261,10362.883188,-2145.067394
95.420663,-5181.441594,8512.368333,9882.631924
95.420972,-74.020594,8512.368333,2451.505594
95.421282,-1850.514855,11769.274478,-153.219100
95.421591,-5033.400406,14730.098246,2911.162892
95.421900,3627.009116,13767.830521,-8350.440928
95.422210,8660.409521,7179.997637,-16088.005458
95.422519,-296.082377,9178.553681,-2757.943793
95.422828,-5625.565159,6439.791695,12487.356617
95.423138,4293.194464,6513.812290,6741.640382
95.423447,666.185348,6587.832884,229.828649
95.423756,-6143.709319,7920.203579,5362.668486
95.424065,-814.226536,8660.409521,-995.924147
95.424375,7179.997637,7254.018232,-13942.938064
95.424684,1702.473667,9770.718434,-9116.536426
95.424993,-6809.894666,9844.739029,7814.174080
95.425303,-592.164754,8364.327145,5592.497135
95.425612,-222.061783,10881.027347,-4673.182538
95.425921,-6365.771101,14508.036463,-306.438199
95.426231,-1480.411884,14656.077652,-1302.362347
95.426540,8142.265362,11103.089130,-15704.957709
95.426849,4293.194464,9104.533087,-11721.261119
95.427159,-6661.853478,6809.894666,10189.070123
95.427468,-2960.823768,7254.018232,13559.890315
95.427777,5847.626942,5847.626942,-2451.505594
95.428087,-2516.700203,7105.977043,536.266849
95.428396,-3775.050304,10955.047942,5286.058936
95.428705,5255.462188,10214.842000,-9193.145976
95.429015,7105.977043,9252.574275,-16700.881856
95.429324,-5551.544565,9548.656652,2987.772442
95.429633,-4811.338623,7402.059420,10112.460574
95.429943,296.082377,9252.574275,-459.657299
95.430252,-3256.906145,13249.686362,-229.828649
95.430561,-1924.535449,16136.489536,229.828649
95.430870,4885.359217,11325.150913,-10878.556072
95.431180,7402.059420,7328.038826,-12640.575717
95.431489,-4293.194464,7624.121203,7277.907231
95.431798,-4219.173869,7179.997637,13559.890315
95.432108,5403.503377,5107.421000,995.924147
95.432417,370.102971,6217.729913,-2528.115143
95.432726,-6587.832884,8882.471304,5898.935335
95.433036,1036.288319,7105.977043,-4443.353888
95.433345,7328.038826,9400.615463,-15934.786358
95.433654,-888.247130,11621.233289,-5439.278036
95.433964,-5847.626942,8586.388927,8503.660028
95.434273,-148.041188,9252.574275,3907.087040
95.434582,-1406.391290,13841.851115,-2834.553343
95.434892,-2886.803174,15914.427753,-306.438199
95.435201,962.267725,13989.892304,-6435.202183
95.435510,8808.450710,7846.182985,-14709.033562
95.435820,148.041188,3997.112087,1532.190996
95.436129,-5181.441594,7550.100608,13483.280765
95.436438,3552.988522,6587.832884,3217.601092
95.436747,1258.350101,4071.132681,-4290.134789
95.437057,-5403.503377,9104.533087,4366.744339
95.437366,-0.000000,9326.594869,-229.828649
95.437675,6735.874072,8808.450710,-16854.100956
95.437985,2072.576638,10658.965565,-8120.612279
95.438294,-6883.915261,8068.244768,8580.269578
95.438603,1332.370696,10362.883188,4749.792088
95.438913,-0.000000,9770.718434,-1072.533697
95.439222,-3775.050304,15248.242405,766.095498
95.439531,-444.123565,14285.974681,-3140.991542
95.439841,7402.059420,10732.986159,-14096.157163
95.440150,3923.091493,8438.347739,-7277.907231
95.440459,-6291.750507,9400.615463,7124.688131
95.440769,-888.247130,8808.450710,7814.174080
95.441078,4885.359217,4441.235652,-2757.943793
95.441387,-2516.700203,7846.182985,76.609550
95.441697,-4737.318029,7920.203579,6281.983084
95.442006,4737.318029,6365.771101,-8273.831378
95.442315,7179.997637,6661.853478,-13023.623466
95.442625,-3701.029710,9548.656652,3370.820191
95.442934,-3997.112087,7105.977043,13866.328514
95.443243,148.041188,10066.800811,1149.143247
95.443552,-2220.617826,14952.160028,-1991.848295
95.443862,-3849.070898,14952.160028,-919.314598
95.444171,3923.091493,12879.583391,-10112.460574
95.444480,5551.544565,12213.398043,-13713.109414
95.444790,-2368.659014,11251.130318,-229.828649
95.445099,-4071.132681,8808.450710,7431.126331
95.445408,1628.453072,8068.244768,766.095498
95.445718,-814.226536,7550.100608,-3064.381992
95.446027,-4367.215058,8586.388927,2681.334243
95.446336,2368.659014,7772.162391,-2145.067394
95.446646,6143.709319,5033.400406,-10342.289223
95.446955,370.102971,6069.688724,-842.705048
95.447264,-6439.791695,6883.915261,11951.089769
95.447574,-592.164754,7179.997637,3524.039291
95.447883,-1850.514855,11695.253884,-2221.676944
95.448192,-2294.638420,15692.365970,-1991.848295
95.448502,1332.370696,15914.427753,-9882.631924
95.448811,5033.400406,11325.150913,-17160.539155
95.449120,-740.205942,11029.068536,-4060.306139
95.449429,-7550.100608,10658.965565,8427.050478
95.449739,1628.453072,9104.533087,3294.210641
95.450048,3627.009116,8660.409521,229.828649
95.450357,-3108.864956,7994.224174,3140.991542
95.450667,-1332.370696,9104.533087,2987.772442
95.450976,7550.100608,4811.338623,-10035.851024
95.451285,5255.462188,4515.256246,-8656.879127
95.451595,-6661.853478,7698.141797,9422.974625
95.451904,-3923.091493,6735.874072,9499.584175
95.452213,2368.659014,10066.800811,-3140.991542
95.452523,-2146.597232,13989.892304,-3830.477490
95.452832,-2812.782580,15766.386565,-6511.811733
95.453141,1702.473667,12361.439231,-13789.718964
95.453451,4737.318029,9918.759623,-11338.213370
95.453760,-2516.700203,12879.583391,1455.581446
95.454069,-2812.782580,7402.059420,7048.078582
95.454379,1332.370696,10510.924376,3064.381992
95.454688,-2368.659014,6143.709319,4596.572988
95.454997,-1702.473667,7994.224174,4443.353888
95.455307,4071.132681,5625.565159,-6588.421283
95.455616,5403.503377,3478.967927,-11721.261119
95.455925,-3923.091493,10288.862594,459.657299
95.456234,-3256.906145,10214.842000,4979.620737
95.456544,1332.370696,10732.986159,-3140.991542
95.456853,-4071.132681,13323.706956,-2911.162892
95.457162,-3923.091493,14137.933492,-4366.744339
95.457472,3034.844362,12361.439231,-11797.870669
95.457781,6439.791695,10140.821405,-15015.471761
95.458090,-518.144159,9030.512492,2068.457845
95.458400,-3923.091493,8364.327145,11491.432470
95.458709,4885.359217,5625.565159,2298.286494
95.459018,2072.576638,6217.729913,0.000000
95.459328,-5625.565159,7254.018232,6971.469032
95.459637,-1110.308913,6957.935855,-2221.676944
95.459946,8660.409521,6217.729913,-16241.224558
95.460256,1406.391290,8660.409521,-7124.688131
95.460565,-7550.100608,8956.491898,7584.345430
95.460874,-1332.370696,9696.697840,3830.477490
95.461184,-148.041188,11177.109724,-2528.115143
95.461493,-4663.297435,14285.974681,3830.477490
95.461802,-666.185348,15248.242405,-5975.544884
95.462111,4737.318029,11251.130318,-14479.204912
95.462421,4441.235652,11547.212695,-7737.564530
95.462730,-2812.782580,10362.883188,7507.735880
95.463039,222.061783,7031.956449,8427.050478
95.463349,3256.906145,4071.132681,2834.553343
95.463658,-4959.379811,5847.626942,5822.325785
95.463967,-3404.947333,7920.203579,2145.067394
95.464277,6883.915261,5773.606348,-16700.881856
95.464586,5329.482782,8956.491898,-14785.643111
95.464895,-5625.565159,9992.780217,5362.668486
95.465205,-3997.112087,9400.615463,9193.145976
95.465514,1406.391290,9474.636058,1532.190996
95.465823,-2368.659014,14952.160028,2374.896044
95.466133,-3997.112087,15544.324782,-1072.533697
95.466442,6809.894666,14656.077652,-13406.671215
95.466751,5699.585753,10881.027347,-14096.157163
95.467061,-3182.885551,10584.944971,1915.238745
95.467370,-2516.700203,6809.894666,11797.870669
95.467679,3478.967927,5551.544565,3830.477490
95.467989,-3552.988522,7698.141797,1302.362347
95.468298,-6143.709319,8216.285956,5515.887586
95.468607,5329.482782,8734.430116,-14325.985813
95.468916,7920.203579,6291.750507,-19228.997000
95.469226,-518.144159,8660.409521,-3524.039291
95.469535,-6143.709319,6365.771101,11414.822920
95.469844,-1406.391290,7550.100608,4826.401637
95.470154,1036.288319,9696.697840,2221.676944
95.470463,-4145.153275,13175.665768,3447.429741
95.470772,1998.556043,15174.221811,-7354.516781
95.471082,6365.771101,9918.759623,-16547.662757
95.471391,-0.000000,10881.027347,-7737.564530
95.471700,-3330.926739,9030.512492,7201.297681
95.472010,592.164754,9178.553681,3140.991542
95.472319,962.267725,8142.265362,612.876398
95.472628,-5477.523971,11103.089130,5056.230287
95.472938,592.164754,7772.162391,-4366.744339
95.473247,8068.244768,4145.153275,-16930.710506
95.473556,1480.411884,8586.388927,-7048.078582
95.473866,-6291.750507,6661.853478,10955.165621
95.474175,888.247130,9030.512492,7584.345430
95.474484,518.144159,9548.656652,-1762.019645
95.474794,-3775.050304,14508.036463,1762.019645
95.475103,-1332.370696,15100.201217,-3983.696590
95.475412,6439.791695,9548.656652,-18462.901502
95.475721,4663.297435,11769.274478,-11031.775171
95.476031,-6513.812290,9326.594869,10189.070123
95.476340,-2072.576638,7254.018232,9116.536426
95.476649,4441.235652,7254.018232,-842.705048
95.476959,-4293.194464,9474.636058,2374.896044
95.477268,-1110.308913,10658.965565,1225.752797
95.477577,7846.182985,8956.491898,-15704.957709
95.477887,3849.070898,5477.523971,-13330.061665
95.478196,-4441.235652,7846.182985,9116.536426
95.478505,370.102971,7846.182985,12410.747068
95.478815,592.164754,7994.224174,306.438199
95.479124,-2960.823768,14508.036463,2757.943793
95.479433,-3701.029710,13693.809927,383.047749
95.479743,8808.450710,10807.006753,-17773.415554
95.480052,5995.668130,13767.830521,-14402.595362
95.480361,-4293.194464,10732.986159,5362.668486
95.480671,-3404.947333,7105.977043,10648.727422
95.480980,3701.029710,8882.471304,689.485948
95.481289,-2368.659014,9770.718434,1685.410096
95.481598,-4663.297435,11399.171507,3600.648841
95.481908,4811.338623,6957.935855,-10572.117872
95.482217,7179.997637,5625.565159,-18156.463303
95.482526,-1702.473667,8068.244768,0.000000
95.482836,-3997.112087,7698.141797,10495.508323
95.483145,-370.102971,6661.853478,6052.154434
95.483454,-1702.473667,9770.718434,1915.238745
95.483764,-4737.318029,12287.418637,1455.581446
95.484073,2590.720797,14211.954086,-10955.165621
95.484382,6513.812290,11251.130318,-18386.291952
95.484692,-666.185348,9992.780217,-5822.325785
95.485001,-3923.091493,8956.491898,8656.879127
95.485310,592.164754,9030.512492,3907.087040
95.485620,444.123565,7846.182985,2298.286494
95.485929,-5329.482782,11325.150913,6741.640382
95.486238,1628.453072,10288.862594,-2451.505594
95.486548,9918.759623,5255.462188,-16164.615008
95.486857,592.164754,6513.812290,-4826.401637
95.487166,-7031.956449,7624.121203,12947.013916
95.487476,1332.370696,7920.203579,5362.668486
95.487785,1702.473667,9696.697840,-3447.429741
95.488094,-4589.276840,15248.242405,2221.676944
95.488403,-888.247130,14285.974681,-2145.067394
95.488713,4737.318029,10436.903782,-16241.224558
95.489022,3034.844362,7994.224174,-9959.241474
95.489331,-5107.421000,7254.018232,7890.783629
95.489641,-3404.947333,8438.347739,8197.221829
95.489950,4441.235652,11547.212695,689.485948
95.490259,-2294.638420,10881.027347,842.705048
95.490569,-962.267725,11991.336260,1072.533697
95.490878,5699.585753,5477.523971,-10725.336972
95.491187,4737.318029,4737.318029,-9959.241474
95.491497,-5625.565159,10658.965565,6971.469032
95.491806,-4071.132681,6217.729913,9806.022374
95.492115,1480.411884,8364.327145,0.000000
95.492425,-2664.741391,12139.377449,-1685.410096
95.492734,-2516.700203,14137.933492,-842.705048
95.493043,3034.844362,14137.933492,-12257.527968
95.493353,5181.441594,8660.409521,-14632.424012
95.493662,-2516.700203,10658.965565,2451.505594
95.493971,-4663.297435,9844.739029,10342.289223
95.494280,3478.967927,8882.471304,1838.629195
95.494590,-296.082377,10584.944971,1225.752797
95.494899,-3330.926739,10066.800811,3370.820191
95.495208,5921.647536,7846.182985,-8733.488677
95.495518,7846.182985,4441.235652,-14938.862211
95.495827,-4367.215058,9622.677246,1072.533697
95.496136,-5107.421000,6661.853478,11874.480219
95.496446,1036.288319,7328.038826,2374.896044
95.496755,518.144159,12287.418637,-2604.724693
95.497064,-6513.812290,11547.212695,5592.497135
95.497374,3923.091493,14508.036463,-6435.202183
95.497683,7920.203579,10510.924376,-17160.539155
95.497992,2220.617826,9326.594869,-5056.230287
95.498302,-6661.853478,8660.409521,11951.089769
95.498611,-1776.494261,7698.141797,5745.716235
95.498920,4515.256246,10288.862594,-689.485948
95.499230,-4737.318029,10288.862594,3294.210641
95.499539,444.123565,9474.636058,-306.438199
95.499848,7846.182985,4885.359217,-12947.013916
95.500158,962.267725,5255.462188,-8427.050478
95.500467,-6735.874072,9474.636058,7124.688131
95.500776,-2368.659014,9474.636058,5669.106685
95.501085,2368.659014,9992.780217,-3830.477490
95.501395,-5921.647536,14952.160028,612.876398
95.501704,-1110.308913,13397.727550,-1072.533697
95.502013,5847.626942,9104.533087,-12410.747068
95.502323,3478.967927,7846.182985,-8886.707777
95.502632,-3923.091493,8068.244768,9959.241474
95.502941,-1702.473667,9696.697840,10418.898773
95.503251,3404.947333,7179.997637,-3140.991542
95.503560,-3034.844362,10584.944971,1225.752797
95.503869,-2812.782580,10436.903782,2068.457845
95.504179,3478.967927,8216.285956,-11338.213370
95.504458,6143.709319,8068.244768,-13100.233016
95.504767,-2960.823768,8512.368333,3140.991542
95.505077,-5477.523971,9474.636058,8197.221829
95.505386,1776.494261,10288.862594,689.485948
95.505695,-1702.473667,12213.398043,-842.705048
95.506005,-2812.782580,14063.912898,-1378.971896
95.506314,2664.741391,10436.903782,-7967.393179
95.506624,5551.544565,6587.832884,-10418.898773
95.506933,-1258.350101,7846.182985,1149.143247
95.507242,-4219.173869,9770.718434,10342.289223
95.507552,1480.411884,7031.956449,4596.572988
95.507861,-444.123565,7846.182985,-766.095498
95.508171,-3034.844362,8956.491898,2068.457845
95.508480,-148.041188,9400.615463,-5362.668486
95.508789,5921.647536,6587.832884,-13789.718964
95.509099,222.061783,8882.471304,-5822.325785
95.509408,-5625.565159,11769.274478,7048.078582
95.509718,222.061783,10140.821405,4596.572988
95.510027,-74.020594,10214.842000,-383.047749
95.510336,-2960.823768,12879.583391,3907.087040
95.510646,888.247130,12139.377449,-2757.943793
95.510955,7698.141797,6809.894666,-13866.328514
95.511264,888.247130,7550.100608,-4826.401637
95.511574,-5033.400406,9178.553681,9806.022374
95.511883,1776.494261,9104.533087,2528.115143
95.512193,2072.576638,10362.883188,-2911.162892
95.512502,-4515.256246,9696.697840,4826.401637
95.512811,-1184.329507,9696.697840,-1915.238745
95.513121,7105.977043,5773.606348,-14479.204912
95.513430,3552.988522,7920.203579,-7660.954980
95.513740,-5033.400406,9326.594869,8273.831378
95.514049,-148.041188,7846.182985,7124.688131
95.514358,-518.144159,9548.656652,459.657299
95.514668,-1850.514855,12435.459826,2298.286494
95.514977,-1850.514855,12953.603985,-1838.629195
95.515287,4367.215058,11325.150913,-13866.328514
95.515596,3775.050304,8364.327145,-14096.157163
95.515905,-2072.576638,9400.615463,2681.334243
95.516215,-2812.782580,9918.759623,9116.536426
95.516524,1184.329507,8068.244768,3064.381992
95.516834,-740.205942,7772.162391,1685.410096
95.517143,-2664.741391,8512.368333,2681.334243
95.517452,2072.576638,7476.080014,-7507.735880
95.517762,7179.997637,7179.997637,-13330.061665
95.518071,-0.000000,9622.677246,-1532.190996
95.518380,-3552.988522,12435.459826,8963.317327
95.518690,592.164754,8142.265362,3217.601092
95.518999,-1628.453072,9178.553681,1302.362347
95.519309,-3627.009116,13693.809927,3524.039291
95.519618,4589.276840,12583.501014,-8733.488677
95.519927,5995.668130,5921.647536,-19612.044749
95.520237,-666.185348,9400.615463,-2757.943793
95.520546,-4515.256246,8734.430116,10572.117872
95.520856,2960.823768,9030.512492,3677.258390
95.521165,740.205942,8512.368333,153.219100
95.521474,-4663.297435,8882.471304,4060.306139
95.521784,1036.288319,9178.553681,-1838.629195
95.522093,7105.977043,4885.359217,-13253.452115
95.522403,1628.453072,8142.265362,-4826.401637
95.522712,-4293.194464,9844.739029,8503.660028
95.523021,-222.061783,9326.594869,3524.039291
95.523331,-740.205942,11991.336260,-153.219100
95.523640,-7402.059420,14508.036463,0.000000
95.523950,1776.494261,14211.954086,-8656.879127
95.524259,6513.812290,6439.791695,-13253.452115
95.524568,1480.411884,8734.430116,-7890.783629
95.524878,-5403.503377,8290.306550,9806.022374
95.525187,222.061783,6735.874072,8427.050478
95.525496,3552.988522,6439.791695,2834.553343
95.525806,-4293.194464,8882.471304,5056.230287
95.526115,-0.000000,7105.977043,-229.828649
95.526425,4219.173869,6439.791695,-14096.157163
95.526734,4589.276840,8586.388927,-12717.185267
95.527043,-6069.688724,9326.594869,4060.306139
95.527353,-2886.803174,11177.109724,6128.763984
95.527662,-0.000000,10510.924376,1455.581446
95.527972,-4811.338623,12731.542202,1608.800546
95.528281,-1776.494261,16136.489536,-2068.457845
95.528590,4367.215058,12805.562797,-15168.690860
95.528900,7254.018232,9178.553681,-14785.643111
95.529209,-2664.741391,9104.533087,5362.668486
95.529519,-4293.194464,8956.491898,12717.185267
95.529828,4219.173869,8142.265362,2298.286494
95.530137,592.164754,7328.038826,1302.362347
95.530447,-3256.906145,7105.977043,3524.039291
95.530756,1702.473667,4885.359217,-6588.421283
95.531066,6291.750507,5995.668130,-14862.252661
95.531375,-1184.329507,8364.327145,-5439.278036
95.531684,-6365.771101,9622.677246,9806.022374
95.531994,-1628.453072,9696.697840,5515.887586
95.532303,-74.020594,11843.295072,-1149.143247
95.532612,-3182.885551,14804.118840,0.000000
95.532922,2812.782580,13693.809927,-10112.460574
95.533231,5033.400406,7254.018232,-16317.834107
95.533541,-0.000000,10362.883188,-2528.115143
95.533850,-4737.318029,10955.047942,11568.042020
95.534159,-888.247130,7772.162391,5439.278036
95.534469,740.205942,8068.244768,1915.238745
95.534778,-4737.318029,7846.182985,3447.429741
95.535088,1924.535449,6661.853478,-5822.325785
95.535397,5921.647536,3849.070898,-14862.252661
95.535706,814.226536,8956.491898,-3447.429741
95.536016,-5625.565159,8808.450710,9039.926876
95.536325,148.041188,9474.636058,4903.011187
95.536635,-222.061783,10140.821405,-1302.362347
95.536944,-4959.379811,15618.345376,76.609550
95.537253,1554.432478,13397.727550,-8580.269578
95.537563,7031.956449,9844.739029,-18079.853753
95.537872,1480.411884,10955.047942,-6435.202183
95.538182,-5107.421000,10955.047942,11951.089769
95.538491,-666.185348,11029.068536,8656.879127
95.538800,2368.659014,6957.935855,-383.047749
95.539110,-1554.432478,7179.997637,1455.581446
95.539419,-740.205942,7402.059420,-1608.800546
95.539728,5181.441594,5551.544565,-12717.185267
95.540038,3997.112087,6661.853478,-8886.707777
95.540347,-3775.050304,9992.780217,4979.620737
95.540657,-4589.276840,11917.315666,8350.440928
95.540966,-74.020594,11325.150913,1455.581446
95.541275,-1406.391290,11621.233289,-2911.162892
95.541585,-1702.473667,12805.562797,-5286.058936
95.541894,6809.894666,11547.212695,-13023.623466
95.542204,2664.741391,5773.606348,-9806.022374
95.542513,-2516.700203,9252.574275,7660.954980
95.542822,-666.185348,10362.883188,12257.527968
95.543132,370.102971,7846.182985,4290.134789
95.543441,1480.411884,5995.668130,-153.219100
95.543751,-3627.009116,7031.956449,-2145.067394
95.544060,3404.947333,7179.997637,-9193.145976
95.544369,4737.318029,7105.977043,-10572.117872
95.544679,-3034.844362,10732.986159,459.657299
95.544988,-3552.988522,9178.553681,8656.879127
95.545297,-962.267725,9622.677246,3677.258390
95.545607,-4071.132681,11473.192101,-1378.971896
95.545916,-3034.844362,13397.727550,-1532.190996
95.546226,5699.585753,12435.459826,-12640.575717
95.546535,5477.523971,7994.224174,-15781.567259
95.546844,-2812.782580,11103.089130,3064.381992
95.547154,-5255.462188,10584.944971,12947.013916
95.547463,2738.761985,8142.265362,2145.067394
95.547773,3182.885551,6217.729913,-2298.286494
95.548082,-6735.874072,5329.482782,4136.915689
95.548391,-2294.638420,7179.997637,-4060.306139
95.548701,6957.935855,6439.791695,-16164.615008
95.549010,1184.329507,9548.656652,-7354.516781
95.549320,-5847.626942,12139.377449,8197.221829
95.549629,-1998.556043,12213.398043,5362.668486
95.549938,-2146.597232,13767.830521,-1532.190996
95.550248,-2072.576638,13545.768739,-2068.457845
95.550557,1776.494261,14211.954086,-6281.983084
95.550867,4071.132681,7105.977043,-11721.261119
95.551176,1628.453072,10732.986159,-3907.087040
95.551485,-3108.864956,12213.398043,5822.325785
95.551795,740.205942,9548.656652,3217.601092
95.552104,2960.823768,6069.688724,306.438199
95.552413,-1554.432478,7254.018232,2068.457845
95.552723,1554.432478,4663.297435,-1915.238745
95.553032,3997.112087,5477.523971,-7814.174080
95.553342,2368.659014,7179.997637,-3370.820191
95.553651,-2664.741391,11251.130318,6052.154434
95.553960,-296.082377,11547.212695,4443.353888
95.554270,-1110.308913,11695.253884,-1302.362347
95.554579,-962.267725,12509.480420,-842.705048
95.554889,-2072.576638,14804.118840,-2604.724693
95.555198,2812.782580,10955.047942,-11108.384721
95.555507,1850.514855,9474.636058,-4596.572988
95.555817,-5033.400406,12435.459826,3677.258390
95.556126,-2812.782580,10955.047942,7201.297681
95.556436,2368.659014,8216.285956,-1608.800546
95.556745,3182.885551,4589.276840,-3677.258390
95.557054,-4737.318029,3627.009116,-76.609550
95.557364,-1258.350101,6069.688724,-2681.334243
95.557673,4589.276840,6069.688724,-8427.050478
95.557983,1110.308913,7328.038826,-459.657299
95.558292,-4071.132681,11695.253884,7737.564530
95.558601,592.164754,8586.388927,3677.258390
95.558911,148.041188,7994.224174,-3217.601092
95.559220,-2220.617826,12139.377449,-3140.991542
95.559529,962.267725,12879.583391,-8656.879127
95.559839,296.082377,11547.212695,-16394.443657
95.560148,-666.185348,15544.324782,-1762.019645
95.560458,-2664.741391,13323.706956,3524.039291
95.560767,1702.473667,9030.512492,-1532.190996
95.561076,1850.514855,8660.409521,-1608.800546
95.561386,-2368.659014,3997.112087,3677.258390
95.561695,-0.000000,6513.812290,689.485948
95.562005,4219.173869,4885.359217,-4903.011187
95.562314,2294.638420,8068.244768,-2451.505594
95.562623,-2738.761985,11547.212695,5975.544884
95.562933,-2146.597232,9178.553681,4903.011187
95.563242,1628.453072,8068.244768,-2987.772442
95.563552,-1332.370696,10881.027347,-3907.087040
95.563861,-1184.329507,12361.439231,-3600.648841
95.564170,1924.535449,12435.459826,-8580.269578
95.564480,-370.102971,12657.521608,-5439.278036
95.564789,-222.061783,12509.480420,2451.505594
95.565099,-74.020594,9104.533087,2834.553343
95.565408,2516.700203,7105.977043,842.705048
95.565717,-1702.473667,5329.482782,3907.087040
95.566027,-2294.638420,5773.606348,3064.381992
95.566336,2368.659014,6513.812290,-4596.572988
95.566645,3775.050304,7105.977043,-6818.249932
95.566955,-592.164754,9844.739029,5898.935335
95.567264,-3108.864956,8364.327145,4060.306139
95.567574,-1554.432478,8438.347739,-995.924147
95.567883,-1850.514855,10436.903782,-4519.963438
95.568192,-814.226536,11991.336260,-5669.106685
95.568502,814.226536,13175.665768,-11797.870669
95.568811,1332.370696,11843.295072,-7201.297681
95.569121,-222.061783,12139.377449,2834.553343
95.569430,-2368.659014,10140.821405,6052.154434
95.569739,4293.194464,4737.318029,1532.190996
95.570049,-518.144159,4515.256246,1072.533697
95.570358,-3997.112087,7254.018232,1378.971896
95.570668,2368.659014,7846.182985,-4826.401637
95.570977,6069.688724,7994.224174,-9729.412825
95.571286,-1480.411884,9178.553681,-3677.258390
95.571596,-5625.565159,11547.212695,4979.620737
95.571905,-1110.308913,8142.265362,1762.019645
95.572215,-444.123565,9104.533087,-4290.134789
95.572524,-2368.659014,11547.212695,-3907.087040
95.572833,1036.288319,12657.521608,-5898.935335
95.573143,2368.659014,12879.583391,-8580.269578
95.573452,2590.720797,11325.150913,-2757.943793
95.573761,-1702.473667,10732.986159,5822.325785
95.574071,-148.041188,6661.853478,3447.429741
95.574380,3552.988522,4589.276840,536.266849
95.574690,-2516.700203,6735.874072,2451.505594
95.574999,-1332.370696,7476.080014,-383.047749
95.575308,4663.297435,6809.894666,-8733.488677
95.575618,4071.132681,10510.924376,-6205.373534
95.575927,-4367.215058,10658.965565,3830.477490
95.576237,-1998.556043,7994.224174,6818.249932
95.576546,2738.761985,9474.636058,-1455.581446
95.576855,-3478.967927,10658.965565,-1838.629195
95.577165,-4367.215058,12139.377449,-1225.752797
95.577474,2368.659014,13471.748144,-7814.174080
95.577784,4293.194464,13323.706956,-10189.070123
95.578093,-1110.308913,13249.686362,1378.971896
95.578402,1776.494261,9622.677246,5286.058936
95.578712,2072.576638,6735.874072,0.000000
95.579021,-222.061783,4145.153275,-459.657299
95.579330,-4737.318029,6291.750507,1149.143247
95.579640,1554.432478,5847.626942,-5745.716235
95.579949,4145.153275,7920.203579,-9193.145976
95.580259,-0.000000,10881.027347,-1149.143247
95.580568,-3701.029710,7105.977043,8503.660028
95.580877,-148.041188,7698.141797,4213.525239
95.581187,-814.226536,9326.594869,-1225.752797
95.581496,-1406.391290,12509.480420,-2757.943793
95.581806,1480.411884,14656.077652,-6511.811733
95.582115,2664.741391,14285.974681,-10265.679673
95.582424,1036.288319,13545.768739,-2757.943793
95.582734,-0.000000,8216.285956,3370.820191
95.583043,814.226536,8438.347739,1149.143247
95.583353,-1628.453072,7031.956449,1225.752797
95.583662,-4145.153275,9622.677246,2451.505594
95.583971,888.247130,8660.409521,-6128.763984
95.584281,6735.874072,9400.615463,-13559.890315
95.584590,740.205942,8364.327145,-2834.553343
95.584900,-5847.626942,8512.368333,9422.974625
95.585209,1554.432478,6809.894666,6588.421283
95.585518,4515.256246,4663.297435,0.000000
95.585828,-3330.926739,11917.315666,-766.095498
95.586137,-2368.659014,13175.665768,-1455.581446
95.586446,4219.173869,10955.047942,-10955.165621
95.586756,1628.453072,11991.336260,-8580.269578
95.587065,-1776.494261,12065.356855,3830.477490
95.587375,-1554.432478,7402.059420,5975.544884
95.587684,370.102971,5773.606348,-536.266849
95.587993,-1406.391290,7105.977043,842.705048
95.588303,-2442.679609,10214.842000,-995.924147
95.588612,4293.194464,8882.471304,-8350.440928
95.588922,2590.720797,7476.080014,-6741.640382
95.589231,-1924.535449,7846.182985,5209.449386
95.589540,-2738.761985,5699.585753,7354.516781
95.589850,1776.494261,8364.327145,-153.219100
95.590159,-1332.370696,9844.739029,0.000000
95.590469,-4441.235652,13545.768739,-229.828649
95.590778,3108.864956,12731.542202,-9346.365076
95.591087,4589.276840,11991.336260,-12104.308868
95.591397,-1110.308913,11251.130318,229.828649
95.591706,-2590.720797,9104.533087,7890.783629
95.592016,2590.720797,7254.018232,1915.238745
95.592325,-740.205942,7105.977043,-1302.362347
95.592634,-2220.617826,9400.615463,919.314598
95.592944,1702.473667,8068.244768,-3524.039291
95.593253,5477.523971,10214.842000,-9499.584175
95.593562,1184.329507,9548.656652,-2145.067394
95.593872,-4737.318029,7846.182985,7201.297681
95.594181,2442.679609,8734.430116,995.924147
95.594491,-1332.370696,8290.306550,-2987.772442
95.594800,-2960.823768,11843.295072,-1991.848295
95.595109,1184.329507,13323.706956,-4290.134789
95.595419,4293.194464,12435.459826,-10189.070123
95.595728,666.185348,9252.574275,-3524.039291
95.596038,-2812.782580,11843.295072,5362.668486
95.596347,222.061783,7031.956449,2298.286494
95.596656,2368.659014,7698.141797,-1302.362347
95.596966,-3256.906145,9696.697840,4979.620737
95.597275,888.247130,11399.171507,-1455.581446
95.597585,5847.626942,7846.182985,-9729.412825
95.597894,1480.411884,6587.832884,-2911.162892
95.598203,-3404.947333,7328.038826,9116.536426
95.598513,-888.247130,5625.565159,4596.572988
95.598822,1332.370696,7698.141797,-3294.210641
95.599132,-3701.029710,12139.377449,-1149.143247
95.599441,-1110.308913,12879.583391,-2681.334243
95.599750,3108.864956,11843.295072,-7814.174080
95.600060,3034.844362,13545.768739,-5975.544884
95.600369,-2442.679609,10955.047942,5132.839837
95.600678,-2590.720797,9770.718434,4443.353888
95.600988,1776.494261,7846.182985,0.000000
95.601297,-2368.659014,10362.883188,2834.553343
95.601607,-0.000000,10066.800811,-3140.991542
95.601916,1776.494261,6883.915261,-7048.078582
95.602225,2664.741391,7772.162391,-3983.696590
95.602535,-814.226536,7105.977043,4136.915689
95.602844,-1776.494261,6735.874072,7354.516781
95.603154,-814.226536,7624.121203,1532.190996
95.603463,-2442.679609,8364.327145,-1685.410096
95.603772,-1776.494261,12509.480420,-5745.716235
95.604082,3108.864956,13249.686362,-9806.022374
95.604391,2294.638420,12583.501014,-9422.974625
95.604701,-1554.432478,11991.336260,0.000000
95.605010,-148.041188,10140.821405,4596.572988
95.605319,1776.494261,7772.162391,612.876398
95.605629,-2664.741391,9474.636058,3294.210641
95.605938,-1258.350101,9474.636058,3524.039291
95.606248,666.185348,8808.450710,-4903.011187
95.606557,4885.359217,7994.224174,-9806.022374
95.606867,148.041188,8364.327145,229.828649
95.607176,-3034.844362,10436.903782,3600.648841
95.607486,740.205942,9178.553681,-459.657299
95.607795,444.123565,9400.615463,-4903.011187
95.608105,-2368.659014,11177.109724,-1685.410096
95.608414,-1332.370696,9992.780217,-6588.421283
95.608724,4959.379811,10510.924376,-6665.030833
95.609033,2886.803174,8290.306550,-2298.286494
95.609343,-1628.453072,10436.903782,6894.859482
95.609652,-814.226536,7179.997637,4826.401637
95.609962,1850.514855,5995.668130,-1915.238745
95.610271,-666.185348,9400.615463,-1532.190996
95.610581,-1554.432478,9622.677246,-2068.457845
95.610890,2072.576638,9474.636058,-5822.325785
95.611200,-0.000000,9622.677246,-1608.800546
95.611509,-2812.782580,9400.615463,2451.505594
95.611819,-0.000000,7698.141797,-306.438199
95.612128,1406.391290,7994.224174,-4443.353888
95.612438,-4367.215058,11029.068536,1302.362347
95.612747,-3256.906145,12805.562797,2451.505594
95.613057,5995.668130,9474.636058,-8580.269578
95.613366,3478.967927,10732.986159,-5286.058936
95.613676,-3034.844362,9178.553681,7124.688131
95.613985,-296.082377,8364.327145,5745.716235
95.614295,3256.906145,6661.853478,-2451.505594
95.614604,-148.041188,8586.388927,-383.047749
95.614914,-3034.844362,10955.047942,0.000000
95.615223,3330.926739,11029.068536,-7890.783629
95.615533,6143.709319,9474.636058,-8120.612279
95.615842,-3997.112087,10732.986159,1302.362347
95.616152,-1258.350101,10510.924376,3677.258390
95.616461,3627.009116,8882.471304,-3217.601092
95.616771,-1258.350101,10066.800811,-689.485948
95.617080,-5699.585753,12657.521608,4673.182538
95.617390,888.247130,10214.842000,-3677.258390
95.617699,5995.668130,10140.821405,-8350.440928
95.618009,-148.041188,10066.800811,536.266849
95.618318,-2886.803174,8956.491898,2145.067394
95.618628,1628.453072,8068.244768,-1762.019645
95.618937,-296.082377,7994.224174,-383.047749
95.619247,-2664.741391,11473.192101,2757.943793
95.619556,222.061783,9178.553681,-3524.039291
95.619866,2812.782580,6587.832884,-7890.783629
95.620175,-814.226536,7476.080014,-2451.505594
95.620485,-592.164754,8808.450710,3064.381992
95.620794,1850.514855,9030.512492,306.438199
95.621104,-222.061783,9474.636058,689.485948
95.621414,-4589.276840,12213.398043,4749.792088
95.621723,814.226536,11843.295072,-1608.800546
95.622033,4145.153275,11029.068536,-10265.679673
95.622342,1036.288319,10214.842000,-4136.915689
95.622652,-2442.679609,9252.574275,3294.210641
95.622961,222.061783,8290.306550,536.266849
95.623271,2442.679609,8068.244768,-3983.696590
95.623580,-4145.153275,9178.553681,459.657299
95.623890,-1480.411884,10732.986159,76.609550
95.624199,4145.153275,7254.018232,-13100.233016
95.624509,2442.679609,7920.203579,-5515.887586
95.624818,-2368.659014,9030.512492,6894.859482
95.625128,222.061783,7105.977043,4443.353888
95.625437,3552.988522,8068.244768,-1532.190996
95.625747,-4367.215058,10288.862594,2528.115143
95.626056,-2960.823768,12435.459826,689.485948
95.626366,3775.050304,11029.068536,-12334.137518
95.626675,3478.967927,12657.521608,-10955.165621
95.626985,-2960.823768,12879.583391,2221.676944
95.627294,-666.185348,9400.615463,3907.087040
95.627604,3256.906145,7772.162391,-1991.848295
95.627913,-2368.659014,7846.182985,1685.410096
95.628223,-2886.803174,9400.615463,4596.572988
95.628532,3330.926739,8956.491898,-5515.887586
95.628842,4441.235652,8882.471304,-11184.994271
95.629151,-370.102971,11325.150913,153.219100
95.629461,-1110.308913,10807.006753,4290.134789
95.629770,-0.000000,9844.739029,153.219100
95.630080,-1554.432478,9326.594869,3217.601092
95.630389,-4885.359217,9622.677246,4519.963438
95.630699,2590.720797,10362.883188,-9422.974625
95.631008,4959.379811,9400.615463,-13483.280765
95.631318,-1554.432478,8882.471304,1838.629195
95.631627,-3330.926739,10584.944971,6435.202183
95.631937,3478.967927,7328.038826,536.266849
95.632246,-1332.370696,5107.421000,1838.629195
95.632556,-5403.503377,9474.636058,6205.373534
95.632865,518.144159,9844.739029,-4290.134789
95.633175,4663.297435,9400.615463,-11797.870669
95.633484,1258.350101,11177.109724,-4366.744339
95.633794,-1480.411884,10955.047942,4443.353888
95.634103,814.226536,5033.400406,612.876398
95.634413,-2072.576638,9030.512492,842.705048
95.634722,-4663.297435,12657.521608,2911.162892
95.635032,-0.000000,12065.356855,-5132.839837
95.635341,3997.112087,9030.512492,-13253.452115
95.635651,1554.432478,7179.997637,-6205.373534
95.635960,-2664.741391,8290.306550,4903.011187
95.636270,888.247130,8438.347739,2834.553343
95.636580,1924.535449,4219.173869,842.705048
95.636889,-3404.947333,8882.471304,5745.716235
95.637199,-962.267725,12065.356855,0.000000
95.637508,5921.647536,9844.739029,-11874.480219
95.637818,3034.844362,11177.109724,-7967.393179
95.638127,-3923.091493,10066.800811,4060.306139
95.638437,1110.308913,8290.306550,2298.286494
95.638746,-1480.411884,9770.718434,-2834.553343
95.639056,-3108.864956,12065.356855,3064.381992
95.639365,-2442.679609,14878.139434,0.000000
95.639675,5181.441594,13693.809927,-13559.890315
95.639984,4071.132681,11621.233289,-11568.042020
95.640294,-2368.659014,10658.965565,4749.792088
95.640603,-1776.494261,7846.182985,6435.202183
95.640913,2738.761985,6143.709319,229.828649
95.641222,-3404.947333,7550.100608,4596.572988
95.641532,-4515.256246,8882.471304,4519.963438
95.641841,1554.432478,7105.977043,-4749.792088
95.642151,4885.359217,6883.915261,-9652.803275
95.642460,740.205942,8586.388927,-842.705048
95.642770,-2368.659014,11251.130318,4596.572988
95.643079,-444.123565,8364.327145,2298.286494
95.643389,-3849.070898,9770.718434,-306.438199
95.643698,-3849.070898,14508.036463,-2145.067394
95.644008,666.185348,14359.995275,-14709.033562
95.644317,4737.318029,9918.759623,-15321.909960
95.644627,-0.000000,11325.150913,-536.266849
95.644936,-2812.782580,9400.615463,9806.022374
95.645246,3034.844362,4663.297435,3677.258390
95.645555,814.226536,962.267725,4826.401637
95.645865,-5033.400406,6513.812290,7124.688131
95.646174,740.205942,8438.347739,-2834.553343
95.646484,6883.915261,9030.512492,-15015.471761
95.646793,2294.638420,9918.759623,-7431.126331
95.647103,-6365.771101,9992.780217,3294.210641
95.647412,-296.082377,10436.903782,1302.362347
95.647722,-0.000000,8956.491898,-3830.477490
95.648031,-5551.544565,14137.933492,0.000000
95.648341,74.020594,13989.892304,-2451.505594
95.648650,8290.306550,10881.027347,-13636.499864
95.648960,1332.370696,10362.883188,-6128.763984
95.649269,-3256.906145,8438.347739,9806.022374
95.649579,296.082377,6217.729913,5822.325785
95.649888,1924.535449,8882.471304,-3830.477490
95.650198,-2886.803174,9400.615463,2298.286494
95.650507,-4367.215058,11399.171507,0.000000
95.650817,4145.153275,8586.388927,-12257.527968
95.651126,5329.482782,7698.141797,-7737.564530
95.651436,-3256.906145,8956.491898,3370.820191
95.651746,-2664.741391,9548.656652,4673.182538
95.652055,814.226536,8290.306550,-1378.971896
95.652365,-4589.276840,10881.027347,229.828649
95.652674,-888.247130,12657.521608,-919.314598
95.652984,5255.462188,11177.109724,-11721.261119
95.653293,2960.823768,10288.862594,-8963.317327
95.653603,-2442.679609,9178.553681,8197.221829
95.653912,-1480.411884,7624.121203,8733.488677
95.654222,1554.432478,6587.832884,-3217.601092
95.654531,-1850.514855,5625.565159,0.000000
95.654841,-5107.421000,8512.368333,3524.039291
95.655150,2368.659014,9844.739029,-7507.735880
95.655460,5477.523971,9770.718434,-14096.157163
95.655769,-3627.009116,10658.965565,-1378.971896
95.656079,-4367.215058,10288.862594,7048.078582
95.656388,3330.926739,9548.656652,-1455.581446
95.656698,-1406.391290,9548.656652,-2757.943793
95.657007,-2072.576638,11917.315666,5515.887586
95.657317,888.247130,11399.171507,-3907.087040
95.657626,6069.688724,10732.986159,-11644.651570
95.657936,1110.308913,8586.388927,-842.705048
95.658245,-3034.844362,7328.038826,7660.954980
95.658555,222.061783,5995.668130,1378.971896
95.658864,444.123565,5551.544565,-2757.943793
95.659174,-5403.503377,9326.594869,2451.505594
95.659483,-1998.556043,9844.739029,-2145.067394
95.659793,7476.080014,9622.677246,-13866.328514
95.660102,2368.659014,9474.636058,-7048.078582
95.660412,-2812.782580,9474.636058,4443.353888
95.660721,-444.123565,9992.780217,4060.306139
95.661031,-666.185348,9844.739029,306.438199
95.661340,-5773.606348,15396.283594,4213.525239
95.661650,-1110.308913,12805.562797,-2221.676944
95.661959,5995.668130,13471.748144,-14402.595362
95.662269,3701.029710,9992.780217,-8656.879127
95.662578,-6957.935855,8586.388927,9116.536426
95.662888,-1110.308913,7179.997637,6588.421283
95.663197,2886.803174,4441.235652,-2911.162892
95.663507,-1628.453072,6957.935855,1532.190996
95.663816,-4145.153275,9252.574275,5975.544884
95.664126,4515.256246,6143.709319,-4443.353888
95.664435,6217.729913,7698.141797,-10418.898773
95.664745,-3330.926739,9622.677246,2834.553343
95.665054,-1184.329507,9252.574275,7124.688131
95.665364,1924.535449,9252.574275,-1838.629195
95.665673,-2516.700203,13471.748144,689.485948
95.665983,-4811.338623,15544.324782,3370.820191
95.666292,2812.782580,13841.851115,-7660.954980
95.666602,2738.761985,10658.965565,-11338.213370
95.666912,-3182.885551,12435.459826,2374.896044
95.667221,-3404.947333,9548.656652,5286.058936
95.667531,2738.761985,7105.977043,-4136.915689
95.667840,740.205942,5329.482782,-1532.190996
95.668150,-5329.482782,6735.874072,6435.202183
95.668459,1406.391290,6069.688724,-153.219100
95.668769,5847.626942,4663.297435,-8886.707777
95.669078,888.247130,6883.915261,229.828649
95.669388,-3182.885551,7254.018232,7584.345430
95.669697,666.185348,9178.553681,1225.752797
95.670007,-296.082377,10140.821405,-3447.429741
95.670316,-3182.885551,14434.015869,-2451.505594
95.670626,-1036.288319,15174.221811,-7967.393179
95.670935,3330.926739,12805.562797,-13176.842566
95.671245,-0.000000,10807.006753,-4673.182538
95.671554,-3701.029710,11547.212695,4673.182538
95.671864,3552.988522,10436.903782,-766.095498
95.672173,4219.173869,7698.141797,-3217.601092
95.672483,-4145.153275,7105.977043,6818.249932
95.672792,-2960.823768,7476.080014,5286.058936
95.673102,7698.141797,7031.956449,-10112.460574
95.673411,4071.132681,4737.318029,-9806.022374
95.673721,-3256.906145,8512.368333,7201.297681
95.674030,-1406.391290,9252.574275,6281.983084
95.674340,3182.885551,9400.615463,-7354.516781
95.674649,-4071.132681,10436.903782,-1455.581446
95.674959,-4737.318029,13101.645173,1685.410096
95.675268,4811.338623,12065.356855,-12180.918418
95.675578,2812.782580,11917.315666,-11797.870669
95.675887,-5181.441594,10732.986159,6205.373534
95.676197,148.041188,9326.594869,6588.421283
95.676506,5329.482782,4737.318029,-3907.087040
95.676816,-2368.659014,6735.874072,4519.963438
95.677125,-5551.544565,7846.182985,9959.241474
95.677435,3923.091493,7624.121203,-6971.469032
95.677744,6957.935855,7105.977043,-13789.718964
95.678054,-3404.947333,8142.265362,2757.943793
95.678363,-3997.112087,10214.842000,7890.783629
95.678673,1258.350101,10362.883188,-5209.449386
95.678982,-1776.494261,11399.171507,-4826.401637
95.679292,-5107.421000,13101.645173,4060.306139
95.679601,2590.720797,13545.768739,-7354.516781
95.679911,5699.585753,9992.780217,-14632.424012
95.680220,-962.267725,10214.842000,2145.067394
95.680530,-1924.535449,9400.615463,9193.145976
95.680839,4145.153275,6217.729913,-1072.533697
95.681149,1480.411884,5699.585753,-229.828649
95.681459,-4515.256246,8142.265362,9882.631924
95.681768,-518.144159,9326.594869,-2374.896044
95.682078,7179.997637,7179.997637,-15858.176809
95.682387,-222.061783,9178.553681,-5669.106685
95.682697,-5773.606348,12953.603985,5898.935335
95.683006,1036.288319,10732.986159,-229.828649
95.683316,-370.102971,10066.800811,-4979.620737
95.683625,-6587.832884,12065.356855,3983.696590
95.683935,-1036.288319,13323.706956,612.876398
95.684244,6661.853478,11843.295072,-13559.890315
95.684554,2294.638420,10584.944971,-7507.735880
95.684863,-4589.276840,9326.594869,9193.145976
95.685173,666.185348,6439.791695,4826.401637
95.685482,6809.894666,4737.318029,-3140.991542
95.685792,-3997.112087,5181.441594,6894.859482
95.686101,-4811.338623,8660.409521,7201.297681
95.686411,6291.750507,6365.771101,-9576.193725
95.686720,3997.112087,5921.647536,-12870.404366
95.687030,-2516.700203,10584.944971,1302.362347
95.687339,-3478.967927,10510.924376,5209.449386
95.687649,2368.659014,10436.903782,-3294.210641
95.687958,-3108.864956,12361.439231,2221.676944
95.688268,-3701.029710,15618.345376,5669.106685
95.688577,2664.741391,14656.077652,-8120.612279
95.688887,6143.709319,10658.965565,-12793.794817
95.689196,-1184.329507,9622.677246,2757.943793
95.689506,-518.144159,9030.512492,6741.640382
95.689815,370.102971,7105.977043,-459.657299
95.690125,-2664.741391,6365.771101,3600.648841
95.690434,-5847.626942,8660.409521,6818.249932
95.690744,4589.276840,6661.853478,-8733.488677
95.691053,5033.400406,5403.503377,-16164.615008
95.691363,-2516.700203,7254.018232,-1455.581446
95.691672,-4737.318029,7476.080014,8273.831378
95.691982,2146.597232,8068.244768,-1762.019645
95.692291,-296.082377,9770.718434,-1608.800546
95.692601,-6291.750507,12583.501014,4673.182538
95.692910,740.205942,13693.809927,-4979.620737
95.693220,6957.935855,10436.903782,-15858.176809
95.693529,-148.041188,11991.336260,-4596.572988
95.693839,-4737.318029,11029.068536,6435.202183
95.694148,3330.926739,8808.450710,689.485948
95.694458,1406.391290,5403.503377,-2604.724693
95.694767,-5995.668130,7846.182985,6511.811733
95.695077,592.164754,11029.068536,995.924147
95.695386,7105.977043,7550.100608,-17696.806004
95.695696,2960.823768,6883.915261,-9729.412825
95.696005,-5921.647536,9030.512492,8580.269578
95.696315,1184.329507,8808.450710,5592.497135
95.696625,4145.153275,9030.512492,-4060.306139
95.696934,-5625.565159,14878.139434,2681.334243
95.697244,-2812.782580,13323.706956,2834.553343
95.697553,5699.585753,12213.398043,-11491.432470
95.697863,4589.276840,11103.089130,-11031.775171
95.698172,-2738.761985,10510.924376,5439.278036
95.698482,-2294.638420,8068.244768,8656.879127
95.698791,1924.535449,7254.018232,-612.876398
95.699101,-2516.700203,7254.018232,0.000000
95.699410,-4441.235652,8512.368333,1378.971896
95.699720,1480.411884,9030.512492,-7890.783629
95.700029,5033.400406,7179.997637,-12870.404366
95.700339,-2960.823768,8068.244768,2528.115143
95.700648,-2664.741391,9548.656652,11338.213370
95.700958,592.164754,8290.306550,2145.067394
95.701267,-444.123565,10288.862594,2604.724693
95.701577,-4515.256246,11695.253884,2528.115143
95.701886,3330.926739,10362.883188,-7354.516781
95.702196,6217.729913,8956.491898,-14785.643111
95.702505,-2368.659014,9326.594869,766.095498
95.702815,-3923.091493,10066.800811,9652.803275
95.703124,3627.009116,8512.368333,-306.438199
95.703434,-370.102971,8364.327145,-3677.258390
95.703743,-6365.771101,10510.924376,6205.373534
95.704053,2220.617826,9918.759623,-1915.238745
95.704362,8586.388927,8364.327145,-16547.662757
95.704672,1480.411884,10881.027347,-4903.011187
95.704981,-4811.338623,9548.656652,11031.775171
95.705291,1258.350101,8808.450710,3677.258390
95.705600,1628.453072,7772.162391,-3294.210641
95.705910,-4885.359217,14730.098246,4903.011187
95.706219,148.041188,13323.706956,-1685.410096
95.706529,6217.729913,10362.883188,-17926.634653
95.706838,3775.050304,7031.956449,-9193.145976
95.707148,-7624.121203,8734.430116,9959.241474
95.707457,1702.473667,9474.636058,4060.306139
95.707767,2294.638420,7179.997637,-3524.039291
95.708076,-4367.215058,8512.368333,4749.792088
95.708386,-592.164754,8586.388927,6511.811733
95.708695,7254.018232,5847.626942,-11644.651570
95.709005,2442.679609,7254.018232,-7431.126331
95.709315,-3849.070898,9548.656652,9346.365076
95.709624,1776.494261,8068.244768,4673.182538
95.709934,740.205942,9622.677246,-3524.039291
95.710243,-5329.482782,14804.118840,3294.210641
95.710553,-4145.153275,11991.336260,1532.190996
95.710862,4515.256246,11843.295072,-13100.233016
95.711172,2220.617826,10658.965565,-8886.707777
95.711482,-3478.967927,9696.697840,4060.306139
95.711791,-370.102971,8808.450710,3830.477490
95.712101,2812.782580,7698.141797,-3677.258390
95.712410,-2886.803174,9548.656652,2604.724693
95.712720,-1998.556043,8290.306550,6052.154434
95.713029,5551.544565,7254.018232,-7354.516781
95.713339,6217.729913,5699.585753,-9729.412825
95.713649,-2442.679609,7772.162391,3983.696590
95.713958,-4145.153275,8512.368333,7967.393179
95.714268,4515.256246,9474.636058,-3907.087040
95.714577,-2072.576638,11325.150913,-4596.572988
95.714887,-5329.482782,14211.954086,995.924147
95.715196,1924.535449,12287.418637,-8963.317327
95.715506,5329.482782,7624.121203,-13789.718964
95.715816,-1776.494261,9992.780217,306.438199
95.716125,-5551.544565,11103.089130,11568.042020
95.716435,4145.153275,9252.574275,842.705048
95.716744,1258.350101,6439.791695,-2451.505594
95.717054,-4959.379811,10807.006753,5132.839837
95.717363,2072.576638,8142.265362,-1915.238745
95.717673,5847.626942,7550.100608,-13866.328514
95.717983,-1184.329507,8734.430116,-3600.648841
95.718292,-4589.276840,9992.780217,7201.297681
95.718602,2368.659014,9696.697840,-383.047749
95.718911,1480.411884,9474.636058,-5898.935335
95.719221,-5033.400406,12139.377449,2911.162892
95.719530,-962.267725,11251.130318,0.000000
95.719840,4737.318029,10066.800811,-12947.013916
95.720150,1184.329507,9474.636058,-4213.525239
95.720459,-4293.194464,10807.006753,9346.365076
95.720769,1406.391290,8882.471304,3753.867940
95.721078,3330.926739,6439.791695,-3524.039291
95.721388,-3182.885551,9474.636058,4213.525239
95.721697,-2368.659014,9474.636058,2528.115143
95.722007,5477.523971,8068.244768,-10801.946522
95.722317,592.164754,8290.306550,-7737.564530
95.722626,-4737.318029,11177.109724,5362.668486
95.722936,-814.226536,9696.697840,3677.258390
95.723245,2146.597232,11917.315666,-4979.620737
95.723555,-1998.556043,12805.562797,-2451.505594
95.723864,-3034.844362,11769.274478,995.924147
95.724174,4737.318029,11399.171507,-8963.317327
95.724484,3404.947333,6513.812290,-9039.926876
95.724793,-4145.153275,9474.636058,6435.202183
95.725103,-444.123565,7105.977043,8120.612279
95.725412,5181.441594,8068.244768,-2451.505594
95.725722,-740.205942,7846.182985,766.095498
95.726031,-6365.771101,8586.388927,5745.716235
95.726341,3849.070898,9400.615463,-7507.735880
95.726651,6365.771101,8364.327145,-15475.129060
95.726960,-2738.761985,8216.285956,-1838.629195
95.727270,-4737.318029,10881.027347,7584.345430
95.727579,3478.967927,9548.656652,-4519.963438
95.727889,666.185348,11621.233289,-4290.134789
95.728198,-4071.132681,13323.706956,4749.792088
95.728508,1702.473667,12509.480420,-4136.915689
95.728818,6883.915261,10288.862594,-13176.842566
95.729127,-370.102971,9178.553681,689.485948
95.729437,-5329.482782,9030.512492,11414.822920
95.729746,4145.153275,7328.038826,1838.629195
95.730056,1850.514855,5699.585753,-4366.744339
95.730365,-5625.565159,8364.327145,5132.839837
95.730675,-740.205942,7920.203579,-306.438199
95.730985,5625.565159,7476.080014,-13559.890315
95.731294,-888.247130,9474.636058,-5439.278036
95.731604,-5625.565159,11621.233289,6971.469032
95.731913,3478.967927,9474.636058,0.000000
95.732223,2072.576638,10140.821405,-5439.278036
95.732532,-4515.256246,13619.789333,6511.811733
95.732842,-1702.473667,11177.109724,3677.258390
95.733151,5699.585753,9770.718434,-11797.870669
95.733461,2146.597232,7994.224174,-5975.544884
95.733771,-4737.318029,10066.800811,8810.098227
95.734080,1628.453072,7846.182985,1838.629195
95.734390,2072.576638,7254.018232,-6665.030833
95.734699,-4293.194464,8438.347739,1149.143247
95.735009,-3775.050304,9252.574275,842.705048
95.735318,4441.235652,8142.265362,-11414.822920
95.735628,3330.926739,5403.503377,-6971.469032
95.735938,-2812.782580,8882.471304,5439.278036
95.736247,148.041188,9474.636058,5515.887586
95.736557,4589.276840,9918.759623,-1532.190996
95.736866,-2812.782580,9548.656652,-536.266849
95.737176,-2368.659014,12065.356855,3600.648841
95.737485,5255.462188,12731.542202,-12334.137518
95.737795,5773.606348,10214.842000,-14709.033562
95.738105,-4811.338623,10955.047942,3064.381992
95.738414,-5551.544565,11991.336260,6741.640382
95.738724,5033.400406,8808.450710,-3907.087040
95.739033,-2072.576638,8586.388927,-1302.362347
95.739343,-6661.853478,8068.244768,6588.421283
95.739652,2516.700203,5625.565159,-1225.752797
95.739962,6217.729913,7846.182985,-13789.718964
95.740272,-1332.370696,8808.450710,-689.485948
95.740581,-2590.720797,10436.903782,9499.584175
95.740891,4737.318029,11917.315666,0.000000
95.741200,-1480.411884,12509.480420,-2757.943793
95.741510,-5329.482782,11325.150913,5209.449386
95.741819,1184.329507,9104.533087,-5056.230287
95.742129,5403.503377,8586.388927,-15551.738609
95.742439,-444.123565,9252.574275,-4290.134789
95.742748,-4663.297435,8660.409521,7507.735880
95.743058,2442.679609,8512.368333,2528.115143
95.743367,1258.350101,7179.997637,-76.609550
95.743677,-4885.359217,8734.430116,6588.421283
95.743986,-1776.494261,6957.935855,1455.581446
95.744296,5921.647536,9992.780217,-13483.280765
95.744606,2886.803174,9696.697840,-10801.946522
95.744915,-3108.864956,10436.903782,4136.915689
95.745225,740.205942,13397.727550,2528.115143
95.745534,-2220.617826,10066.800811,-3140.991542
95.745844,-2886.803174,12361.439231,4443.353888
95.746153,-2072.576638,10510.924376,1378.971896
95.746463,5477.523971,9474.636058,-13713.109414
95.746773,3478.967927,6809.894666,-9806.022374
95.747082,-3404.947333,7105.977043,5362.668486
95.747392,-444.123565,8068.244768,6281.983084
95.747701,3552.988522,8808.450710,-2298.286494
95.748011,-3552.988522,8660.409521,2528.115143
95.748320,-3182.885551,5551.544565,4596.572988
95.748630,5107.421000,9104.533087,-9193.145976
95.748940,3330.926739,8512.368333,-12104.308868
95.749249,-3034.844362,10214.842000,1685.410096
95.749559,-2590.720797,10658.965565,5592.497135
95.749868,1998.556043,11695.253884,-1149.143247
95.750178,-1776.494261,11325.150913,-842.705048
95.750487,-5625.565159,12139.377449,229.828649
95.750797,3849.070898,12805.562797,-9652.803275
95.751107,8586.388927,7920.203579,-11414.822920
95.751416,-1406.391290,6513.812290,1302.362347
95.751726,-3478.967927,8142.265362,11184.994271
95.752035,3256.906145,6513.812290,3064.381992
95.752345,-888.247130,6069.688724,-306.438199
95.752654,-3552.988522,8956.491898,8044.002729
95.752964,1110.308913,8438.347739,-4749.792088
95.753274,4811.338623,9696.697840,-15858.176809
95.753583,666.185348,10066.800811,-3983.696590
95.753893,-3997.112087,11769.274478,9499.584175
95.754202,814.226536,12287.418637,3447.429741
95.754512,-666.185348,12361.439231,-1685.410096
95.754821,-4885.359217,12361.439231,2451.505594
95.755131,-0.000000,10807.006753,-4060.306139
95.755441,7031.956449,12065.356855,-17620.196454
95.755750,-444.123565,8660.409521,-6281.983084
95.756060,-4885.359217,9474.636058,10801.946522
95.756369,1554.432478,8808.450710,5515.887586
95.756679,2368.659014,5477.523971,-306.438199
95.756988,-3256.906145,6957.935855,7201.297681
95.757298,-2516.700203,5329.482782,1455.581446
95.757608,4589.276840,4293.194464,-13636.499864
95.757917,4737.318029,7624.121203,-9269.755526
95.758227,-5255.462188,10288.862594,4903.011187
95.758536,-592.164754,12065.356855,3294.210641
95.758846,592.164754,13323.706956,-2604.724693
95.759155,-3627.009116,15544.324782,536.266849
95.759465,-2664.741391,14211.954086,-1378.971896
95.759775,7254.018232,7698.141797,-13176.842566
95.760084,4737.318029,6809.894666,-11721.261119
95.760394,-5403.503377,9400.615463,6971.469032
95.760703,-1924.535449,8216.285956,10035.851024
95.761013,2886.803174,6957.935855,689.485948
95.761322,-0.000000,9178.553681,1455.581446
95.761632,-3552.988522,6587.832884,2528.115143
95.761942,4441.235652,7105.977043,-10035.851024
95.762251,3849.070898,8290.306550,-14785.643111
95.762561,-370.102971,11103.089130,-76.609550
95.762870,-2812.782580,11695.253884,7201.297681
95.763180,2368.659014,11473.192101,-766.095498
95.763489,-2146.597232,13027.624579,0.000000
95.763799,-3182.885551,13027.624579,3140.991542
95.764108,4959.379811,10066.800811,-7660.954980
95.764418,6809.894666,8808.450710,-14019.547613
95.764728,-2368.659014,7402.059420,2911.162892
95.765037,-3404.947333,8734.430116,11261.603821
95.765347,2294.638420,6291.750507,1532.190996
95.765656,-148.041188,6069.688724,536.266849
95.765966,-6069.688724,6143.709319,5439.278036
95.766275,2368.659014,6069.688724,-4903.011187
95.766585,4737.318029,6365.771101,-12410.747068
95.766895,-5181.441594,13397.727550,-2068.457845
95.767204,-4219.173869,12065.356855,6205.373534
95.767514,222.061783,14063.912898,-153.219100
95.767823,-814.226536,12435.459826,-3600.648841
95.768133,-2738.761985,13767.830521,-229.828649
95.768442,3775.050304,9992.780217,-5362.668486
95.768752,5181.441594,8512.368333,-12640.575717
95.769062,-0.000000,8142.265362,-1378.971896
95.769371,-3849.070898,5625.565159,11261.603821
95.769681,2590.720797,5329.482782,9422.974625
95.769990,2368.659014,7031.956449,-459.657299
95.770300,-4589.276840,6587.832884,3600.648841
95.770609,-2072.576638,7698.141797,-3064.381992
95.770919,5329.482782,7105.977043,-16164.615008
95.771229,518.144159,10214.842000,-10265.679673
95.771538,-4959.379811,12435.459826,4903.011187
95.771848,-1036.288319,12805.562797,3524.039291
95.772157,1776.494261,12731.542202,-1991.848295
95.772467,-2220.617826,13471.748144,2911.162892
95.772776,-444.123565,9622.677246,459.657299
95.773086,5033.400406,11103.089130,-12027.699319
95.773396,3701.029710,8808.450710,-9193.145976
95.773705,-5329.482782,8142.265362,6128.763984
95.774015,-2368.659014,8882.471304,6971.469032
95.774324,4219.173869,7698.141797,-3217.601092
95.774634,-1628.453072,6883.915261,-1149.143247
95.774943,-3552.988522,5699.585753,4826.401637
95.775253,2220.617826,5847.626942,-4519.963438
95.775563,4367.215058,7031.956449,-11261.603821
95.775872,-1628.453072,8364.327145,1608.800546
95.776182,-4737.318029,12509.480420,8350.440928
95.776491,3997.112087,12139.377449,-383.047749
95.776801,-0.000000,14952.160028,-2451.505594
95.777110,-3404.947333,14804.118840,2298.286494
95.777420,1480.411884,11399.171507,-5362.668486
95.777730,3701.029710,8808.450710,-10265.679673
95.778039,-3775.050304,9252.574275,995.924147
95.778349,-6513.812290,8882.471304,5515.887586
95.778658,1776.494261,9178.553681,-1532.190996
95.778968,814.226536,6661.853478,-2068.457845
95.779277,-5107.421000,5847.626942,4060.306139
95.779587,592.164754,6809.894666,-2604.724693
95.779897,6809.894666,6069.688724,-11184.994271
95.780206,-296.082377,6883.915261,-842.705048
95.780516,-3552.988522,9326.594869,8886.707777
95.780825,962.267725,11177.109724,1838.629195
95.781135,1850.514855,10584.944971,-995.924147
95.781444,-3256.906145,14434.015869,1532.190996
95.781754,-814.226536,13249.686362,-4673.182538
95.782064,5107.421000,13027.624579,-14709.033562
95.782373,-1332.370696,11029.068536,-6894.859482
95.782683,-4737.318029,10658.965565,5592.497135
95.782992,2442.679609,10658.965565,1762.019645
95.783302,1924.535449,6069.688724,-2834.553343
95.783611,-4219.173869,5773.606348,5669.106685
95.783921,-2442.679609,4145.153275,8273.831378
95.784231,4441.235652,6291.750507,-9806.022374
95.784540,4959.379811,7772.162391,-8197.221829
95.784850,-1628.453072,8808.450710,4519.963438
95.785159,-2072.576638,12065.356855,4749.792088
95.785469,814.226536,14211.954086,-2374.896044
95.785778,-2960.823768,11547.212695,-383.047749
95.786088,-3997.112087,13175.665768,919.314598
95.786398,3330.926739,9918.759623,-9422.974625
95.786707,4663.297435,8956.491898,-12027.699319
95.787017,-4737.318029,10436.903782,3370.820191
95.787326,-962.267725,9622.677246,9346.365076
95.787636,3182.885551,7772.162391,-766.095498
95.787945,-1998.556043,5551.544565,2221.676944
95.788255,-4515.256246,3775.050304,7354.516781
95.788565,3627.009116,5033.400406,-5286.058936
95.788874,3478.967927,6291.750507,-12027.699319
95.789184,-1332.370696,9992.780217,76.609550
95.789493,-3330.926739,9992.780217,4903.011187
95.789803,1480.411884,13471.748144,-1072.533697
95.790112,-2886.803174,13915.871710,-1378.971896
95.790422,-3108.864956,13175.665768,1378.971896
95.790732,3330.926739,11695.253884,-7354.516781
95.791041,3552.988522,11103.089130,-7967.393179
95.791351,-1998.556043,9252.574275,-1762.019645
95.791660,-1258.350101,6883.915261,5898.935335
95.791970,2368.659014,8068.244768,1532.190996
95.792279,1036.288319,6957.935855,2451.505594
95.792589,-4737.318029,7328.038826,6741.640382
95.792899,-370.102971,7624.121203,-2681.334243
95.793208,7179.997637,6291.750507,-15092.081311
95.793518,1850.514855,9696.697840,-8120.612279
95.793827,-4293.194464,12435.459826,5132.839837
95.794137,-444.123565,11917.315666,3830.477490
95.794446,1406.391290,11991.336260,-1225.752797
95.794756,-3256.906145,14211.954086,2068.457845
95.795065,-296.082377,12731.542202,-1378.971896
95.795375,4737.318029,12435.459826,-18386.291952
95.795685,814.226536,9548.656652,-9806.022374
95.795994,-3997.112087,11843.295072,5209.449386
95.796304,1628.453072,11103.089130,3753.867940
95.796613,4515.256246,6883.915261,-383.047749
95.796923,-2664.741391,3997.112087,7737.564530
95.797232,-3256.906145,4589.276840,6741.640382
95.797542,4219.173869,5625.565159,-10342.289223
95.797852,5255.462188,4885.359217,-11338.213370
95.798161,-2294.638420,8068.244768,3600.648841
95.798471,-2294.638420,12657.521608,5898.935335
95.798780,2146.597232,11991.336260,-766.095498
95.799090,-3478.967927,14285.974681,1608.800546
95.799399,-3923.091493,13323.706956,1762.019645
95.799709,3034.844362,11991.336260,-10725.336972
95.800019,2886.803174,9252.574275,-13406.671215
95.800328,-1332.370696,9992.780217,1072.533697
95.800638,-2368.659014,11103.089130,6741.640382
95.800947,2590.720797,7698.141797,3217.601092
95.801257,-1406.391290,6957.935855,8963.317327
95.801566,-4293.194464,6069.688724,5362.668486
95.801876,4071.132681,3182.885551,-9269.755526
95.802186,3701.029710,4959.379811,-13866.328514
95.802495,-888.247130,9178.553681,1685.410096
95.802805,-1998.556043,10732.986159,5132.839837
95.803114,1554.432478,12953.603985,0.000000
95.803424,888.247130,11843.295072,153.219100
95.803733,-4219.173869,12139.377449,3524.039291
95.804043,1480.411884,12435.459826,-5669.106685
95.804353,4441.235652,10436.903782,-14096.157163
95.804662,1258.350101,9474.636058,-4903.011187
95.804972,-2738.761985,12361.439231,6818.249932
95.805281,2146.597232,11399.171507,3370.820191
95.805591,370.102971,9918.759623,1378.971896
95.805900,-4441.235652,6587.832884,5209.449386
95.806210,-370.102971,7550.100608,-3370.820191
95.806520,6957.935855,5107.421000,-15168.690860
95.806829,3182.885551,6883.915261,-8273.831378
95.807139,-3330.926739,10140.821405,6511.811733
95.807448,740.205942,10955.047942,6128.763984
95.807758,2146.597232,11325.150913,536.266849
95.808067,-3108.864956,10658.965565,3447.429741
95.808377,-740.205942,10955.047942,1685.410096
95.808686,4737.318029,9104.533087,-12180.918418
95.808996,4885.359217,8956.491898,-10189.070123
95.809305,-3701.029710,11103.089130,4596.572988
95.809615,-370.102971,12583.501014,9806.022374
95.809924,-0.000000,10362.883188,1915.238745
95.810233,-3627.009116,9030.512492,2757.943793
95.810543,-3478.967927,6735.874072,-229.828649
95.810852,4515.256246,7476.080014,-11951.089769
95.811162,4293.194464,7402.059420,-15015.471761
95.811471,-3330.926739,7031.956449,1225.752797
95.811781,-888.247130,9844.739029,7354.516781
95.812090,2220.617826,9844.739029,2374.896044
95.812400,-2516.700203,9770.718434,4979.620737
95.812709,-2738.761985,10140.821405,4903.011187
95.813019,4885.359217,9326.594869,-10572.117872
95.813328,6513.812290,7550.100608,-14938.862211
95.813638,-3701.029710,11103.089130,-1225.752797
95.813947,-5033.400406,12583.501014,7431.126331
95.814257,1850.514855,10362.883188,-153.219100
95.814566,-2664.741391,9326.594869,1532.190996
95.814875,-5329.482782,7402.059420,3753.867940
95.815185,3552.988522,5403.503377,-9269.755526
95.815494,6661.853478,2664.741391,-15551.738609
95.815804,-1406.391290,7772.162391,689.485948
95.816113,-3404.947333,12509.480420,10265.679673
95.816423,2812.782580,11991.336260,1685.410096
95.816732,2590.720797,11695.253884,1072.533697
95.817042,-4589.276840,12435.459826,4290.134789
95.817351,2442.679609,11251.130318,-6052.154434
95.817661,5847.626942,9548.656652,-16241.224558
95.817970,-1702.473667,8808.450710,-5515.887586
95.818280,-5847.626942,10807.006753,6741.640382
95.818589,1258.350101,11325.150913,1991.848295
95.818899,1258.350101,10140.821405,-1532.190996
95.819208,-3849.070898,7105.977043,4366.744339
95.819517,-0.000000,4737.318029,-1149.143247
95.819827,4737.318029,5551.544565,-13100.233016
95.820136,3034.844362,6661.853478,-4596.572988
95.820446,-3849.070898,8364.327145,9039.926876
95.820755,1480.411884,11473.192101,6511.811733
95.821065,2442.679609,9104.533087,-2451.505594
95.821374,-3997.112087,11473.192101,2451.505594
95.821684,-1258.350101,11177.109724,-3217.601092
95.821993,4589.276840,8438.347739,-15628.348159
95.822303,592.164754,10658.965565,-11184.994271
95.822612,-5921.647536,11547.212695,2604.724693
95.822922,-666.185348,12213.398043,5439.278036
95.823231,1850.514855,9770.718434,-536.266849
95.823541,-1480.411884,7994.224174,3447.429741
95.823850,-1702.473667,5773.606348,2604.724693
95.824159,5329.482782,4071.132681,-8656.879127
95.824469,3923.091493,5107.421000,-8350.440928
95.824778,-2886.803174,8808.450710,5439.278036
95.825088,-1406.391290,11695.253884,6588.421283
95.825397,814.226536,10658.965565,-3370.820191
95.825707,-814.226536,10288.862594,-612.876398
95.826016,-3923.091493,9178.553681,-842.705048
95.826326,2664.741391,10658.965565,-11797.870669
95.826635,4663.297435,10362.883188,-13559.890315
95.826945,-1776.494261,10807.006753,229.828649
95.827254,-3404.947333,12953.603985,6971.469032
95.827564,2960.823768,13175.665768,2374.896044
95.827873,592.164754,9326.594869,1302.362347
95.828183,-2442.679609,6809.894666,2298.286494
95.828492,2664.741391,6735.874072,-4903.011187
95.828801,4589.276840,6069.688724,-12487.356617
95.829111,-1554.432478,8438.347739,-2451.505594
95.829420,-4071.132681,10584.944971,6971.469032
95.829730,1628.453072,14063.912898,919.314598
95.830039,962.267725,11029.068536,-1762.019645
95.830349,-2886.803174,10584.944971,2604.724693
95.830658,962.267725,9030.512492,-5286.058936
95.830968,5477.523971,8734.430116,-14249.376263
95.831277,1480.411884,10658.965565,-4749.792088
95.831587,-4293.194464,10362.883188,8886.707777
95.831896,1850.514855,11103.089130,4979.620737
95.832206,1628.453072,10066.800811,0.000000
95.832515,-962.267725,6957.935855,4519.963438
95.832825,222.061783,6365.771101,-1225.752797
95.833134,1258.350101,7254.018232,-12257.527968
95.833443,1036.288319,8364.327145,-6588.421283
95.833753,-3552.988522,9844.739029,4749.792088
95.834062,-370.102971,12731.542202,-842.705048
95.834372,1776.494261,9474.636058,-3600.648841
95.834681,-4071.132681,8068.244768,3370.820191
95.834991,-2072.576638,9326.594869,306.438199
95.835300,5403.503377,9770.718434,-10648.727422
95.835610,4367.215058,7994.224174,-7584.345430
95.835919,-1554.432478,9622.677246,6358.592633
95.836229,-1258.350101,10807.006753,6894.859482
95.836538,2220.617826,9178.553681,0.000000
95.836848,-3701.029710,7476.080014,6358.592633
95.837157,-3404.947333,6365.771101,1685.410096
95.837466,3034.844362,8068.244768,-10418.898773
95.837776,2960.823768,10881.027347,-12717.185267
95.838085,-4737.318029,11843.295072,459.657299
95.838395,-518.144159,13471.748144,4749.792088
95.838704,3108.864956,10436.903782,-3447.429741
95.839014,-888.247130,10658.965565,995.924147
95.839323,-3701.029710,9326.594869,5592.497135
95.839633,4441.235652,7105.977043,-4979.620737
95.839942,5329.482782,8364.327145,-12257.527968
95.840252,-888.247130,9400.615463,1149.143247
95.840561,-3404.947333,9992.780217,7660.954980
95.840871,5181.441594,11177.109724,995.924147
95.841180,-962.267725,7105.977043,-2068.457845
95.841490,-4737.318029,8216.285956,3447.429741
95.841799,-74.020594,5107.421000,-6511.811733
95.842108,2516.700203,6217.729913,-14096.157163
95.842418,-592.164754,9474.636058,-459.657299
95.842727,-3849.070898,12065.356855,4366.744339
95.843037,1332.370696,11399.171507,153.219100
95.843346,-0.000000,11177.109724,459.657299
95.843656,-1924.535449,10510.924376,4979.620737
95.843965,1702.473667,8290.306550,-3140.991542
95.844275,5181.441594,6809.894666,-10878.556072
95.844584,1184.329507,7402.059420,-3753.867940
95.844894,-3997.112087,10436.903782,6665.030833
95.845203,-222.061783,11103.089130,3447.429741
95.845513,-222.061783,10807.006753,-1378.971896
95.845822,-3775.050304,8364.327145,842.705048
95.846132,-2590.720797,7105.977043,-3753.867940
95.846441,3404.947333,7846.182985,-12487.356617
95.846750,2072.576638,5995.668130,-9422.974625
95.847060,-2960.823768,9252.574275,3524.039291
95.847369,-444.123565,11399.171507,5056.230287
95.847679,3997.112087,9844.739029,766.095498
95.847988,-1036.288319,10140.821405,5822.325785
95.848298,-666.185348,10214.842000,1838.629195
95.848607,2590.720797,7328.038826,-11797.870669
95.848917,4293.194464,8660.409521,-11797.870669
95.849226,-2812.782580,9326.594869,1532.190996
95.849536,-2220.617826,11843.295072,5132.839837
95.849845,1850.514855,11251.130318,-1378.971896
95.850155,-4441.235652,9178.553681,2298.286494
95.850464,-3182.885551,6735.874072,1991.848295
95.850774,1850.514855,7846.182985,-10342.289223
95.851083,1110.308913,8216.285956,-13100.233016
95.851392,-2368.659014,10658.965565,0.000000
95.851702,-1036.288319,12287.418637,6588.421283
95.852011,5033.400406,12065.356855,1455.581446
95.852321,-1036.288319,10881.027347,3370.820191
95.852630,-2664.741391,9474.636058,4903.011187
95.852940,2960.823768,6735.874072,-6894.859482
95.853249,4885.359217,7402.059420,-16164.615008
95.853559,-2146.597232,9178.553681,-3600.648841
95.853868,-4293.194464,10510.924376,4826.401637
95.854178,-222.061783,11843.295072,2298.286494
95.854487,962.267725,10881.027347,1915.238745
95.854797,-4441.235652,7920.203579,4060.306139
95.855106,-518.144159,4737.318029,-4903.011187
95.855416,666.185348,8364.327145,-8733.488677
95.855725,-1110.308913,7550.100608,-2987.772442
95.856034,-1924.535449,13175.665768,5592.497135
95.856344,2368.659014,13915.871710,3140.991542
95.856653,-0.000000,12213.398043,2528.115143
95.856963,-5033.400406,10807.006753,4060.306139
95.857272,-0.000000,8512.368333,-7507.735880
95.857582,5255.462188,7105.977043,-18462.901502
95.857891,592.164754,6957.935855,-7354.516781
95.858201,-5329.482782,8364.327145,4443.353888
95.858510,-0.000000,11103.089130,5745.716235
95.858820,3478.967927,8364.327145,2757.943793
95.859129,-3182.885551,6439.791695,7124.688131
95.859439,-1628.453072,4959.379811,1532.190996
95.859748,3849.070898,7994.224174,-14862.252661
95.860058,2146.597232,8956.491898,-12563.966167
95.860367,-3552.988522,12139.377449,2604.724693
95.860676,-1258.350101,15914.427753,4213.525239
95.860986,1850.514855,14211.954086,-2374.896044
95.861295,-962.267725,14878.139434,3524.039291
95.861605,-3775.050304,9548.656652,306.438199
95.861914,3997.112087,7846.182985,-13023.623466
95.862224,5255.462188,7031.956449,-13559.890315
95.862533,-2368.659014,6069.688724,-1072.533697
95.862843,-1036.288319,11029.068536,8197.221829
95.863152,2664.741391,8438.347739,4519.963438
95.863462,-2590.720797,7476.080014,4903.011187
95.863771,-2072.576638,6735.874072,4826.401637
95.864081,2960.823768,4811.338623,-9652.803275
95.864390,4219.173869,5329.482782,-13100.233016
95.864699,-1924.535449,10436.903782,612.876398
95.865009,-2812.782580,14063.912898,6358.592633
95.865318,-0.000000,15840.407159,1532.190996
95.865628,-1406.391290,14508.036463,2374.896044
95.865937,-4663.297435,11325.150913,919.314598
95.866247,2368.659014,9400.615463,-12257.527968
95.866556,4959.379811,9104.533087,-16547.662757
95.866866,-2590.720797,9178.553681,-2068.457845
95.867175,-1628.453072,11621.233289,7737.564530
95.867485,3108.864956,8882.471304,4519.963438
95.867794,444.123565,6957.935855,7814.174080
95.868104,-4663.297435,4145.153275,10725.336972
95.868413,2146.597232,2220.617826,-4903.011187
95.868723,3627.009116,2664.741391,-16088.005458
95.869032,-296.082377,7105.977043,-5745.716235
95.869341,-4737.318029,12731.542202,3447.429741
95.869651,2960.823768,18061.024985,153.219100
95.869960,1628.453072,15100.201217,-689.485948
95.870270,-5403.503377,13619.789333,3524.039291
95.870579,-666.185348,10658.965565,-4443.353888
95.870889,7254.018232,7328.038826,-16317.834107
95.871198,4071.132681,8438.347739,-8120.612279
95.871508,-3330.926739,10955.047942,8273.831378
95.871817,-222.061783,11325.150913,9193.145976
95.872127,3775.050304,8808.450710,3294.210641
95.872436,-962.267725,6439.791695,1608.800546
95.872746,-3108.864956,5625.565159,612.876398
95.873055,3627.009116,3997.112087,-13789.718964
95.873365,-0.000000,7254.018232,-13713.109414
95.873674,-2812.782580,11103.089130,1302.362347
95.873983,-1480.411884,14952.160028,4903.011187
95.874293,1406.391290,13693.809927,1072.533697
95.874602,-2886.803174,13249.686362,4596.572988
95.874912,-2146.597232,10288.862594,1225.752797
95.875221,5699.585753,7328.038826,-13789.718964
95.875531,6365.771101,7994.224174,-12717.185267
95.875840,-3256.906145,8882.471304,4903.011187
95.876150,-3627.009116,11695.253884,10495.508323
95.876459,2368.659014,10881.027347,3217.601092
95.876769,-444.123565,8512.368333,5669.106685
95.877078,-2442.679609,7031.956449,3140.991542
95.877388,-0.000000,4885.359217,-9269.755526
95.877697,1258.350101,6735.874072,-14479.204912
95.878007,-2368.659014,10362.883188,-2068.457845
95.878316,-1776.494261,13767.830521,689.485948
95.878625,-0.000000,13767.830521,-2451.505594
95.878935,-1184.329507,12361.439231,2374.896044
95.879244,-2886.803174,10658.965565,5132.839837
95.879554,2738.761985,7254.018232,-9346.365076
95.879863,8438.347739,7254.018232,-10801.946522
95.880173,-0.000000,6661.853478,766.095498
95.880482,-4293.194464,9326.594869,9422.974625
95.880792,2368.659014,11029.068536,4136.915689
95.881101,1554.432478,6883.915261,-612.876398
95.881411,-4145.153275,5921.647536,1991.848295
95.881720,-1480.411884,4737.318029,-5439.278036
95.882030,4145.153275,8586.388927,-15168.690860
95.882339,-222.061783,10732.986159,-6511.811733
95.882649,-4885.359217,13249.686362,5286.058936
95.882958,592.164754,15544.324782,2145.067394
95.883267,2294.638420,13249.686362,-1225.752797
95.883577,-2368.659014,11325.150913,4903.011187
95.883886,3552.988522,10436.903782,-919.314598
95.884196,8290.306550,7846.182985,-14862.252661
95.884505,3182.885551,6957.935855,-8120.612279
95.884815,-5921.647536,10584.944971,9422.974625
95.885124,-518.144159,10214.842000,7277.907231
95.885434,2886.803174,11029.068536,-4596.572988
95.885743,-3997.112087,6809.894666,1608.800546
95.886053,-3256.906145,2516.700203,1915.238745
95.886362,3923.091493,4441.235652,-11261.603821
95.886672,1776.494261,9030.512492,-11338.213370
95.886981,-2220.617826,10955.047942,5056.230287
95.887291,-518.144159,14582.057057,5669.106685
95.887600,3108.864956,13249.686362,-2068.457845
95.887909,-2442.679609,11769.274478,4060.306139
95.888219,-3627.009116,9992.780217,-1455.581446
95.888528,5847.626942,8142.265362,-12793.794817
95.888838,2072.576638,9252.574275,-13866.328514
95.889147,-5329.482782,9400.615463,3370.820191
95.889457,-3108.864956,13101.645173,5975.544884
95.889766,2960.823768,10658.965565,-2681.334243
95.890076,-74.020594,5403.503377,2145.067394
95.890385,-3997.112087,2886.803174,6741.640382
95.890695,962.267725,2516.700203,-3983.696590
95.891004,4071.132681,3701.029710,-10418.898773
95.891314,-2220.617826,7772.162391,-536.266849
95.891623,-370.102971,12509.480420,5056.230287
95.891933,1110.308913,13249.686362,76.609550
95.892242,-1406.391290,13989.892304,919.314598
95.892551,-4145.153275,12731.542202,1072.533697
95.892861,2294.638420,10732.986159,-8427.050478
95.893170,4441.235652,11325.150913,-15015.471761
95.893480,-2738.761985,11547.212695,-3830.477490
95.893789,-2738.761985,11473.192101,4749.792088
95.894099,1924.535449,12583.501014,2145.067394
95.894408,1628.453072,9622.677246,995.924147
95.894718,-1998.556043,4737.318029,5515.887586
95.895027,-2220.617826,3997.112087,-229.828649
95.895337,4811.338623,4441.235652,-9346.365076
95.895646,444.123565,5699.585753,-5745.716235
95.895956,-1924.535449,8438.347739,4443.353888
95.896265,-1406.391290,11991.336260,3753.867940
95.896574,370.102971,13397.727550,-459.657299
95.896884,-2812.782580,11843.295072,1915.238745
95.897193,-1332.370696,10214.842000,-3447.429741
95.897503,3108.864956,11325.150913,-13636.499864
95.897812,1776.494261,7920.203579,-8580.269578
95.898122,-3330.926739,13693.809927,4979.620737
95.898431,222.061783,11621.233289,3447.429741
95.898741,3849.070898,9844.739029,0.000000
95.899050,-2368.659014,6143.709319,6818.249932
95.899360,-3775.050304,4145.153275,5286.058936
95.899669,4515.256246,2294.638420,-7048.078582
95.899979,2220.617826,5995.668130,-9576.193725
95.900288,-2072.576638,9326.594869,153.219100
95.900598,-1998.556043,12139.377449,1608.800546
95.900907,-74.020594,11991.336260,-2145.067394
95.901216,-2146.597232,11843.295072,153.219100
95.901526,-2220.617826,11177.109724,0.000000
95.901835,3330.926739,9252.574275,-11261.603821
95.902145,3849.070898,8290.306550,-11644.651570
95.902454,-0.000000,9400.615463,6588.421283
95.902764,-2220.617826,10510.924376,6818.249932
95.903073,5033.400406,11843.295072,2374.896044
95.903383,-666.185348,8586.388927,4519.963438
95.903692,-4515.256246,5107.421000,5439.278036
95.904002,-1998.556043,6069.688724,-8427.050478
95.904311,3330.926739,7179.997637,-16088.005458
95.904621,-1184.329507,10881.027347,-6435.202183
95.904930,-4293.194464,11029.068536,4366.744339
95.905240,962.267725,13915.871710,1838.629195
95.905549,222.061783,11843.295072,1378.971896
95.905858,-4071.132681,11843.295072,6052.154434
95.906168,444.123565,7254.018232,-3370.820191
95.906477,6439.791695,9326.594869,-15321.909960
95.906787,-1110.308913,14063.912898,-9269.755526
95.907096,-2960.823768,10584.944971,4903.011187
95.907406,1332.370696,12731.542202,3370.820191
95.907715,1850.514855,10658.965565,1302.362347
95.908025,-2072.576638,7328.038826,6511.811733
95.908334,-2738.761985,4959.379811,2528.115143
95.908644,3034.844362,4441.235652,-10342.289223
95.908953,814.226536,5625.565159,-9806.022374
95.909263,-592.164754,9252.574275,689.485948
95.909572,2516.700203,12065.356855,3370.820191
95.909881,888.247130,15396.283594,995.924147
95.910191,-2368.659014,12953.603985,4749.792088
95.910500,-2368.659014,13323.706956,-842.705048
95.910810,5477.523971,8068.244768,-13559.890315
95.911119,2368.659014,7105.977043,-11031.775171
95.911428,-2664.741391,10510.924376,3217.601092
95.911738,-2738.761985,12731.542202,6281.983084
95.912047,4367.215058,11399.171507,2987.772442
95.912357,-1110.308913,7624.121203,8044.002729
95.912666,-5329.482782,5995.668130,4596.572988
95.912975,2146.597232,1628.453072,-9499.584175
95.913285,3330.926739,3701.029710,-15551.738609
95.913594,-2368.659014,9178.553681,-2374.896044
95.913904,-2220.617826,10955.047942,1608.800546
95.914213,2146.597232,13397.727550,0.000000
95.914522,518.144159,14063.912898,4290.134789
95.914832,-5255.462188,11251.130318,7048.078582
95.915141,2146.597232,9992.780217,-7431.126331
95.915451,7328.038826,6291.750507,-15245.300410
95.915760,148.041188,8808.450710,-4596.572988
95.916069,-4811.338623,12805.562797,7507.735880
95.916379,2516.700203,13027.624579,2451.505594
95.916688,4145.153275,10584.944971,1455.581446
95.916998,-3478.967927,6735.874072,7967.393179
95.917307,-1406.391290,3627.009116,-3830.477490
95.917616,3923.091493,4811.338623,-15858.176809
95.917926,-1036.288319,6735.874072,-6971.469032
95.918235,-2886.803174,9474.636058,4290.134789
95.918545,2664.741391,13101.645173,306.438199
95.918854,888.247130,14730.098246,3907.087040
95.919164,-2516.700203,11325.150913,9193.145976
95.919473,-1036.288319,9770.718434,-2451.505594
95.919782,5477.523971,7772.162391,-14479.204912
95.920092,3552.988522,5921.647536,-7967.393179
95.920401,-5107.421000,12435.459826,3524.039291
95.920711,1776.494261,14508.036463,2145.067394
95.921020,-0.000000,11621.233289,2681.334243
95.921329,-3256.906145,9252.574275,10725.336972
95.921639,-2368.659014,4737.318029,4136.915689
95.921948,1184.329507,4219.173869,-12870.404366
95.922258,962.267725,5403.503377,-12640.575717
95.922567,-1628.453072,7846.182985,-383.047749
95.922876,-666.185348,13619.789333,842.705048
95.923186,1332.370696,13767.830521,-766.095498
95.923495,-3404.947333,13397.727550,7431.126331
95.923805,518.144159,10140.821405,6818.249932
95.924114,5551.544565,7179.997637,-10955.165621
95.924423,5181.441594,6365.771101,-12334.137518
95.924733,-2368.659014,6661.853478,1378.971896
95.925042,-3256.906145,11769.274478,6052.154434
95.925352,2294.638420,11843.295072,842.705048
95.925661,-1554.432478,10214.842000,2757.943793
95.925970,-3701.029710,7698.141797,2757.943793
95.926280,2368.659014,5181.441594,-9346.365076
95.926589,2886.803174,6883.915261,-15781.567259
95.926899,-1628.453072,7550.100608,-4060.306139
95.927208,-2516.700203,11991.336260,5822.325785
95.927517,2812.782580,14656.077652,1072.533697
95.927827,1110.308913,12805.562797,3753.867940
95.928136,-5255.462188,9918.759623,8503.660028
95.928446,2368.659014,9178.553681,-7354.516781
95.928755,5921.647536,6957.935855,-18539.511052
95.929064,-370.102971,8808.450710,-5975.544884
95.929374,-4885.359217,11991.336260,7277.907231
95.929683,3182.885551,13619.789333,-153.219100
95.929993,2886.803174,10288.862594,2145.067394
95.930302,-4145.153275,5995.668130,9806.022374
95.930611,-1776.494261,4145.153275,76.609550
95.930921,5477.523971,2812.782580,-17007.320056
95.931230,-1036.288319,5995.668130,-7660.954980
95.931540,-3108.864956,12139.377449,4673.182538
95.931849,-0.000000,14582.057057,612.876398
95.932158,1850.514855,14285.974681,-383.047749
95.932468,-3997.112087,16210.510130,9499.584175
95.932777,-814.226536,9770.718434,-1149.143247
95.933087,5033.400406,6587.832884,-14709.033562
95.933396,1184.329507,7105.977043,-7277.907231
95.933705,-4145.153275,8660.409521,5056.230287
95.934015,-888.247130,14804.118840,3370.820191
95.934324,2368.659014,13249.686362,-229.828649
95.934634,-2442.679609,8364.327145,6588.421283
95.934943,-2368.659014,3034.844362,2374.896044
95.935252,1258.350101,3256.906145,-14325.985813
95.935562,-0.000000,4515.256246,-8656.879127
95.935871,-2590.720797,9178.553681,1915.238745
95.936181,518.144159,13693.809927,306.438199
95.936490,2368.659014,13767.830521,-766.095498
95.936799,-2072.576638,12953.603985,8810.098227
95.937109,-1406.391290,11621.233289,2987.772442
95.937418,4145.153275,7254.018232,-12717.185267
95.937728,2072.576638,8660.409521,-12410.747068
95.938037,-1628.453072,9622.677246,1149.143247
95.938346,-1776.494261,11473.192101,2681.334243
95.938656,3849.070898,14656.077652,-2145.067394
95.938965,-888.247130,9548.656652,3907.087040
95.939275,-4145.153275,6365.771101,7354.516781
95.939584,1924.535449,3923.091493,-5669.106685
95.939893,3923.091493,3404.947333,-13406.671215
95.940203,-2072.576638,7846.182985,-612.876398
95.940512,-1480.411884,13545.768739,4596.572988
95.940822,4145.153275,11325.150913,-3294.210641
95.941131,-0.000000,12213.398043,459.657299
95.941440,-4145.153275,10214.842000,7201.297681
95.941750,2368.659014,8068.244768,-6052.154434
95.942059,5181.441594,9474.636058,-14402.595362
95.942369,-222.061783,11251.130318,-2834.553343
95.942678,-3701.029710,11473.192101,5669.106685
95.942987,2738.761985,13545.768739,-459.657299
95.943297,222.061783,11177.109724,3447.429741
95.943606,-4145.153275,7179.997637,8350.440928
95.943916,444.123565,2590.720797,-3830.477490
95.944225,1776.494261,4737.318029,-13483.280765
95.944534,-2590.720797,5625.565159,-2911.162892
95.944844,-2960.823768,10066.800811,3677.258390
95.945153,2220.617826,14063.912898,-3677.258390
95.945463,-518.144159,12879.583391,-306.438199
95.945772,-4663.297435,10584.944971,8197.221829
95.946081,370.102971,10214.842000,-3140.991542
95.946391,6587.832884,7920.203579,-16011.395908
95.946700,1480.411884,6735.874072,-1455.581446
95.947010,-2368.659014,10214.842000,6128.763984
95.947319,740.205942,11325.150913,1302.362347
95.947628,2368.659014,11695.253884,1072.533697
95.947938,-1924.535449,6957.935855,7124.688131
95.948247,-3108.864956,7328.038826,2451.505594
95.948557,2146.597232,8512.368333,-12640.575717
95.948866,-1776.494261,7254.018232,-8963.317327
95.949175,-1702.473667,12287.418637,-842.705048
95.949485,370.102971,14582.057057,2145.067394
95.949794,1480.411884,14063.912898,-2451.505594
95.950104,-962.267725,9770.718434,5745.716235
95.950413,-2220.617826,8882.471304,3677.258390
95.950722,3182.885551,7550.100608,-8580.269578
95.951032,2960.823768,4293.194464,-12334.137518
95.951341,-222.061783,7254.018232,0.000000
95.951651,-1924.535449,11695.253884,2987.772442
95.951960,2516.700203,12879.583391,919.314598
95.952269,-2146.597232,9918.759623,4060.306139
95.952579,-2442.679609,9104.533087,3830.477490
95.952888,2294.638420,5107.421000,-7584.345430
95.953198,592.164754,5477.523971,-11644.651570
95.953507,-3997.112087,7179.997637,-919.314598
95.953816,-3330.926739,12213.398043,2757.943793
95.954126,4737.318029,13545.768739,-2298.286494
95.954435,-740.205942,12287.418637,3907.087040
95.954745,-4219.173869,12065.356855,9039.926876
95.955054,1110.308913,8068.244768,-5286.058936
95.955363,6957.935855,7920.203579,-13176.842566
95.955673,222.061783,8068.244768,-3907.087040
95.955982,-3182.885551,10881.027347,3217.601092
95.956292,1628.453072,13545.768739,76.609550
95.956601,-0.000000,9622.677246,6435.202183
95.956910,-2368.659014,6661.853478,7814.174080
95.957220,-1850.514855,4811.338623,0.000000
95.957529,2960.823768,4293.194464,-12027.699319
95.957839,-1480.411884,7105.977043,-7124.688131
95.958148,-2590.720797,9400.615463,1915.238745
95.958457,962.267725,11547.212695,-1685.410096
95.958767,1036.288319,13101.645173,1225.752797
95.959076,-2886.803174,12953.603985,7737.564530
95.959386,-0.000000,8660.409521,0.000000
95.959695,3701.029710,10362.883188,-11568.042020
95.960004,2220.617826,7402.059420,-8503.660028
95.960314,-2220.617826,8364.327145,0.000000
95.960623,296.082377,12731.542202,842.705048
95.960933,370.102971,12805.562797,383.047749
95.961242,-1258.350101,11103.089130,6281.983084
95.961551,-3478.967927,7624.121203,2528.115143
95.961861,2442.679609,5773.606348,-8886.707777
95.962170,3182.885551,5847.626942,-11184.994271
95.962480,-592.164754,6365.771101,-3217.601092
95.962789,-1110.308913,13545.768739,2681.334243
95.963099,1628.453072,11695.253884,2757.943793
95.963408,-0.000000,12065.356855,6052.154434
95.963717,-3034.844362,12213.398043,3830.477490
95.964027,2368.659014,9252.574275,-7660.954980
95.964336,4589.276840,7179.997637,-13636.499864
95.964646,-1628.453072,7105.977043,-4136.915689
95.964955,-2664.741391,10362.883188,3370.820191
95.965264,74.020594,11103.089130,0.000000
95.965574,1628.453072,10288.862594,6511.811733
95.965883,-2886.803174,8956.491898,8886.707777
95.966193,-1184.329507,5403.503377,-1991.848295
95.966502,3256.906145,4811.338623,-12870.404366
95.966811,-2812.782580,8734.430116,-8273.831378
95.967121,-3478.967927,11843.295072,612.876398
95.967430,370.102971,15544.324782,-2221.676944
95.967740,296.082377,15914.427753,1225.752797
95.968049,-2960.823768,12805.562797,7277.907231
95.968358,-518.144159,7772.162391,-3677.258390
95.968668,6069.688724,5181.441594,-13559.890315
95.968977,1480.411884,2516.700203,-4136.915689
95.969287,-2664.741391,8438.347739,5669.106685
95.969596,-1184.329507,10140.821405,5362.668486
95.969905,2220.617826,11769.274478,1225.752797
95.970215,-2442.679609,10288.862594,5439.278036
95.970524,-1184.329507,6291.750507,-1915.238745
95.970834,3034.844362,5995.668130,-14785.643111
95.971143,-1850.514855,7624.121203,-10955.165621
95.971452,-3627.009116,11769.274478,1225.752797
95.971762,740.205942,14285.974681,536.266849
95.972071,2960.823768,13989.892304,0.000000
95.972381,-3108.864956,13397.727550,9116.536426
95.972690,-3108.864956,11103.089130,3217.601092
95.972999,5847.626942,7254.018232,-14479.204912
95.973309,5477.523971,7179.997637,-14402.595362
95.973618,-2516.700203,5699.585753,995.924147
95.973928,-3182.885551,11695.253884,9346.365076
95.974237,4367.215058,13545.768739,3294.210641
95.974546,-296.082377,7476.080014,7354.516781
95.974856,-2072.576638,6587.832884,6281.983084
95.975165,370.102971,2960.823768,-10112.460574
95.975475,962.267725,2368.659014,-12487.356617
95.975784,-2516.700203,9104.533087,-2604.724693
95.976093,-2368.659014,15248.242405,1225.752797
95.976403,2146.597232,17616.901420,-536.266849
95.976712,-2368.659014,14508.036463,5439.278036
95.977022,-3552.988522,11547.212695,5592.497135
95.977331,814.226536,8660.409521,-7660.954980
95.977640,4663.297435,5625.565159,-15628.348159
95.977950,-740.205942,6069.688724,-4596.572988
95.978259,-1406.391290,10288.862594,5745.716235
95.978569,1110.308913,11843.295072,4519.963438
95.978878,-296.082377,9326.594869,7354.516781
95.979187,-370.102971,6587.832884,8886.707777
95.979497,-2294.638420,2960.823768,-3064.381992
95.979806,1110.308913,592.164754,-14402.595362
95.980116,-2516.700203,4071.132681,-6435.202183
95.980425,-1924.535449,12435.459826,383.047749
95.980734,1258.350101,19615.457463,-2298.286494
95.981044,1184.329507,15988.448347,-1072.533697
95.981353,-3701.029710,14730.098246,6281.983084
95.981663,1036.288319,9104.533087,-4213.525239
95.981972,6217.729913,5551.544565,-14479.204912
95.982281,-0.000000,5551.544565,-6588.421283
95.982591,-2368.659014,9252.574275,4443.353888
95.982900,-148.041188,10807.006753,5515.887586
95.983210,3182.885551,12583.501014,4519.963438
95.983519,-148.041188,8438.347739,8273.831378
95.983828,-5329.482782,6069.688724,3447.429741
95.984138,1998.556043,3108.864956,-12947.013916
95.984447,2146.597232,6439.791695,-14096.157163
95.984757,-2960.823768,9474.636058,-1991.848295
95.985066,-2516.700203,16580.613101,2451.505594
95.985375,1184.329507,16728.654289,1915.238745
95.985685,-0.000000,14211.954086,4903.011187
95.985994,-1850.514855,8142.265362,3370.820191
95.986304,4663.297435,7402.059420,-10035.851024
95.986613,3701.029710,3701.029710,-14096.157163
95.986922,-1776.494261,7550.100608,2374.896044
95.987232,-2738.761985,13175.665768,9039.926876
95.987541,3923.091493,12731.542202,1302.362347
95.987851,518.144159,9844.739029,4749.792088
95.988160,-2072.576638,3701.029710,4290.134789
95.988469,-1776.494261,2220.617826,-7048.078582
95.988779,1406.391290,4071.132681,-14172.766713
95.989088,-2368.659014,10362.883188,-5439.278036
95.989398,-2368.659014,14359.995275,612.876398
95.989707,-74.020594,18283.086767,-1608.800546
95.990016,-2442.679609,15248.242405,4519.963438
95.990326,-1924.535449,12731.542202,4673.182538
95.990635,4811.338623,7105.977043,-7890.783629
95.990945,3923.091493,2220.617826,-14019.547613
95.991254,-666.185348,5921.647536,306.438199
95.991563,-3034.844362,10807.006753,7967.393179
95.991873,2442.679609,11621.233289,2834.553343
95.992182,2146.597232,11843.295072,2987.772442
95.992492,-3478.967927,6513.812290,1608.800546
95.992801,-2220.617826,4663.297435,-5592.497135
95.993110,1406.391290,5477.523971,-14709.033562
95.993420,814.226536,5921.647536,-8656.879127
95.993729,-2886.803174,10807.006753,4060.306139
95.994039,-814.226536,19097.313304,3753.867940
95.994348,3330.926739,16654.633695,2757.943793
95.994657,-444.123565,10214.842000,5209.449386
95.994967,-1554.432478,11843.295072,-766.095498
95.995276,3923.091493,8216.285956,-16777.491406
95.995586,3034.844362,5033.400406,-12410.747068
95.995895,-4145.153275,11991.336260,4060.306139
95.996204,-74.020594,14804.118840,5209.449386
95.996514,4737.318029,9992.780217,-459.657299
95.996823,-814.226536,4589.276840,7124.688131
95.997133,-4663.297435,3478.967927,5975.544884
95.997442,1702.473667,-444.123565,-7431.126331
95.997751,3256.906145,3923.091493,-10495.508323
95.998061,-2146.597232,10214.842000,459.657299
95.998370,-2146.597232,15174.221811,2145.067394
95.998680,2664.741391,17394.839637,-1532.190996
95.998989,-1702.473667,15396.283594,2298.286494
95.999298,-3034.844362,11547.212695,3294.210641
95.999608,4737.318029,6365.771101,-11338.213370
95.999917,2368.659014,8142.265362,-12487.356617
96.000227,-1406.391290,7328.038826,1838.629195
96.000536,-3330.926739,12065.356855,7048.078582
96.000845,2442.679609,13397.727550,-3983.696590
96.001155,2072.576638,7328.038826,2221.676944
96.001464,-3775.050304,3256.906145,5975.544884
96.001774,-888.247130,2664.741391,-6818.249932
96.002083,2886.803174,3478.967927,-11874.480219
96.002392,-148.041188,5773.606348,-306.438199
96.002702,-2886.803174,11251.130318,4749.792088
96.003011,2368.659014,14582.057057,2451.505594
96.003321,-296.082377,14063.912898,4519.963438
96.003630,-3182.885551,11547.212695,5209.449386
96.003939,4441.235652,11325.150913,-8580.269578
96.004249,3701.029710,9548.656652,-17543.586904
96.004558,-2146.597232,10658.965565,-7124.688131
96.004868,-3997.112087,13471.748144,3294.210641
96.005177,4441.235652,11843.295072,1149.143247
96.005487,2664.741391,9104.533087,2757.943793
96.005796,-2368.659014,5625.565159,13559.890315
96.006105,-1702.473667,962.267725,3830.477490
96.006415,3108.864956,1628.453072,-9346.365076
96.006724,518.144159,3330.926739,-7124.688131
96.007034,-1628.453072,9030.512492,229.828649
96.007343,-518.144159,14730.098246,-2834.553343
96.007652,222.061783,15026.180623,-1149.143247
96.007962,-4515.256246,14656.077652,3907.087040
96.008271,-1258.350101,11029.068536,-2757.943793
96.008581,4959.379811,8882.471304,-11721.261119
96.008890,370.102971,7920.203579,-7354.516781
96.009199,-3627.009116,10436.903782,2604.724693
96.009509,-3182.885551,14730.098246,5745.716235
96.009818,5921.647536,11621.233289,1149.143247
96.010128,-1258.350101,8660.409521,8656.879127
96.010437,-3108.864956,6735.874072,7737.564530
96.010746,814.226536,4219.173869,-7737.564530
96.011056,1258.350101,3775.050304,-10112.460574
96.011365,-2294.638420,7846.182985,-2451.505594
96.011675,-1924.535449,11325.150913,-3064.381992
96.011984,-0.000000,14211.954086,-2221.676944
96.012293,-3108.864956,14508.036463,7124.688131
96.012603,-1702.473667,13471.748144,2987.772442
96.012912,3775.050304,8142.265362,-11491.432470
96.013222,3552.988522,6883.915261,-8963.317327
96.013531,-3108.864956,6069.688724,76.609550
96.013841,-1110.308913,9918.759623,-1991.848295
96.014150,3034.844362,11843.295072,153.219100
96.014460,666.185348,10732.986159,7354.516781
96.014769,-1850.514855,5773.606348,7584.345430
96.015079,-888.247130,4367.215058,-3140.991542
96.015388,296.082377,7179.997637,-8656.879127
96.015697,-592.164754,5551.544565,-6665.030833
96.016007,-1184.329507,10510.924376,-4290.134789
96.016316,-2146.597232,13841.851115,-2451.505594
96.016626,-1036.288319,13545.768739,3294.210641
96.016935,-1480.411884,14359.995275,3907.087040
96.017245,74.020594,11547.212695,-3600.648841
96.017554,5107.421000,9252.574275,-9269.755526
96.017864,3849.070898,7031.956449,-7354.516781
96.018173,-2146.597232,7698.141797,-2221.676944
96.018483,370.102971,13545.768739,4826.401637
96.018792,4589.276840,11325.150913,4290.134789
96.019101,-518.144159,6365.771101,5286.058936
96.019411,-3775.050304,6143.709319,2374.896044
96.019720,-0.000000,3256.906145,-7814.174080
96.020030,370.102971,3552.988522,-10418.898773
96.020339,-2072.576638,9030.512492,-2681.334243
96.020649,-1776.494261,11843.295072,-689.485948
96.020958,-814.226536,15174.221811,-2221.676944
96.021268,-1406.391290,16580.613101,7354.516781
96.021577,-1184.329507,11251.130318,459.657299
96.021887,2960.823768,9918.759623,-11338.213370
96.022196,2960.823768,6365.771101,-9346.365076
96.022506,-3627.009116,5107.421000,919.314598
96.022815,-888.247130,11843.295072,1838.629195
96.023124,2442.679609,13767.830521,2221.676944
96.023434,222.061783,9474.636058,8197.221829
96.023743,-3552.988522,7328.038826,3217.601092
96.024053,1036.288319,4589.276840,-9729.412825
96.024362,1480.411884,518.144159,-12793.794817
96.024672,-518.144159,5107.421000,-3983.696590
96.024981,-2220.617826,9178.553681,-1455.581446
96.025291,592.164754,13841.851115,612.876398
96.025600,-888.247130,15618.345376,9652.803275
96.025910,-74.020594,13101.645173,4136.915689
96.026219,3404.947333,9252.574275,-9806.022374
96.026528,3256.906145,6513.812290,-13406.671215
96.026838,-2368.659014,8290.306550,-4749.792088
96.027147,-888.247130,11251.130318,-2298.286494
96.027457,1258.350101,15692.365970,76.609550
96.027766,-1258.350101,15248.242405,6128.763984
96.028076,-444.123565,8216.285956,7431.126331
96.028385,-222.061783,5107.421000,-3294.210641
96.028695,2146.597232,3404.947333,-11108.384721
96.029004,296.082377,2590.720797,-6665.030833
96.029314,-2220.617826,6809.894666,-766.095498
96.029623,-2368.659014,12213.398043,1378.971896
96.029932,370.102971,17468.860231,7048.078582
96.030242,1258.350101,14359.995275,7507.735880
96.030551,1258.350101,9918.759623,-3907.087040
96.030861,4515.256246,7179.997637,-9652.803275
96.031170,-1036.288319,4737.318029,-7201.297681
96.031480,-2146.597232,10066.800811,-1608.800546
96.031789,666.185348,14137.933492,459.657299
96.032099,-0.000000,15026.180623,3983.696590
96.032408,-0.000000,12509.480420,9576.193725
96.032718,-0.000000,5921.647536,842.705048
96.033027,1554.432478,2812.782580,-10801.946522
96.033336,-2294.638420,2146.597232,-8197.221829
96.033646,-1776.494261,4589.276840,-2221.676944
96.033955,-1850.514855,10658.965565,0.000000
96.034265,814.226536,15322.262999,4213.525239
96.034574,-296.082377,13545.768739,7354.516781
96.034884,-1036.288319,11177.109724,459.657299
96.035193,2738.761985,7179.997637,-6435.202183
