#time,accel_x,accel_y,accel_z
120.395303,-0.000000,9326.594869,-1072.533697
120.395613,-222.061783,8660.409521,-2374.896044
120.395923,-370.102971,9474.636058,-1149.143247
120.396233,296.082377,9474.636058,-1915.238745
120.396543,296.082377,9474.636058,-1991.848295
120.396852,-296.082377,9622.677246,-995.924147
120.397162,296.082377,10214.842000,-995.924147
120.397472,222.061783,10066.800811,-842.705048
120.397782,-370.102971,9696.697840,-995.924147
120.398092,-148.041188,9178.553681,-2221.676944
120.398401,-1184.329507,10214.842000,-1532.190996
120.398711,666.185348,9622.677246,-995.924147
120.399021,-592.164754,9178.553681,-766.095498
120.399331,1184.329507,10362.883188,0.000000
120.399641,148.041188,9178.553681,-612.876398
120.399951,740.205942,7105.977043,-2834.553343
120.400260,-0.000000,8882.471304,-1302.362347
120.400570,-0.000000,9030.512492,-1455.581446
120.400880,1036.288319,9918.759623,-919.314598
120.401190,296.082377,8438.347739,2068.457845
120.401500,814.226536,8290.306550,919.314598
120.401809,1406.391290,6883.915261,459.657299
120.402119,5773.606348,7031.956449,766.095498
120.402429,1628.453072,5921.647536,7967.393179
120.402739,-0.000000,5551.544565,12793.794817
120.403049,-0.000000,6587.832884,11721.261119
120.403358,7254.018232,9474.636058,5362.668486
120.403668,4589.276840,6365.771101,1685.410096
120.403978,-1850.514855,9178.553681,9959.241474
120.404288,-222.061783,12361.439231,13942.938064
120.404598,2146.597232,11621.233289,5898.935335
120.404907,1776.494261,11473.192101,5362.668486
120.405217,-1702.473667,11991.336260,12640.575717
120.405527,-3775.050304,12139.377449,11031.775171
120.405837,-1850.514855,24204.734303,-1455.581446
120.406147,11695.253884,4515.256246,-2604.724693
120.406456,-222.061783,11917.315666,14402.595362
120.406766,-19245.354492,9252.574275,33095.325514
120.407076,5625.565159,22650.301825,1685.410096
120.407386,-0.000000,5107.421000,-6588.421283
120.407696,-1110.308913,11251.130318,3983.696590
120.408005,-13619.789333,3997.112087,14709.033562
120.408315,518.144159,12583.501014,2145.067394
120.408625,1924.535449,5329.482782,2528.115143
120.408935,-7254.018232,4219.173869,15551.738609
120.409245,4959.379811,4663.297435,14019.547613
120.409554,-6291.750507,-1924.535449,11261.603821
120.409864,5477.523971,6513.812290,15704.957709
120.410174,-3552.988522,4589.276840,12563.966167
120.410484,-0.000000,6587.832884,0.000000
120.410794,-666.185348,7698.141797,6971.469032
120.411103,-1850.514855,15840.407159,3064.381992
120.411413,7698.141797,11177.109724,-6128.763984
120.411723,1036.288319,13101.645173,11644.651570
120.412033,-74.020594,11621.233289,26200.466032
120.412343,666.185348,3404.947333,19305.606550
120.412652,5255.462188,7698.141797,10495.508323
120.412962,-2590.720797,5551.544565,12027.699319
120.413272,3256.906145,13101.645173,995.924147
120.413582,6513.812290,13989.892304,-7814.174080
120.413892,2738.761985,18949.272115,3447.429741
120.414201,-4441.235652,14952.160028,17313.758255
120.414511,-4663.297435,11325.150913,15168.690860
120.414821,1184.329507,11621.233289,4596.572988
120.415131,2220.617826,6735.874072,-1915.238745
120.415441,3034.844362,8068.244768,-1149.143247
120.415750,-518.144159,10658.965565,8273.831378
120.416060,-0.000000,12065.356855,14172.766713
120.416370,-296.082377,8142.265362,10878.556072
120.416680,4071.132681,5699.585753,4979.620737
120.416990,-2442.679609,5551.544565,7201.297681
120.417300,-6069.688724,3627.009116,7354.516781
120.417609,-2812.782580,7550.100608,2451.505594
120.417919,7698.141797,9104.533087,-7584.345430
120.418229,6143.709319,7994.224174,-1149.143247
120.418539,-2738.761985,6439.791695,17466.977354
120.418849,-6957.935855,8438.347739,23059.474490
120.419158,1924.535449,11621.233289,8810.098227
120.419468,4515.256246,9030.512492,-4060.306139
120.419778,-3108.864956,10436.903782,1838.629195
120.420088,-7698.141797,12583.501014,3370.820191
120.420398,1406.391290,14508.036463,-5975.544884
120.420707,9622.677246,14211.954086,-6741.640382
120.421017,444.123565,10732.986159,12793.794817
120.421327,-5995.668130,6883.915261,31256.696318
120.421637,4441.235652,5551.544565,18999.168350
120.421947,5255.462188,4293.194464,3830.477490
120.422256,-3182.885551,2590.720797,8044.002729
120.422566,1036.288319,-3849.070898,6665.030833
120.422876,-222.061783,13397.727550,-11184.994271
120.423186,16580.613101,15618.345376,4903.011187
120.423496,-21391.951724,10214.842000,27196.390179
120.423805,2368.659014,15470.304188,25051.322785
120.424115,888.247130,296.082377,536.266849
120.424425,-74.020594,10955.047942,-2681.334243
120.424735,-5181.441594,8438.347739,11261.603821
120.425045,6069.688724,15248.242405,-2298.286494
120.425354,1258.350101,12509.480420,-612.876398
120.425664,-1628.453072,16284.530724,19688.654299
120.425974,2368.659014,12139.377449,19995.092498
120.426284,-9548.656652,6957.935855,5515.887586
120.426594,-444.123565,10881.027347,10801.946522
120.426903,3627.009116,12805.562797,4443.353888
120.427213,1776.494261,9696.697840,-9806.022374
120.427523,-740.205942,14285.974681,7354.516781
120.427833,-5995.668130,17098.757260,19305.606550
120.428143,1628.453072,12583.501014,2298.286494
120.428452,3923.091493,10066.800811,-6511.811733
120.428762,-7179.997637,12065.356855,17313.758255
120.429072,-7624.121203,8438.347739,16241.224558
120.429382,6365.771101,4737.318029,-2145.067394
120.429692,3478.967927,7920.203579,0.000000
120.430001,-2294.638420,2738.761985,7814.174080
120.430311,2368.659014,5699.585753,3294.210641
120.430621,-0.000000,8068.244768,6281.983084
120.430931,-5995.668130,8142.265362,14632.424012
120.431241,3404.947333,9548.656652,8197.221829
120.431550,3404.947333,5921.647536,-4749.792088
120.431860,-4737.318029,444.123565,-3677.258390
120.432170,-7772.162391,7994.224174,5515.887586
120.432480,-444.123565,10214.842000,612.876398
120.432790,2072.576638,14137.933492,-5286.058936
120.433099,3552.988522,15470.304188,842.705048
120.433409,-0.000000,11103.089130,3294.210641
120.433719,-296.082377,9178.553681,5439.278036
120.434029,-2294.638420,9696.697840,7048.078582
120.434339,-2294.638420,9474.636058,459.657299
120.434649,6217.729913,11251.130318,-9959.241474
120.434958,4737.318029,8586.388927,-12027.699319
120.435268,-4959.379811,11547.212695,1532.190996
120.435578,-1924.535449,9474.636058,6894.859482
120.435888,2146.597232,10436.903782,-2911.162892
120.436198,5699.585753,8660.409521,-7124.688131
120.436507,1924.535449,3627.009116,2681.334243
120.436817,-1480.411884,6143.709319,7431.126331
120.437127,-296.082377,8734.430116,4060.306139
120.437437,444.123565,9474.636058,2911.162892
120.437747,7476.080014,12213.398043,-5669.106685
120.438056,6661.853478,9918.759623,-10342.289223
120.438366,-5625.565159,9548.656652,1838.629195
120.438676,-3108.864956,14434.015869,9882.631924
120.438986,4959.379811,9104.533087,-4366.744339
120.439296,8068.244768,6291.750507,-9806.022374
120.439605,-3404.947333,7254.018232,3524.039291
120.439915,-3404.947333,7994.224174,3370.820191
120.440225,2294.638420,13249.686362,-6665.030833
120.440535,2442.679609,15396.283594,-10648.727422
120.440845,3849.070898,9992.780217,-8656.879127
120.441154,-0.000000,9918.759623,-2068.457845
120.441464,-4219.173869,6587.832884,4903.011187
120.441774,-1184.329507,5255.462188,4060.306139
120.442084,4885.359217,4219.173869,0.000000
120.442394,7698.141797,4663.297435,-3447.429741
120.442703,-3849.070898,5255.462188,6358.592633
120.443013,-5403.503377,10881.027347,4060.306139
120.443323,518.144159,13175.665768,-6894.859482
120.443633,5033.400406,13323.706956,-19458.825649
120.443943,1628.453072,8512.368333,-12257.527968
120.444252,-11917.315666,7105.977043,4903.011187
120.444562,-4293.194464,10807.006753,9422.974625
120.444872,7105.977043,8734.430116,0.000000
120.445182,5255.462188,5403.503377,842.705048
120.445492,-2294.638420,7698.141797,7814.174080
120.445801,-4441.235652,9918.759623,9116.536426
120.446111,-1850.514855,15618.345376,0.000000
120.446421,3701.029710,15692.365970,-5898.935335
120.446731,6365.771101,15248.242405,-14709.033562
120.447041,-1480.411884,14508.036463,-7507.735880
120.447350,-13693.809927,10955.047942,13942.938064
120.447660,-2960.823768,12361.439231,11874.480219
120.447970,8660.409521,8364.327145,-5898.935335
120.448280,5995.668130,5107.421000,-3983.696590
120.448590,-5181.441594,7772.162391,13100.233016
120.448899,-6439.791695,7179.997637,5975.544884
120.449209,3701.029710,14137.933492,-9882.631924
120.449519,1924.535449,13841.851115,-8963.317327
120.449829,2294.638420,9400.615463,-5669.106685
120.450138,-4811.338623,5625.565159,-536.266849
120.450448,-5625.565159,6439.791695,8273.831378
120.450757,-2664.741391,4219.173869,6665.030833
120.451067,6513.812290,4441.235652,-5439.278036
120.451376,5625.565159,6661.853478,-6128.763984
120.451686,-10066.800811,7920.203579,8733.488677
120.451995,-3923.091493,12731.542202,2604.724693
120.452305,5551.544565,12731.542202,-14709.033562
120.452614,4145.153275,12657.521608,-11797.870669
120.452923,-814.226536,13397.727550,1378.971896
120.453233,-8216.285956,10658.965565,9806.022374
120.453542,1554.432478,10510.924376,5592.497135
120.453852,7476.080014,7698.141797,0.000000
120.454161,3997.112087,6735.874072,76.609550
120.454471,-3330.926739,6291.750507,3600.648841
120.454780,-4959.379811,9400.615463,7048.078582
120.455090,2442.679609,15692.365970,-4903.011187
120.455399,3552.988522,13175.665768,-13713.109414
120.455709,2516.700203,12509.480420,-11108.384721
120.456018,-7476.080014,10362.883188,76.609550
120.456328,-3923.091493,7031.956449,8120.612279
120.456637,5625.565159,8660.409521,5056.230287
120.456946,6513.812290,5107.421000,-2298.286494
120.457256,5477.523971,5181.441594,-153.219100
120.457565,-7328.038826,5255.462188,12410.747068
120.457875,-2812.782580,9178.553681,2451.505594
120.458184,2368.659014,10807.006753,-13866.328514
120.458494,3034.844362,13323.706956,-15781.567259
120.458803,1036.288319,7994.224174,-10342.289223
120.459113,-9474.636058,9622.677246,612.876398
120.459422,-1850.514855,10955.047942,9499.584175
120.459732,5181.441594,7105.977043,2374.896044
120.460041,9548.656652,6143.709319,-5362.668486
120.460351,296.082377,5625.565159,6741.640382
120.460660,-8808.450710,9030.512492,12717.185267
120.460969,1258.350101,12287.418637,-3370.820191
120.461279,7846.182985,14285.974681,-13866.328514
120.461588,518.144159,17616.901420,-10418.898773
120.461898,-2368.659014,11325.150913,-4366.744339
120.462207,1776.494261,11991.336260,306.438199
120.462517,-3923.091493,11029.068536,4519.963438
120.462826,2960.823768,8512.368333,3907.087040
120.463136,4737.318029,1110.308913,459.657299
120.463445,-3552.988522,5625.565159,7048.078582
120.463755,-6513.812290,7550.100608,6971.469032
120.464064,-2960.823768,12509.480420,-4749.792088
120.464374,3627.009116,13545.768739,-16088.005458
120.464683,1924.535449,9252.574275,-13942.938064
120.464992,-8438.347739,7846.182985,612.876398
120.465302,-5921.647536,7550.100608,9039.926876
120.465611,4145.153275,6957.935855,2834.553343
120.465921,4219.173869,2220.617826,-306.438199
120.466230,1406.391290,5625.565159,5132.839837
120.466540,-6661.853478,7179.997637,8886.707777
120.466849,-4515.256246,11251.130318,383.047749
120.467159,1406.391290,17394.839637,-8886.707777
120.467468,5625.565159,12213.398043,-16854.100956
120.467778,-3404.947333,15100.201217,-10648.727422
120.468087,-9548.656652,10214.842000,6588.421283
120.468397,4293.194464,10436.903782,6128.763984
120.468706,4737.318029,8290.306550,1302.362347
120.469015,-592.164754,-814.226536,6971.469032
120.469325,-11843.295072,2294.638420,11951.089769
120.469634,-1628.453072,4293.194464,-1455.581446
120.469944,-2072.576638,12509.480420,-11184.994271
120.470253,6587.832884,23686.590144,-8656.879127
120.470563,2738.761985,12879.583391,-16930.710506
120.470872,-5107.421000,9474.636058,-9039.926876
120.471182,-9918.759623,10732.986159,14555.814462
120.471491,-1406.391290,6069.688724,10265.679673
120.471801,10066.800811,2368.659014,-4136.915689
120.472110,4441.235652,5329.482782,766.095498
120.472420,-3775.050304,5773.606348,10801.946522
120.472729,-1776.494261,11103.089130,2221.676944
120.473038,4219.173869,13397.727550,-10418.898773
120.473348,3404.947333,9844.739029,-11338.213370
120.473657,-1258.350101,9030.512492,-9806.022374
120.473967,-6587.832884,11325.150913,0.000000
120.474276,-3997.112087,10436.903782,8273.831378
120.474586,7105.977043,9622.677246,3447.429741
120.474895,12509.480420,3182.885551,-3600.648841
120.475205,370.102971,9844.739029,7124.688131
120.475514,-9474.636058,5921.647536,10725.336972
120.475824,1480.411884,13545.768739,-1072.533697
120.476133,5921.647536,16802.674883,-15781.567259
120.476443,9474.636058,11917.315666,-12487.356617
120.476752,-9474.636058,14063.912898,-2298.286494
120.477061,-1184.329507,14285.974681,-995.924147
120.477371,-4737.318029,5477.523971,3830.477490
120.477680,5773.606348,9548.656652,3064.381992
120.477990,9696.697840,4441.235652,-3600.648841
120.478299,-2886.803174,3108.864956,5975.544884
120.478609,-5995.668130,12361.439231,9882.631924
120.478918,-2812.782580,10288.862594,-5515.887586
120.479228,7846.182985,13175.665768,-20454.749797
120.479537,1480.411884,10881.027347,-15398.519510
120.479847,-10362.883188,1702.473667,3524.039291
120.480156,-4885.359217,12509.480420,3983.696590
120.480466,1628.453072,4293.194464,-1991.848295
120.480775,9030.512492,4219.173869,-1608.800546
120.481084,-3478.967927,2516.700203,5132.839837
120.481394,-1184.329507,5329.482782,5362.668486
120.481703,-3034.844362,13471.748144,0.000000
120.482013,3552.988522,12657.521608,-10572.117872
120.482322,5995.668130,12805.562797,-17160.539155
120.482632,-222.061783,12879.583391,-11414.822920
120.482941,-11991.336260,10881.027347,8044.002729
120.483251,-740.205942,12583.501014,7584.345430
120.483560,4515.256246,-0.000000,-6971.469032
120.483870,1702.473667,5477.523971,-5592.497135
120.484179,-1628.453072,1850.514855,11951.089769
120.484489,-4145.153275,10955.047942,3217.601092
120.484798,4737.318029,19541.436869,-2528.115143
120.485107,5477.523971,12435.459826,-10725.336972
120.485417,962.267725,6809.894666,-17083.929605
120.485726,-13323.706956,9252.574275,4749.792088
120.486036,-5625.565159,12657.521608,7584.345430
120.486345,3330.926739,3701.029710,-10955.165621
120.486655,9326.594869,8364.327145,-11338.213370
120.486964,-74.020594,5551.544565,1149.143247
120.487274,-8956.491898,5921.647536,13176.842566
120.487583,2368.659014,14730.098246,2068.457845
120.487893,3404.947333,6513.812290,-10572.117872
120.488202,4885.359217,12435.459826,-14479.204912
120.488512,-9178.553681,5329.482782,-6052.154434
120.488821,-5625.565159,9400.615463,1532.190996
120.489130,296.082377,12879.583391,-2221.676944
120.489440,5551.544565,7476.080014,-4519.963438
120.489749,6291.750507,8216.285956,-4443.353888
120.490059,-3256.906145,7698.141797,5209.449386
120.490368,-5847.626942,5847.626942,10342.289223
120.490678,3108.864956,13545.768739,459.657299
120.490987,16432.571912,15322.262999,-11491.432470
120.491297,3849.070898,9400.615463,-8733.488677
120.491606,-0.000000,17172.777854,-3524.039291
120.491916,-18135.045579,3256.906145,4366.744339
120.492225,5921.647536,18801.230927,1455.581446
120.492535,12953.603985,9770.718434,-9806.022374
120.492844,-740.205942,370.102971,-1991.848295
120.493153,-4737.318029,12139.377449,21144.235745
120.493463,-6217.729913,8660.409521,7967.393179
120.493772,11621.233289,11991.336260,-16241.224558
120.494082,5625.565159,10510.924376,-9806.022374
120.494391,-8216.285956,6143.709319,-2298.286494
120.494701,-4071.132681,9474.636058,4136.915689
120.495010,-2812.782580,9474.636058,0.000000
120.495320,2960.823768,4885.359217,-2145.067394
120.495629,3701.029710,3552.988522,2068.457845
120.495939,-1036.288319,4293.194464,3524.039291
120.496248,-10214.842000,9400.615463,8273.831378
120.496558,6809.894666,17394.839637,-3447.429741
120.496867,4441.235652,8364.327145,-10495.508323
120.497176,4737.318029,17024.736666,-11568.042020
120.497486,-8956.491898,8882.471304,459.657299
120.497795,-7254.018232,9918.759623,8044.002729
120.498105,370.102971,15988.448347,-1838.629195
120.498414,10955.047942,5181.441594,-4596.572988
120.498724,8586.388927,7698.141797,-1915.238745
120.499033,-7402.059420,7031.956449,1302.362347
120.499343,-7550.100608,8438.347739,8503.660028
120.499652,8068.244768,15396.283594,-3524.039291
120.499962,5995.668130,10658.965565,-19688.654299
120.500271,-3404.947333,10066.800811,-7124.688131
120.500581,-9474.636058,13175.665768,11491.432470
120.500890,-3701.029710,7328.038826,-2757.943793
120.501199,5921.647536,9696.697840,-6511.811733
120.501509,3478.967927,3997.112087,536.266849
120.501818,-3330.926739,5255.462188,5898.935335
120.502128,-4219.173869,7105.977043,4749.792088
120.502437,2146.597232,9474.636058,-3983.696590
120.502747,4737.318029,13471.748144,-13636.499864
120.503056,-1332.370696,10584.944971,-8120.612279
120.503366,-3182.885551,8438.347739,-1762.019645
120.503675,-6661.853478,11029.068536,2374.896044
120.503985,1554.432478,10732.986159,842.705048
120.504294,3256.906145,7105.977043,76.609550
120.504604,2812.782580,9918.759623,-4366.744339
120.504913,-4219.173869,4145.153275,2757.943793
120.505222,-592.164754,15396.283594,7354.516781
120.505532,592.164754,18949.272115,-8886.707777
120.505841,9030.512492,5921.647536,-9039.926876
120.506151,5847.626942,16358.551318,-9116.536426
120.506460,-19467.416275,1258.350101,5209.449386
120.506770,1776.494261,13841.851115,11491.432470
120.507079,6217.729913,7031.956449,-4290.134789
120.507389,5847.626942,3923.091493,-12640.575717
120.507698,-2738.761985,11473.192101,7354.516781
120.508008,-7994.224174,8808.450710,9193.145976
120.508317,6957.935855,12731.542202,-8963.317327
120.508627,1998.556043,13545.768739,-11261.603821
120.508936,3034.844362,9326.594869,-6281.983084
120.509245,-3849.070898,7846.182985,-1685.410096
120.509555,-4441.235652,9622.677246,6128.763984
120.509864,666.185348,9030.512492,4903.011187
120.510174,6291.750507,6957.935855,-4136.915689
120.510483,6217.729913,6217.729913,-5056.230287
120.510793,-6735.874072,3256.906145,7967.393179
120.511102,888.247130,14211.954086,2834.553343
120.511412,-1554.432478,9104.533087,-9576.193725
120.511721,6809.894666,14804.118840,-9729.412825
120.512031,888.247130,11769.274478,-7354.516781
120.512340,-6143.709319,7550.100608,-306.438199
120.512650,4145.153275,13249.686362,7584.345430
120.512959,-7772.162391,10288.862594,3294.210641
120.513268,10732.986159,3552.988522,-1608.800546
120.513578,12435.459826,5921.647536,-6128.763984
120.513887,-19097.313304,4367.215058,7660.954980
120.514197,4663.297435,18209.066173,9806.022374
120.514506,4219.173869,13397.727550,-13789.718964
120.514816,5921.647536,13841.851115,-20684.578446
120.515125,-7920.203579,11251.130318,5209.449386
120.515435,-9252.574275,9548.656652,7890.783629
120.515744,5995.668130,12361.439231,-6128.763984
120.516054,3923.091493,8734.430116,-4826.401637
120.516363,888.247130,6439.791695,-1302.362347
120.516673,-1184.329507,2590.720797,4136.915689
120.516982,-3108.864956,5255.462188,7048.078582
120.517291,-2442.679609,8734.430116,0.000000
120.517601,3701.029710,13323.706956,-7124.688131
120.517910,4367.215058,11769.274478,-13406.671215
120.518220,-9474.636058,6365.771101,-1838.629195
120.518529,-3108.864956,18949.272115,3447.429741
120.518839,518.144159,8216.285956,-3600.648841
120.519148,9474.636058,11473.192101,-6894.859482
120.519458,-1036.288319,7031.956449,2451.505594
120.519767,-7550.100608,-0.000000,13483.280765
120.520077,296.082377,14359.995275,5132.839837
120.520386,-74.020594,8512.368333,-11414.822920
120.520696,14137.933492,14211.954086,-6741.640382
120.521005,-5107.421000,15988.448347,-7737.564530
120.521314,-2516.700203,17172.777854,-6818.249932
120.521624,-4737.318029,4737.318029,8810.098227
120.521933,2072.576638,10807.006753,5898.935335
120.522243,8586.388927,5329.482782,-8733.488677
120.522552,-1036.288319,1554.432478,5669.106685
120.522862,-3182.885551,8956.491898,16088.005458
120.523171,-6217.729913,5403.503377,-3064.381992
120.523481,8142.265362,15248.242405,-16547.662757
120.523790,4737.318029,12805.562797,-14096.157163
120.524100,-7105.977043,9030.512492,-4443.353888
120.524409,-3330.926739,12805.562797,4596.572988
120.524719,-5477.523971,8512.368333,5439.278036
120.525028,6883.915261,8734.430116,-612.876398
120.525337,4219.173869,1332.370696,76.609550
120.525647,-4145.153275,2812.782580,5745.716235
120.525956,-7105.977043,10140.821405,6588.421283
120.526266,2146.597232,14063.912898,-10648.727422
120.526575,8512.368333,13397.727550,-17773.415554
120.526885,3923.091493,10955.047942,-11797.870669
120.527194,-8216.285956,10807.006753,7201.297681
120.527504,-4293.194464,7624.121203,12487.356617
120.527813,8438.347739,10214.842000,-2451.505594
120.528123,-296.082377,6439.791695,-4596.572988
120.528432,3701.029710,3923.091493,8733.488677
120.528742,8956.491898,7550.100608,2068.457845
120.529051,-14730.098246,10436.903782,-6894.859482
120.529360,5699.585753,16950.716072,-2834.553343
120.529670,2368.659014,13915.871710,-14632.424012
120.529979,-2812.782580,9030.512492,-18616.120601
120.530289,-6957.935855,11325.150913,13942.938064
120.530598,-4663.297435,11103.089130,10725.336972
120.530908,13471.748144,1332.370696,-10648.727422
120.531217,3256.906145,5403.503377,229.828649
120.531527,-7994.224174,814.226536,14709.033562
120.531836,-3775.050304,6587.832884,5975.544884
120.532146,2072.576638,14656.077652,-12947.013916
120.532455,4589.276840,8216.285956,-15551.738609
120.532765,370.102971,14063.912898,-11184.994271
120.533074,-7105.977043,9474.636058,-1608.800546
120.533383,-4959.379811,7031.956449,5362.668486
120.533693,2442.679609,8438.347739,4060.306139
120.534002,4293.194464,7476.080014,2374.896044
120.534312,4959.379811,4737.318029,2987.772442
120.534621,-3034.844362,10140.821405,8886.707777
120.534931,-2294.638420,12435.459826,842.705048
120.535240,4441.235652,11399.171507,-10955.165621
120.535550,3997.112087,7698.141797,-16547.662757
120.535859,-9030.512492,10140.821405,-3983.696590
120.536169,-8290.306550,14952.160028,2451.505594
120.536478,2738.761985,16062.468941,-4673.182538
120.536788,-296.082377,5477.523971,6818.249932
120.537097,12657.521608,13767.830521,4826.401637
120.537406,-962.267725,-666.185348,-3830.477490
120.537716,-5329.482782,5477.523971,8656.879127
120.538025,-0.000000,11917.315666,5975.544884
120.538335,-4515.256246,4515.256246,-14096.157163
120.538644,9548.656652,15618.345376,-16854.100956
120.538954,-6439.791695,10140.821405,-1685.410096
120.539263,-7994.224174,11695.253884,5745.716235
120.539573,4145.153275,9252.574275,0.000000
120.539882,4071.132681,3552.988522,-2681.334243
120.540192,3404.947333,5847.626942,3217.601092
120.540501,-7105.977043,888.247130,13789.718964
120.540811,-0.000000,10732.986159,2681.334243
120.541120,296.082377,10584.944971,-4749.792088
120.541429,4367.215058,17394.839637,-12410.747068
120.541739,-4219.173869,11843.295072,-10801.946522
120.542048,-5329.482782,11547.212695,-1991.848295
120.542358,-2368.659014,13323.706956,5745.716235
120.542667,-592.164754,9548.656652,919.314598
120.542977,12065.356855,11991.336260,-4290.134789
120.543286,2812.782580,3701.029710,9729.412825
120.543596,-814.226536,8956.491898,18233.072852
120.543905,6883.915261,15174.221811,-6971.469032
120.544215,-10288.862594,4293.194464,-7660.954980
120.544524,9252.574275,22946.384202,-3447.429741
120.544834,-1258.350101,9400.615463,-18156.463303
120.545143,-2738.761985,8364.327145,-6665.030833
120.545452,-3478.967927,17616.901420,14862.252661
120.545762,1924.535449,3997.112087,536.266849
120.546071,12065.356855,5255.462188,-5592.497135
120.546381,-4663.297435,2960.823768,16777.491406
120.546690,-8068.244768,5181.441594,13023.623466
120.547000,4737.318029,10881.027347,-9652.803275
120.547309,4293.194464,13767.830521,-12947.013916
120.547619,5477.523971,14656.077652,-15934.786358
120.547928,-8290.306550,7994.224174,-7201.297681
120.548238,-1554.432478,11177.109724,3294.210641
120.548547,-4959.379811,5551.544565,6128.763984
120.548857,10658.965565,9844.739029,1762.019645
120.549166,2368.659014,1480.411884,5592.497135
120.549475,-5255.462188,7031.956449,10955.165621
120.549785,370.102971,9992.780217,5975.544884
120.550094,1776.494261,10362.883188,-7048.078582
120.550404,9696.697840,18875.251521,-19228.997000
120.550713,-11325.150913,15840.407159,-13100.233016
120.551023,-1480.411884,8364.327145,9039.926876
120.551332,6587.832884,16580.613101,-2681.334243
120.551642,-10955.047942,6735.874072,-3447.429741
120.551951,11843.295072,8660.409521,10418.898773
120.552274,-3330.926739,3256.906145,4290.134789
120.552584,-5033.400406,8734.430116,1072.533697
120.552893,-1184.329507,11547.212695,8733.488677
120.553202,5551.544565,13471.748144,-11414.822920
120.553512,7698.141797,13323.706956,-23212.693589
120.553821,-7772.162391,7920.203579,459.657299
120.554130,-11917.315666,7846.182985,10495.508323
120.554440,-0.000000,6513.812290,-1532.190996
120.554749,11547.212695,8068.244768,-5362.668486
120.555059,962.267725,4737.318029,76.609550
120.555368,-4737.318029,4145.153275,9729.412825
120.555677,-74.020594,9992.780217,7354.516781
120.555987,-444.123565,8142.265362,-6205.373534
120.556296,5033.400406,13545.768739,-13866.328514
120.556606,-2738.761985,10955.047942,-6435.202183
120.556915,-7846.182985,12361.439231,-1991.848295
120.557224,-3701.029710,15544.324782,-1455.581446
120.557534,3923.091493,7550.100608,459.657299
120.557843,8660.409521,6587.832884,-459.657299
120.558152,-4663.297435,-5329.482782,5209.449386
120.558462,-19467.416275,888.247130,15092.081311
120.558771,-6661.853478,6883.915261,-1532.190996
120.559081,5551.544565,18135.045579,-15245.300410
120.559390,7994.224174,20651.745782,-3983.696590
120.559699,-2294.638420,15322.262999,-2604.724693
120.560009,-5033.400406,10066.800811,-7354.516781
120.560318,-6587.832884,10510.924376,4519.963438
120.560628,5699.585753,9252.574275,2374.896044
120.560937,3997.112087,-222.061783,-8580.269578
120.561246,-518.144159,3775.050304,5975.544884
120.561556,-2516.700203,9844.739029,14555.814462
120.561865,-3256.906145,8438.347739,-5132.839837
120.562174,10436.903782,12805.562797,-13253.452115
120.562484,-7328.038826,9696.697840,-8503.660028
120.562793,-3182.885551,11029.068536,-1532.190996
120.563103,-3478.967927,10807.006753,1225.752797
120.563412,2664.741391,8808.450710,-5592.497135
120.563721,6513.812290,7920.203579,-2068.457845
120.564031,-1480.411884,3404.947333,10265.679673
120.564340,-2220.617826,4071.132681,12640.575717
120.564650,-1184.329507,11473.192101,3217.601092
120.564959,5255.462188,12213.398043,-5439.278036
120.565268,2294.638420,11991.336260,-9576.193725
120.565578,-5329.482782,5551.544565,-9422.974625
120.565887,-2072.576638,12805.562797,1302.362347
120.566196,-1776.494261,12583.501014,-5132.839837
120.566506,7772.162391,14359.995275,-9882.631924
120.566815,-518.144159,4293.194464,10265.679673
120.567125,814.226536,7179.997637,13483.280765
120.567434,1776.494261,5847.626942,1991.848295
120.567743,-2368.659014,6513.812290,612.876398
120.568053,7994.224174,16506.592507,-5209.449386
120.568362,-1776.494261,8586.388927,-14709.033562
120.568672,2368.659014,12065.356855,-6358.592633
120.568981,-4737.318029,10066.800811,3600.648841
120.569290,-2738.761985,8438.347739,-1302.362347
120.569600,10288.862594,5107.421000,0.000000
120.569909,-5403.503377,3627.009116,5669.106685
120.570218,-2516.700203,6809.894666,9729.412825
120.570528,-2294.638420,4737.318029,5132.839837
120.570837,6957.935855,14285.974681,-11644.651570
120.571147,4367.215058,13915.871710,-15168.690860
120.571456,-6217.729913,12139.377449,-2298.286494
120.571765,-3404.947333,12435.459826,2374.896044
120.572075,-1850.514855,11251.130318,-3830.477490
120.572384,2960.823768,9770.718434,459.657299
120.572694,1184.329507,5329.482782,4213.525239
120.573003,-3108.864956,2664.741391,1838.629195
120.573312,-5477.523971,8216.285956,9499.584175
120.573622,1776.494261,8364.327145,-2528.115143
120.573931,5699.585753,15544.324782,-18539.511052
120.574240,-3775.050304,12435.459826,-6511.811733
120.574550,-2516.700203,16358.551318,1225.752797
120.574859,-2368.659014,9474.636058,-5286.058936
120.575169,-2368.659014,8068.244768,1608.800546
120.575478,4293.194464,9474.636058,5898.935335
120.575787,888.247130,296.082377,-3064.381992
120.576097,2886.803174,5699.585753,1072.533697
120.576406,-5699.585753,9770.718434,7354.516781
120.576716,888.247130,10955.047942,-7201.297681
120.577025,7772.162391,12583.501014,-15245.300410
120.577334,-4663.297435,11843.295072,-8197.221829
120.577644,-6217.729913,12435.459826,1685.410096
120.577953,-4515.256246,8512.368333,3447.429741
120.578262,2294.638420,8660.409521,-4519.963438
120.578572,4515.256246,8290.306550,-2374.896044
120.578881,-1998.556043,3775.050304,5898.935335
120.579191,-2368.659014,6809.894666,8886.707777
120.579500,-444.123565,10436.903782,-919.314598
120.579809,5551.544565,13471.748144,-5515.887586
120.580119,518.144159,9696.697840,-6818.249932
120.580428,-4589.276840,4737.318029,-3064.381992
120.580737,-14582.057057,11473.192101,2757.943793
120.581047,-2146.597232,7402.059420,-3983.696590
120.581356,7698.141797,11695.253884,-7967.393179
120.581666,-3330.926739,8068.244768,6052.154434
120.581975,2516.700203,11547.212695,8427.050478
120.582284,-1110.308913,5995.668130,-5362.668486
120.582594,-2368.659014,10881.027347,2068.457845
120.582903,4515.256246,14508.036463,1149.143247
120.583213,-1702.473667,5847.626942,-12487.356617
120.583522,3997.112087,13249.686362,-5592.497135
120.583831,-7920.203579,9104.533087,5822.325785
120.584141,-1406.391290,4885.359217,-1149.143247
120.584450,11251.130318,6439.791695,-5592.497135
120.584759,-2516.700203,4737.318029,153.219100
120.585069,-1850.514855,9030.512492,7354.516781
120.585378,-6143.709319,8734.430116,5209.449386
120.585688,6587.832884,13693.809927,-9576.193725
120.585997,2738.761985,12879.583391,-14938.862211
120.586306,-740.205942,11843.295072,-3370.820191
120.586616,-1554.432478,8660.409521,4903.011187
120.586925,-5181.441594,13249.686362,-2145.067394
120.587235,7254.018232,9622.677246,1532.190996
120.587544,-370.102971,3849.070898,2681.334243
120.587853,-2590.720797,3256.906145,5975.544884
120.588163,4737.318029,12805.562797,9039.926876
120.588472,2516.700203,17098.757260,-6894.859482
120.588781,11177.109724,20577.725188,-19612.044749
120.589091,-8068.244768,4293.194464,-8044.002729
120.589400,-4293.194464,15988.448347,4826.401637
120.589710,2146.597232,7105.977043,1608.800546
120.590019,814.226536,4293.194464,-1378.971896
120.590328,5403.503377,11251.130318,8733.488677
120.590638,-4959.379811,222.061783,4519.963438
120.590947,4515.256246,8512.368333,2911.162892
120.591257,-6217.729913,4811.338623,0.000000
120.591566,-3997.112087,11325.150913,-7431.126331
120.591875,7624.121203,11547.212695,-13559.890315
120.592185,-3849.070898,10955.047942,-13406.671215
120.592494,-222.061783,15544.324782,-3217.601092
120.592803,-7328.038826,7031.956449,8197.221829
120.593113,6513.812290,10066.800811,2911.162892
120.593422,3627.009116,3552.988522,-1149.143247
120.593732,-666.185348,2960.823768,9729.412825
120.594041,-3923.091493,9918.759623,8656.879127
120.594350,-1924.535449,12139.377449,-8656.879127
120.594660,8290.306550,17690.922014,-13789.718964
120.594969,-1628.453072,13989.892304,-9882.631924
120.595279,-2516.700203,14434.015869,-7967.393179
120.595588,-7624.121203,8068.244768,5056.230287
120.595897,-5699.585753,8068.244768,4826.401637
120.596207,8068.244768,5699.585753,-4673.182538
120.596516,-1480.411884,4367.215058,1072.533697
120.596825,-3034.844362,10732.986159,17850.025103
120.597135,-1850.514855,11029.068536,2451.505594
120.597444,3775.050304,11621.233289,-20684.578446
120.597754,-74.020594,13989.892304,-8273.831378
120.598063,-3256.906145,12953.603985,-3753.867940
120.598372,-296.082377,10436.903782,-7890.783629
120.598682,-740.205942,10732.986159,-229.828649
120.598991,-666.185348,6439.791695,5132.839837
120.599301,1998.556043,2072.576638,3064.381992
120.599610,1628.453072,3330.926739,6128.763984
120.599919,-4589.276840,8956.491898,6052.154434
120.600229,-1036.288319,11325.150913,-7048.078582
120.600538,6069.688724,16358.551318,-12257.527968
120.600847,-666.185348,16580.613101,-13100.233016
120.601157,-1258.350101,10881.027347,-8120.612279
120.601466,-1110.308913,14656.077652,2451.505594
120.601776,-1036.288319,8438.347739,3294.210641
120.602085,5625.565159,5699.585753,4596.572988
120.602394,4441.235652,5403.503377,6818.249932
120.602704,-5181.441594,4589.276840,10189.070123
120.603013,-1406.391290,9696.697840,4596.572988
120.603323,10066.800811,20207.622217,-8963.317327
120.603632,10955.047942,21317.931130,-16011.395908
120.603941,2664.741391,20725.766376,-16930.710506
120.604251,-12879.583391,5329.482782,-919.314598
120.604560,-3997.112087,8660.409521,4519.963438
120.604869,6587.832884,6735.874072,-2451.505594
120.605179,3849.070898,962.267725,3907.087040
120.605488,-3404.947333,6069.688724,8273.831378
120.605798,-8364.327145,4663.297435,7737.564530
120.606107,3404.947333,9326.594869,-7967.393179
120.606416,2960.823768,10732.986159,-14709.033562
120.606726,-814.226536,13471.748144,-14402.595362
120.607035,-3404.947333,8512.368333,-6665.030833
120.607344,-5847.626942,9030.512492,2374.896044
120.607654,2294.638420,8882.471304,383.047749
120.607963,2072.576638,5699.585753,3524.039291
120.608273,8142.265362,3701.029710,8733.488677
120.608582,-5329.482782,4737.318029,8350.440928
120.608891,-1258.350101,9030.512492,6128.763984
120.609201,2664.741391,10584.944971,-7584.345430
120.609510,4885.359217,17394.839637,-14632.424012
120.609820,-3478.967927,18061.024985,-8273.831378
120.610129,-5625.565159,14359.995275,-3294.210641
120.610438,-1850.514855,12213.398043,-2911.162892
120.610748,-4737.318029,4589.276840,153.219100
120.611057,1332.370696,2664.741391,2451.505594
120.611366,5255.462188,-1628.453072,2221.676944
120.611676,-10955.047942,7772.162391,10801.946522
120.611985,3330.926739,15322.262999,7354.516781
120.612295,2072.576638,13249.686362,-14402.595362
120.612604,3182.885551,18431.127956,-21144.235745
120.612913,-7920.203579,9400.615463,-2451.505594
120.613223,-6143.709319,11473.192101,1072.533697
120.613532,7105.977043,6217.729913,-6818.249932
120.613842,592.164754,4589.276840,1072.533697
120.614151,-740.205942,5995.668130,10265.679673
120.614460,-5847.626942,592.164754,10189.070123
120.614770,4589.276840,11399.171507,2374.896044
120.615079,-1480.411884,10066.800811,-6205.373534
120.615388,-1332.370696,14730.098246,-11414.822920
120.615698,740.205942,13989.892304,-13100.233016
120.616007,-6513.812290,9622.677246,-9576.193725
120.616317,1184.329507,12139.377449,-995.924147
120.616626,-1110.308913,8364.327145,2068.457845
120.616935,5551.544565,8808.450710,6511.811733
120.617245,740.205942,740.205942,10801.946522
120.617554,-2664.741391,6883.915261,11797.870669
120.617864,-222.061783,9548.656652,1608.800546
120.618173,-148.041188,4515.256246,-12410.747068
120.618482,-9770.718434,20133.601622,-17926.634653
120.618792,-6809.894666,9918.759623,-17773.415554
120.619101,4959.379811,16580.613101,-7048.078582
120.619410,-3034.844362,15026.180623,7584.345430
120.619720,5181.441594,10214.842000,8810.098227
120.620029,6587.832884,1998.556043,1838.629195
120.620339,-5477.523971,592.164754,9882.631924
120.620648,-296.082377,6217.729913,13713.109414
120.620957,-740.205942,6513.812290,-5439.278036
120.621267,6883.915261,15470.304188,-17160.539155
120.621576,-0.000000,15248.242405,-14632.424012
120.621886,-10140.821405,13323.706956,-6128.763984
120.622195,2294.638420,12435.459826,-2451.505594
120.622504,-888.247130,4885.359217,-1455.581446
120.622814,5625.565159,8068.244768,5439.278036
120.623123,2738.761985,2812.782580,10189.070123
120.623432,-592.164754,3997.112087,7967.393179
120.623742,-1480.411884,5255.462188,8197.221829
120.624051,2220.617826,10362.883188,-2528.115143
120.624361,4737.318029,15026.180623,-14709.033562
120.624670,-1480.411884,13545.768739,-13636.499864
120.624979,-4145.153275,16802.674883,-2681.334243
120.625289,-3182.885551,14063.912898,-459.657299
120.625598,2146.597232,9030.512492,-5056.230287
120.625908,19763.498651,8956.491898,2528.115143
120.626217,-518.144159,9400.615463,7967.393179
120.626526,3849.070898,10214.842000,6971.469032
120.626836,-5329.482782,-74.020594,7431.126331
120.627145,5773.606348,14063.912898,-4213.525239
120.627454,8660.409521,8956.491898,-18156.463303
120.627764,-6439.791695,7179.997637,-7507.735880
120.628073,-1776.494261,17912.983796,5132.839837
120.628383,-7550.100608,4441.235652,-5056.230287
120.628692,9548.656652,12879.583391,-10035.851024
120.629001,-74.020594,2516.700203,4826.401637
120.629311,-6883.915261,5181.441594,12640.575717
120.629620,1406.391290,5403.503377,7967.393179
120.629930,-148.041188,8438.347739,-5515.887586
120.630239,7624.121203,16580.613101,-11874.480219
120.630548,-4959.379811,9992.780217,-7814.174080
120.630858,-0.000000,14063.912898,-4903.011187
120.631167,-4885.359217,11991.336260,-1838.629195
120.631476,2368.659014,8956.491898,-1455.581446
120.631786,3997.112087,5773.606348,1302.362347
120.632095,1332.370696,4737.318029,5286.058936
120.632405,-1406.391290,8438.347739,10112.460574
120.632714,-4663.297435,6809.894666,6818.249932
120.633023,3701.029710,13323.706956,-5669.106685
120.633333,-2220.617826,23094.425390,-16011.395908
120.633642,8882.471304,6661.853478,-8427.050478
120.633952,2960.823768,18505.148550,-1149.143247
120.634261,-16284.530724,7920.203579,-4213.525239
120.634570,8512.368333,6587.832884,-2221.676944
120.634880,962.267725,6587.832884,2681.334243
120.635189,-2220.617826,6365.771101,9039.926876
120.635498,222.061783,8142.265362,13330.061665
120.635808,-2368.659014,11325.150913,1072.533697
120.636117,12065.356855,15174.221811,-13866.328514
120.636427,-4219.173869,5551.544565,-11184.994271
120.636736,-7476.080014,13619.789333,306.438199
120.637045,-4737.318029,8660.409521,306.438199
120.637355,4071.132681,10066.800811,-12410.747068
120.637664,6365.771101,10658.965565,-6205.373534
120.637973,-4737.318029,3923.091493,11874.480219
120.638283,1184.329507,8882.471304,12334.137518
120.638592,-1258.350101,1184.329507,4290.134789
120.638902,4885.359217,8512.368333,-459.657299
120.639211,1850.514855,12583.501014,-4826.401637
120.639520,-1776.494261,8438.347739,-9729.412825
120.639830,2146.597232,17468.860231,-3140.991542
120.640139,-6661.853478,12139.377449,-4443.353888
120.640449,2664.741391,11547.212695,-5286.058936
120.640758,2146.597232,5477.523971,-459.657299
120.641067,-11991.336260,4145.153275,6818.249932
120.641377,-370.102971,5329.482782,6971.469032
120.641686,2368.659014,8586.388927,153.219100
120.641995,4811.338623,12361.439231,0.000000
120.642305,4515.256246,13619.789333,-4749.792088
120.642614,-370.102971,4589.276840,-7890.783629
120.642924,-6957.935855,11991.336260,536.266849
120.643233,-592.164754,9030.512492,1838.629195
120.643542,6365.771101,8438.347739,-7354.516781
120.643852,2072.576638,7698.141797,-4826.401637
120.644161,-3701.029710,9844.739029,8886.707777
120.644471,-5477.523971,8068.244768,8810.098227
120.644780,7698.141797,7402.059420,-8350.440928
120.645089,4737.318029,13989.892304,-12257.527968
120.645399,-962.267725,7550.100608,0.000000
120.645708,-3182.885551,10510.924376,4596.572988
120.646017,-1998.556043,8438.347739,-5898.935335
120.646327,7328.038826,6365.771101,-7354.516781
120.646636,3849.070898,8956.491898,2681.334243
120.646946,-5995.668130,6143.709319,8197.221829
120.647255,3701.029710,9548.656652,6205.373534
120.647564,-2442.679609,7254.018232,-2221.676944
120.647874,1036.288319,12657.521608,-4596.572988
120.648183,4293.194464,11621.233289,-11338.213370
120.648493,-1406.391290,13619.789333,-9269.755526
120.648802,-1850.514855,15544.324782,0.000000
120.649111,-0.000000,11547.212695,-2528.115143
120.649421,814.226536,1850.514855,842.705048
120.649730,222.061783,9104.533087,4443.353888
120.650039,-148.041188,3404.947333,4213.525239
120.650349,-296.082377,10288.862594,2451.505594
120.650658,-148.041188,10214.842000,-2068.457845
120.650968,1554.432478,13027.624579,-7124.688131
120.651277,2294.638420,15766.386565,-11338.213370
120.651587,-1850.514855,10955.047942,-3830.477490
120.651896,-6217.729913,12583.501014,2068.457845
120.652206,3923.091493,4737.318029,-2374.896044
120.652515,6883.915261,10214.842000,-2145.067394
120.652825,-3775.050304,4293.194464,5286.058936
120.653134,-2368.659014,4219.173869,14862.252661
120.653444,-0.000000,8142.265362,919.314598
120.653754,4885.359217,10955.047942,-7967.393179
120.654063,1702.473667,14211.954086,-6971.469032
120.654373,-4737.318029,11843.295072,-3677.258390
120.654682,148.041188,16358.551318,-766.095498
120.654992,-1258.350101,11917.315666,-3370.820191
120.655301,2294.638420,10955.047942,229.828649
120.655611,1110.308913,7105.977043,1685.410096
120.655920,-4663.297435,4737.318029,3447.429741
120.656230,2664.741391,8216.285956,5745.716235
120.656539,222.061783,7698.141797,-1608.800546
120.656849,-1480.411884,11991.336260,-9806.022374
120.657159,4737.318029,10658.965565,-7124.688131
120.657468,-2368.659014,11695.253884,-2528.115143
120.657778,-3478.967927,10955.047942,1608.800546
120.658087,-666.185348,6439.791695,2451.505594
120.658397,6217.729913,7698.141797,0.000000
120.658706,3108.864956,4737.318029,-2834.553343
120.659016,-1850.514855,4737.318029,4826.401637
120.659325,-4811.338623,6957.935855,5056.230287
120.659635,-0.000000,9326.594869,-1915.238745
120.659944,4811.338623,13619.789333,-7890.783629
120.660254,-2220.617826,11621.233289,-7890.783629
120.660564,-148.041188,11843.295072,76.609550
120.660873,-2590.720797,12139.377449,153.219100
120.661183,2294.638420,12361.439231,-3753.867940
120.661492,3849.070898,7550.100608,459.657299
120.661802,-4293.194464,5551.544565,7354.516781
120.662111,-1406.391290,12139.377449,10342.289223
120.662421,-0.000000,8438.347739,383.047749
120.662730,3034.844362,15988.448347,-12870.404366
120.663040,-0.000000,12139.377449,-8503.660028
120.663349,-4441.235652,8734.430116,-1072.533697
120.663659,-3627.009116,10436.903782,306.438199
120.663968,1406.391290,-148.041188,-766.095498
120.664278,7105.977043,6439.791695,-536.266849
120.664588,-5847.626942,2590.720797,4136.915689
120.664897,2812.782580,8364.327145,8810.098227
120.665207,-3923.091493,8586.388927,3600.648841
120.665516,-1776.494261,12139.377449,-6511.811733
120.665826,4441.235652,16728.654289,-13176.842566
120.666135,-0.000000,10214.842000,-11721.261119
120.666445,444.123565,16062.468941,-2221.676944
120.666754,-6513.812290,9104.533087,383.047749
120.667064,296.082377,6143.709319,2451.505594
120.667373,4515.256246,5699.585753,2834.553343
120.667683,814.226536,4219.173869,3983.696590
120.667993,-518.144159,10066.800811,6894.859482
120.668302,-1258.350101,8734.430116,-689.485948
120.668612,5403.503377,12287.418637,-11108.384721
120.668921,-1036.288319,12879.583391,-12563.966167
120.669231,-814.226536,14211.954086,-5822.325785
120.669540,-1702.473667,13545.768739,1762.019645
120.669850,-1110.308913,9696.697840,153.219100
120.670159,5921.647536,5477.523971,995.924147
120.670469,-518.144159,3404.947333,4596.572988
120.670778,-1406.391290,5181.441594,8733.488677
120.671088,-2294.638420,8216.285956,2451.505594
120.671398,-1702.473667,10584.944971,-7277.907231
120.671707,5551.544565,14730.098246,-12104.308868
120.672017,222.061783,11917.315666,-11108.384721
120.672326,-5181.441594,10955.047942,-919.314598
120.672636,-3330.926739,12509.480420,842.705048
120.672945,1258.350101,6587.832884,-2757.943793
120.673255,2960.823768,5847.626942,2221.676944
120.673564,-3108.864956,2960.823768,9269.755526
120.673874,-2146.597232,8660.409521,7507.735880
120.674183,-0.000000,8734.430116,-3600.648841
120.674493,3330.926739,12731.542202,-10572.117872
120.674803,888.247130,14359.995275,-9652.803275
120.675112,-2960.823768,13841.851115,-6511.811733
120.675422,296.082377,12731.542202,1455.581446
120.675731,-2442.679609,9030.512492,1302.362347
120.676041,5699.585753,7254.018232,1378.971896
120.676350,1480.411884,6217.729913,4213.525239
120.676660,-296.082377,5181.441594,7584.345430
120.676969,-2072.576638,9696.697840,6818.249932
120.677279,-1776.494261,9326.594869,-5209.449386
120.677588,3330.926739,14730.098246,-13866.328514
120.677898,-0.000000,15470.304188,-12334.137518
120.678208,-1850.514855,13545.768739,1608.800546
120.678517,-1258.350101,12213.398043,459.657299
120.678827,666.185348,5255.462188,1378.971896
120.679136,2738.761985,3182.885551,6052.154434
120.679446,-1850.514855,1924.535449,6741.640382
120.679755,1554.432478,5921.647536,5822.325785
120.680065,-1332.370696,9326.594869,306.438199
120.680374,-1554.432478,11991.336260,-8580.269578
120.680684,1776.494261,15396.283594,-12410.747068
120.680993,-1628.453072,9918.759623,-14479.204912
120.681303,-2368.659014,13471.748144,-3677.258390
120.681613,-0.000000,7698.141797,153.219100
120.681922,2738.761985,4885.359217,1532.190996
120.682232,962.267725,5551.544565,9806.022374
120.682541,-740.205942,3256.906145,14555.814462
120.682851,1258.350101,7846.182985,5898.935335
120.683160,-888.247130,10288.862594,-6588.421283
120.683470,4515.256246,16432.571912,-10342.289223
120.683779,-296.082377,16950.716072,-9806.022374
120.684089,-2368.659014,14434.015869,-9116.536426
120.684398,296.082377,13989.892304,-3064.381992
120.684708,-1258.350101,6883.915261,-383.047749
120.685018,4441.235652,8586.388927,2374.896044
120.685327,-2516.700203,4219.173869,7967.393179
120.685637,-74.020594,7031.956449,9576.193725
120.685946,-666.185348,7105.977043,3907.087040
120.686256,-296.082377,9622.677246,-6588.421283
120.686565,3627.009116,13101.645173,-11721.261119
120.686875,-1924.535449,11621.233289,-11261.603821
120.687184,-1332.370696,11843.295072,-3217.601092
120.687494,-2664.741391,9474.636058,0.000000
120.687803,2738.761985,4885.359217,-1225.752797
120.688113,1998.556043,4959.379811,7890.783629
120.688423,-888.247130,2516.700203,9806.022374
120.688732,888.247130,7179.997637,8963.317327
120.689042,-4811.338623,9548.656652,459.657299
120.689351,666.185348,15100.201217,-9039.926876
120.689661,-814.226536,16728.654289,-16011.395908
120.689970,-592.164754,13323.706956,-14862.252661
120.690280,-2368.659014,14508.036463,-3753.867940
120.690589,-1702.473667,8586.388927,1685.410096
120.690899,5181.441594,5477.523971,4136.915689
120.691208,-222.061783,2664.741391,10035.851024
120.691518,-666.185348,1554.432478,14632.424012
120.691828,-1406.391290,6217.729913,6971.469032
120.692137,296.082377,11399.171507,-5898.935335
120.692447,2738.761985,15914.427753,-14249.376263
120.692756,-3182.885551,14063.912898,-16700.881856
120.693066,1332.370696,15322.262999,-12180.918418
120.693375,-3256.906145,11843.295072,-6205.373534
120.693685,-3404.947333,6439.791695,1915.238745
120.693994,1924.535449,6735.874072,10878.556072
120.694304,-74.020594,1480.411884,9806.022374
120.694613,1184.329507,3775.050304,9576.193725
120.694923,-2368.659014,6513.812290,3677.258390
120.695233,2960.823768,10881.027347,-10265.679673
120.695542,2516.700203,15396.283594,-17083.929605
120.695852,-4589.276840,16654.633695,-10189.070123
120.696161,-296.082377,12213.398043,-4443.353888
120.696471,-3330.926739,9474.636058,-5439.278036
120.696780,1850.514855,7402.059420,0.000000
120.697090,-0.000000,2516.700203,11338.213370
120.697399,2146.597232,2664.741391,8044.002729
120.697709,-148.041188,6587.832884,8656.879127
120.698018,-2220.617826,8882.471304,2298.286494
120.698328,6143.709319,14878.139434,-11797.870669
120.698638,296.082377,17098.757260,-16700.881856
120.698947,-2738.761985,17838.963202,-5439.278036
120.699257,-4515.256246,13767.830521,-153.219100
120.699566,-2294.638420,9030.512492,-3753.867940
120.699876,4367.215058,9622.677246,-1685.410096
120.700185,-1110.308913,2368.659014,6205.373534
120.700495,592.164754,3775.050304,11261.603821
120.700804,-3478.967927,8734.430116,7814.174080
120.701114,1332.370696,10436.903782,-766.095498
120.701423,4071.132681,11325.150913,-13023.623466
120.701733,-2590.720797,11991.336260,-12257.527968
120.702043,-3182.885551,11029.068536,-3217.601092
120.702352,-2368.659014,8216.285956,-2528.115143
120.702662,1702.473667,7105.977043,-2221.676944
120.702971,1480.411884,6587.832884,3830.477490
120.703281,-148.041188,1776.494261,10342.289223
120.703590,592.164754,4737.318029,10342.289223
120.703900,-1258.350101,9696.697840,2604.724693
120.704209,2664.741391,13989.892304,-7737.564530
120.704519,592.164754,14582.057057,-11874.480219
120.704828,-1850.514855,11917.315666,-9499.584175
120.705138,-4071.132681,11103.089130,-4366.744339
120.705448,-2294.638420,10658.965565,-4903.011187
120.705757,2368.659014,10807.006753,-612.876398
120.706067,962.267725,5921.647536,7507.735880
120.706376,1998.556043,5551.544565,11721.261119
120.706686,-3330.926739,9918.759623,5362.668486
120.706995,1036.288319,9696.697840,-1532.190996
120.707305,5181.441594,10658.965565,-10955.165621
120.707614,-3256.906145,14359.995275,-10189.070123
120.707924,-2886.803174,14508.036463,-4673.182538
120.708233,1184.329507,12287.418637,-3600.648841
120.708543,2886.803174,7254.018232,-6818.249932
120.708852,-296.082377,5551.544565,3524.039291
120.709162,-2220.617826,3849.070898,10189.070123
120.709472,1406.391290,4441.235652,7354.516781
120.709781,-1702.473667,4885.359217,4060.306139
120.710091,-1628.453072,10732.986159,-1762.019645
120.710400,3108.864956,12361.439231,-13253.452115
120.710710,-2368.659014,11473.192101,-13636.499864
120.711019,-4663.297435,14582.057057,-229.828649
120.711329,-2590.720797,11103.089130,-5056.230287
120.711638,3701.029710,9252.574275,-5515.887586
120.711948,-148.041188,4293.194464,5975.544884
120.712257,-1924.535449,3034.844362,13483.280765
120.712567,-1036.288319,9918.759623,3294.210641
120.712877,1628.453072,8438.347739,-2681.334243
120.713186,3182.885551,11251.130318,-5898.935335
120.713496,-1776.494261,14211.954086,-9806.022374
120.713805,-0.000000,14804.118840,-5209.449386
120.714115,-4441.235652,16654.633695,-6052.154434
120.714424,962.267725,12583.501014,-6511.811733
120.714734,4885.359217,8956.491898,-4136.915689
120.715043,-1554.432478,6735.874072,5822.325785
120.715353,-1110.308913,4737.318029,13406.671215
120.715662,-296.082377,7698.141797,5056.230287
120.715972,2886.803174,7698.141797,-3677.258390
120.716282,740.205942,11177.109724,-7660.954980
120.716591,-2220.617826,9252.574275,-10342.289223
120.716901,-1406.391290,11843.295072,-8656.879127
120.717210,-3627.009116,12953.603985,-4903.011187
120.717520,1998.556043,11029.068536,-3600.648841
120.717829,1480.411884,6661.853478,842.705048
120.718139,592.164754,3182.885551,10035.851024
120.718448,-1332.370696,4515.256246,11491.432470
120.718758,1110.308913,7698.141797,-383.047749
120.719067,3701.029710,11325.150913,-8656.879127
120.719377,-2146.597232,13841.851115,-5745.716235
120.719687,-74.020594,13693.809927,-4136.915689
120.719996,-74.020594,12805.562797,-7584.345430
120.720306,-222.061783,11103.089130,-4749.792088
120.720615,814.226536,8142.265362,2757.943793
120.720925,-0.000000,6587.832884,5439.278036
120.721234,-296.082377,5995.668130,7277.907231
120.721544,-2294.638420,9474.636058,8580.269578
120.721853,2146.597232,10436.903782,-4213.525239
120.722163,4737.318029,13101.645173,-12793.794817
120.722472,-3923.091493,13323.706956,-8886.707777
120.722782,-2072.576638,11917.315666,-3064.381992
120.723092,-1480.411884,11621.233289,-3600.648841
120.723401,3330.926739,8734.430116,-1915.238745
120.723711,148.041188,6883.915261,4060.306139
120.724020,1776.494261,3034.844362,5362.668486
120.724330,-222.061783,2960.823768,5975.544884
120.724639,-4293.194464,8216.285956,4136.915689
120.724949,2812.782580,11991.336260,-7890.783629
120.725258,-1110.308913,13989.892304,-13636.499864
120.725568,-592.164754,12879.583391,-5898.935335
120.725877,-2886.803174,11325.150913,-612.876398
120.726187,-3034.844362,9178.553681,-5286.058936
120.726497,2368.659014,8734.430116,842.705048
120.726806,1628.453072,8438.347739,0.000000
120.727116,370.102971,1332.370696,4519.963438
120.727425,-592.164754,8142.265362,5975.544884
120.727735,-370.102971,12287.418637,2451.505594
120.728044,4441.235652,12361.439231,-7048.078582
120.728354,-2738.761985,16654.633695,-8044.002729
120.728663,-3108.864956,12953.603985,-3677.258390
120.728973,-1480.411884,10140.821405,-5898.935335
120.729282,592.164754,10732.986159,-7354.516781
120.729592,592.164754,10732.986159,1302.362347
120.729902,-222.061783,5477.523971,6894.859482
120.730211,296.082377,4737.318029,5362.668486
120.730521,-740.205942,7846.182985,4596.572988
120.730830,2072.576638,11325.150913,0.000000
120.731140,6217.729913,13249.686362,-12334.137518
120.731449,-2812.782580,11769.274478,-9346.365076
120.731759,-1776.494261,11325.150913,0.000000
120.732068,-4367.215058,6291.750507,-3064.381992
120.732378,2664.741391,9844.739029,-7967.393179
120.732687,-0.000000,6883.915261,3064.381992
120.732997,-1036.288319,6217.729913,5898.935335
120.733307,-222.061783,6809.894666,4749.792088
120.733616,-2146.597232,11547.212695,-1455.581446
120.733926,5477.523971,8290.306550,-4749.792088
120.734235,1628.453072,12509.480420,-12104.308868
120.734545,444.123565,11991.336260,-4826.401637
120.734854,-5625.565159,10732.986159,4519.963438
120.735164,1554.432478,7994.224174,229.828649
120.735473,4737.318029,6217.729913,-1302.362347
120.735783,-370.102971,5477.523971,5822.325785
120.736092,444.123565,6883.915261,6205.373534
120.736402,-3256.906145,7476.080014,536.266849
120.736712,296.082377,13323.706956,-5669.106685
120.737021,4367.215058,15100.201217,-12104.308868
120.737331,-444.123565,13101.645173,-13176.842566
120.737640,-666.185348,12583.501014,-689.485948
120.737950,-1998.556043,9030.512492,4826.401637
120.738259,5033.400406,7624.121203,-1762.019645
120.738569,592.164754,5329.482782,4443.353888
120.738878,-1406.391290,2368.659014,12180.918418
120.739188,-370.102971,5921.647536,5592.497135
120.739497,-444.123565,11325.150913,-3217.601092
120.739807,148.041188,16432.571912,-10648.727422
120.740117,-148.041188,14508.036463,-13636.499864
120.740426,-1554.432478,12953.603985,-8733.488677
120.740736,-1184.329507,11473.192101,-1991.848295
120.741045,-1332.370696,7328.038826,3677.258390
120.741355,2960.823768,5477.523971,4519.963438
120.741664,1480.411884,518.144159,10112.460574
120.741974,-444.123565,4515.256246,11721.261119
120.742283,370.102971,7031.956449,4903.011187
120.742593,2072.576638,11843.295072,-6435.202183
120.742902,2664.741391,14211.954086,-12410.747068
120.743212,-1406.391290,15174.221811,-8886.707777
120.743522,-1554.432478,13915.871710,-3217.601092
120.743831,-4737.318029,12583.501014,-2757.943793
120.744141,1184.329507,9178.553681,-2374.896044
120.744450,1258.350101,2442.679609,4443.353888
120.744760,-1036.288319,6957.935855,8197.221829
120.745069,-296.082377,4515.256246,6894.859482
120.745379,-888.247130,9474.636058,-2145.067394
120.745688,3923.091493,14211.954086,-6741.640382
120.745998,-74.020594,14359.995275,-11491.432470
120.746307,-740.205942,12361.439231,-7737.564530
120.746617,-3256.906145,9474.636058,689.485948
120.746927,296.082377,7772.162391,229.828649
120.747236,2590.720797,4811.338623,76.609550
120.747546,-518.144159,4071.132681,6818.249932
120.747855,592.164754,3849.070898,8963.317327
120.748165,-1776.494261,4737.318029,4290.134789
120.748474,-1036.288319,14359.995275,-5898.935335
120.748784,2368.659014,14211.954086,-10648.727422
120.749093,1924.535449,16580.613101,-12487.356617
120.749403,-74.020594,11399.171507,-6052.154434
120.749712,-2516.700203,9178.553681,1378.971896
120.750022,1258.350101,8068.244768,4673.182538
120.750332,4293.194464,5773.606348,7354.516781
120.750641,740.205942,2664.741391,11261.603821
120.750951,592.164754,5033.400406,9806.022374
120.751260,-2886.803174,9326.594869,-2681.334243
120.751570,1406.391290,14434.015869,-13100.233016
120.751879,1036.288319,16432.571912,-16624.272307
120.752189,-3849.070898,13175.665768,-11951.089769
120.752498,1998.556043,10066.800811,-2911.162892
120.752808,-1776.494261,8734.430116,766.095498
120.753117,2664.741391,4071.132681,6358.592633
120.753427,740.205942,2812.782580,13942.938064
120.753736,740.205942,1554.432478,12257.527968
120.754046,1628.453072,5181.441594,3677.258390
120.754356,444.123565,11547.212695,-6052.154434
120.754665,2442.679609,16506.592507,-14785.643111
120.754975,-2516.700203,15248.242405,-14709.033562
120.755284,-2368.659014,17468.860231,-8656.879127
120.755594,-1702.473667,13249.686362,-4366.744339
120.755903,1036.288319,6809.894666,-1608.800546
120.756213,1628.453072,3775.050304,8656.879127
120.756522,1702.473667,3034.844362,13253.452115
120.756832,4293.194464,3108.864956,9346.365076
120.757141,-1480.411884,7772.162391,4596.572988
120.757451,-0.000000,14582.057057,-4749.792088
120.757760,1850.514855,13545.768739,-13253.452115
120.758070,-1850.514855,16580.613101,-17160.539155
120.758380,-444.123565,15692.365970,-6588.421283
120.758689,-1628.453072,11621.233289,-4979.620737
120.758999,1332.370696,8586.388927,0.000000
120.759308,518.144159,6661.853478,10801.946522
120.759618,2072.576638,1628.453072,14479.204912
120.759927,1332.370696,2368.659014,7814.174080
120.760237,-2960.823768,11177.109724,2604.724693
120.760546,2368.659014,12583.501014,-8120.612279
120.760856,592.164754,13989.892304,-16011.395908
120.761165,-1258.350101,11843.295072,-10342.289223
120.761475,-666.185348,13027.624579,-4749.792088
120.761784,-0.000000,9622.677246,-3294.210641
120.762094,2886.803174,8142.265362,4213.525239
120.762403,-222.061783,4811.338623,14862.252661
120.762713,666.185348,3775.050304,9422.974625
120.763023,814.226536,6291.750507,6052.154434
120.763332,-296.082377,10732.986159,-2221.676944
120.763642,962.267725,13471.748144,-11721.261119
120.763951,-1258.350101,14952.160028,-15628.348159
120.764261,-1628.453072,11029.068536,-7507.735880
120.764570,-666.185348,11177.109724,-5439.278036
120.764880,2220.617826,10214.842000,-459.657299
120.765189,592.164754,6217.729913,9422.974625
120.765499,-1036.288319,4589.276840,13713.109414
120.765808,1628.453072,3330.926739,9346.365076
120.766118,-3182.885551,8660.409521,766.095498
120.766427,1110.308913,11991.336260,-6665.030833
120.766737,-2220.617826,18579.169144,-10955.165621
120.767047,-962.267725,14508.036463,-13789.718964
120.767356,-666.185348,11991.336260,-6435.202183
120.767666,-5699.585753,10955.047942,-1991.848295
120.767975,2516.700203,6587.832884,3140.991542
120.768285,4367.215058,3552.988522,10572.117872
120.768594,1184.329507,2812.782580,11261.603821
120.768904,-1332.370696,2812.782580,12180.918418
120.769213,814.226536,8882.471304,1991.848295
120.769523,-740.205942,14285.974681,-12563.966167
120.769832,222.061783,18061.024985,-17390.367805
120.770142,-2072.576638,12583.501014,-10342.289223
120.770451,-1702.473667,13619.789333,-7967.393179
120.770761,-518.144159,10362.883188,-4136.915689
120.771070,3627.009116,9030.512492,6588.421283
120.771380,2072.576638,2294.638420,12104.308868
120.771690,666.185348,962.267725,14096.157163
120.771999,-2072.576638,6957.935855,10418.898773
120.772309,1924.535449,9696.697840,-3907.087040
120.772618,3627.009116,14582.057057,-17160.539155
120.772928,-3256.906145,14359.995275,-12793.794817
120.773237,-1924.535449,14730.098246,-6971.469032
120.773547,-3256.906145,15174.221811,-8044.002729
120.773856,1924.535449,9400.615463,-3677.258390
120.774166,962.267725,7031.956449,7737.564530
120.774475,3552.988522,1184.329507,10342.289223
120.774785,-1554.432478,4145.153275,8427.050478
120.775094,-592.164754,7254.018232,5745.716235
120.775404,2812.782580,10214.842000,-7431.126331
120.775714,-444.123565,16432.571912,-15475.129060
120.776023,-222.061783,12287.418637,-8886.707777
120.776333,-5477.523971,10214.842000,-5439.278036
120.776642,-1850.514855,9400.615463,-7124.688131
120.776952,3923.091493,8734.430116,0.000000
120.777261,1998.556043,4589.276840,7507.735880
120.777571,-0.000000,-592.164754,11414.822920
120.777880,-4441.235652,7254.018232,10189.070123
120.778190,666.185348,11547.212695,-2451.505594
120.778499,2516.700203,14211.954086,-11644.651570
120.778809,-222.061783,17320.819043,-13253.452115
120.779118,-2294.638420,16580.613101,-9806.022374
120.779428,-2590.720797,13249.686362,-8427.050478
120.779737,370.102971,12139.377449,-3217.601092
120.780047,3478.967927,7772.162391,4673.182538
120.780357,2590.720797,1258.350101,9806.022374
120.780666,-3627.009116,-1776.494261,14325.985813
120.780976,-2220.617826,7402.059420,10725.336972
120.781285,2442.679609,9474.636058,-4060.306139
120.781595,1184.329507,15544.324782,-13406.671215
120.781904,-1480.411884,11917.315666,-10801.946522
120.782214,-6439.791695,11177.109724,-7354.516781
120.782523,370.102971,14063.912898,-7277.907231
120.782833,2368.659014,9326.594869,-3830.477490
120.783142,1776.494261,6143.709319,5669.106685
120.783452,-74.020594,2146.597232,13636.499864
120.783761,-444.123565,5033.400406,7737.564530
120.784071,-370.102971,9548.656652,2451.505594
120.784381,3552.988522,12139.377449,-5515.887586
120.784690,222.061783,14508.036463,-12640.575717
120.785000,-1776.494261,14434.015869,-11414.822920
120.785309,-962.267725,12287.418637,-8350.440928
120.785619,-1110.308913,11103.089130,-6894.859482
120.785928,1776.494261,9474.636058,-459.657299
120.786238,222.061783,4515.256246,10955.165621
120.786547,370.102971,3997.112087,12410.747068
120.786857,-1628.453072,7328.038826,5975.544884
120.787166,4515.256246,8290.306550,-1991.848295
120.787476,-518.144159,14285.974681,-6741.640382
120.787785,1554.432478,16876.695478,-8120.612279
120.788095,-4515.256246,13027.624579,-6052.154434
120.788404,-814.226536,14211.954086,-7431.126331
120.788714,2368.659014,10436.903782,-4519.963438
120.789024,1480.411884,7402.059420,1762.019645
120.789333,-888.247130,3478.967927,9269.755526
120.789643,-1480.411884,3182.885551,9806.022374
120.789952,444.123565,7698.141797,2068.457845
120.790262,2516.700203,8956.491898,-4673.182538
120.790571,814.226536,12509.480420,-6741.640382
120.790881,-74.020594,10807.006753,-5439.278036
120.791190,-3552.988522,13101.645173,-6128.763984
120.791500,-0.000000,8956.491898,-5132.839837
120.791809,1850.514855,8586.388927,-3064.381992
120.792119,-296.082377,5847.626942,3524.039291
120.792428,-1628.453072,4219.173869,8886.707777
120.792738,666.185348,6883.915261,3294.210641
120.793048,2146.597232,9400.615463,-2068.457845
120.793357,592.164754,16654.633695,-4826.401637
120.793667,888.247130,12509.480420,-5975.544884
120.793976,518.144159,10214.842000,-7584.345430
120.794286,-4441.235652,11695.253884,-4213.525239
120.794595,1332.370696,9326.594869,-536.266849
120.794905,1480.411884,8068.244768,306.438199
120.795214,-148.041188,4737.318029,536.266849
120.795524,-1554.432478,6513.812290,6205.373534
120.795833,74.020594,8068.244768,1685.410096
120.796143,740.205942,12139.377449,-6358.592633
120.796452,148.041188,11991.336260,-6511.811733
120.796762,1776.494261,10140.821405,-6894.859482
120.797071,-2664.741391,11325.150913,-6281.983084
120.797381,-2442.679609,8068.244768,-2221.676944
120.797691,-1406.391290,7105.977043,2068.457845
120.798000,518.144159,9030.512492,1225.752797
120.798310,4145.153275,4145.153275,3370.820191
120.798619,-1850.514855,7179.997637,4903.011187
120.798929,-0.000000,9992.780217,-459.657299
120.799238,962.267725,10658.965565,-6511.811733
120.799548,-0.000000,11399.171507,-6358.592633
120.799857,-1184.329507,8956.491898,-4826.401637
120.800167,-2812.782580,11547.212695,-4596.572988
120.800476,962.267725,10140.821405,-2451.505594
120.800786,740.205942,9400.615463,306.438199
120.801095,-0.000000,3256.906145,3140.991542
120.801405,-1036.288319,9252.574275,5975.544884
120.801715,-740.205942,9992.780217,1378.971896
120.802024,1628.453072,9474.636058,-4213.525239
120.802334,666.185348,14656.077652,-6128.763984
120.802643,148.041188,11991.336260,-3370.820191
120.802953,-1998.556043,14804.118840,-4596.572988
120.803262,-2442.679609,10584.944971,-2221.676944
120.803572,370.102971,10955.047942,-689.485948
120.803881,-2220.617826,7254.018232,-4826.401637
120.804191,3108.864956,4515.256246,0.000000
120.804500,-2590.720797,4293.194464,2757.943793
120.804810,-1184.329507,8364.327145,2221.676944
120.805119,888.247130,13841.851115,-3830.477490
120.805429,962.267725,10658.965565,-6588.421283
120.805738,4367.215058,10214.842000,-3830.477490
120.806048,-4663.297435,8068.244768,229.828649
120.806358,-1480.411884,9474.636058,-1302.362347
120.806667,2368.659014,8290.306550,3370.820191
120.806977,814.226536,5995.668130,229.828649
120.807286,1110.308913,6661.853478,1378.971896
120.807596,-4441.235652,9474.636058,1455.581446
120.807905,1258.350101,14582.057057,-2451.505594
120.808215,-814.226536,12583.501014,-2987.772442
120.808524,2220.617826,11843.295072,-7814.174080
120.808834,-1850.514855,11473.192101,-2145.067394
120.809143,1036.288319,9400.615463,612.876398
120.809453,1258.350101,7105.977043,2451.505594
120.809762,1702.473667,7476.080014,5132.839837
120.810072,1184.329507,6217.729913,5056.230287
120.810382,-2368.659014,7105.977043,2834.553343
120.810691,-1924.535449,12509.480420,-2298.286494
120.811001,3256.906145,15544.324782,-12563.966167
120.811310,1332.370696,12139.377449,-10572.117872
120.811620,592.164754,11621.233289,-6052.154434
120.811929,-5551.544565,8068.244768,-2451.505594
120.812239,-1480.411884,7328.038826,2068.457845
120.812548,-1332.370696,4737.318029,5822.325785
120.812858,4219.173869,2812.782580,4443.353888
120.813167,666.185348,5477.523971,5822.325785
120.813477,-3404.947333,6217.729913,3907.087040
120.813786,-592.164754,9992.780217,-6205.373534
120.814096,2368.659014,14434.015869,-12104.308868
120.814405,666.185348,12139.377449,-11951.089769
120.814715,444.123565,12879.583391,-5286.058936
120.815025,-2738.761985,11473.192101,-1302.362347
120.815334,2146.597232,6661.853478,3983.696590
120.815644,1554.432478,5847.626942,5669.106685
120.815953,4145.153275,5329.482782,6894.859482
120.816263,-2886.803174,4811.338623,5515.887586
120.816572,-1036.288319,10881.027347,3140.991542
120.816882,-0.000000,15248.242405,-7048.078582
120.817191,3552.988522,13101.645173,-13713.109414
120.817501,666.185348,14508.036463,-9269.755526
120.817810,-3034.844362,12879.583391,-3140.991542
120.818120,-1924.535449,6957.935855,3064.381992
120.818429,1850.514855,11325.150913,5209.449386
120.818739,962.267725,5255.462188,6741.640382
120.819049,888.247130,2590.720797,5132.839837
120.819358,-3775.050304,6883.915261,4213.525239
120.819668,-1776.494261,10362.883188,-4136.915689
120.819977,2294.638420,14211.954086,-13789.718964
120.820287,1850.514855,11325.150913,-13253.452115
120.820596,-1258.350101,11843.295072,-2911.162892
120.820906,-4293.194464,12287.418637,383.047749
120.821215,-1258.350101,7994.224174,1915.238745
120.821525,1998.556043,5551.544565,5362.668486
120.821834,1850.514855,2960.823768,6052.154434
120.822144,-518.144159,2738.761985,4213.525239
120.822453,-2886.803174,7402.059420,3064.381992
120.822763,2368.659014,14211.954086,-8580.269578
120.823072,-740.205942,15026.180623,-15168.690860
120.823382,2368.659014,16284.530724,-8197.221829
120.823692,-3404.947333,11473.192101,-2068.457845
120.824001,740.205942,9400.615463,1685.410096
120.824311,3034.844362,11621.233289,5515.887586
120.824620,888.247130,6439.791695,7354.516781
120.824930,3182.885551,4441.235652,4366.744339
120.825239,-3034.844362,5181.441594,3600.648841
120.825549,-1776.494261,14582.057057,-3064.381992
120.825858,1184.329507,12953.603985,-12563.966167
120.826168,-1036.288319,13323.706956,-12334.137518
120.826477,-0.000000,14137.933492,-5286.058936
120.826787,-3256.906145,5699.585753,-2374.896044
120.827096,-0.000000,7476.080014,3370.820191
120.827406,1110.308913,4959.379811,7048.078582
120.827716,3478.967927,3034.844362,5286.058936
120.828025,-1110.308913,1924.535449,0.000000
120.828335,-4367.215058,6365.771101,1991.848295
120.828644,-1036.288319,12731.542202,-4366.744339
120.828954,-222.061783,17616.901420,-14555.814462
120.829263,1184.329507,14063.912898,-12563.966167
120.829573,-3256.906145,10140.821405,-7890.783629
120.829882,-740.205942,8882.471304,-2451.505594
120.830192,888.247130,7994.224174,2528.115143
120.830501,2516.700203,3849.070898,8810.098227
120.830811,2220.617826,1628.453072,10035.851024
120.831120,-1850.514855,7105.977043,6818.249932
120.831430,-444.123565,11695.253884,1532.190996
120.831739,-888.247130,16062.468941,-9882.631924
120.832049,4071.132681,17838.963202,-15475.129060
120.832359,-148.041188,12583.501014,-8197.221829
120.832668,-2960.823768,11843.295072,-5056.230287
120.832978,1554.432478,9400.615463,-995.924147
120.833287,444.123565,6587.832884,3524.039291
120.833597,2664.741391,4293.194464,10878.556072
120.833906,1036.288319,-1628.453072,11644.651570
120.834216,-4737.318029,7031.956449,5439.278036
120.834525,1776.494261,9992.780217,-1532.190996
120.834835,1184.329507,12879.583391,-12334.137518
120.835144,370.102971,14434.015869,-14862.252661
120.835454,-2442.679609,10732.986159,-8197.221829
120.835763,-4441.235652,9104.533087,-2604.724693
120.836073,370.102971,8586.388927,1225.752797
120.836383,296.082377,7179.997637,5209.449386
120.836692,3108.864956,8068.244768,8197.221829
120.837002,-1924.535449,3849.070898,6971.469032
120.837311,-740.205942,8660.409521,2298.286494
120.837621,-0.000000,13175.665768,-6511.811733
120.837930,1554.432478,13323.706956,-12334.137518
120.838240,-1776.494261,11621.233289,-8733.488677
120.838549,-2072.576638,11769.274478,-6128.763984
120.838859,592.164754,10584.944971,-995.924147
120.839168,2294.638420,5773.606348,4826.401637
120.839478,5107.421000,7846.182985,2374.896044
120.839787,1332.370696,5773.606348,8427.050478
120.840097,-3404.947333,6809.894666,5975.544884
120.840406,370.102971,10362.883188,-1838.629195
120.840716,1184.329507,15618.345376,-14172.766713
120.841026,592.164754,14434.015869,-15475.129060
120.841335,-1036.288319,13249.686362,-8273.831378
120.841645,-1628.453072,12139.377449,-3140.991542
120.841954,-148.041188,10140.821405,1149.143247
120.842264,1702.473667,5921.647536,7201.297681
120.842573,4811.338623,-0.000000,11797.870669
120.842883,-1776.494261,740.205942,7354.516781
120.843192,-4811.338623,5107.421000,5132.839837
120.843502,-74.020594,11473.192101,-5132.839837
120.843811,-1332.370696,13545.768739,-12870.404366
120.844121,1776.494261,15692.365970,-15551.738609
120.844430,-1850.514855,10732.986159,-8580.269578
120.844740,-5329.482782,10510.924376,-1072.533697
120.845050,2738.761985,9992.780217,4366.744339
120.845359,4737.318029,2220.617826,5822.325785
120.845669,4071.132681,-148.041188,9806.022374
120.845978,-2516.700203,4219.173869,11874.480219
120.846288,-2220.617826,11473.192101,3524.039291
120.846597,2294.638420,14359.995275,-11797.870669
120.846907,1998.556043,16950.716072,-15321.909960
120.847216,-1554.432478,16210.510130,-10342.289223
120.847526,-3701.029710,13471.748144,-7507.735880
120.847835,-814.226536,11917.315666,-3753.867940
120.848145,-518.144159,7254.018232,5975.544884
120.848454,2590.720797,1258.350101,8350.440928
120.848764,-296.082377,740.205942,11721.261119
120.849073,-2368.659014,6883.915261,10878.556072
120.849383,1036.288319,13175.665768,-383.047749
120.849693,3108.864956,14137.933492,-15168.690860
120.850002,2664.741391,11843.295072,-13483.280765
120.850312,-3627.009116,10510.924376,-8044.002729
120.850621,-5773.606348,10214.842000,-2681.334243
120.850931,-4663.297435,10362.883188,-919.314598
120.851240,4589.276840,4367.215058,2451.505594
120.851550,2664.741391,888.247130,7890.783629
120.851859,-4071.132681,3108.864956,11031.775171
120.852169,-1776.494261,7624.121203,6665.030833
120.852478,2516.700203,15988.448347,-4519.963438
120.852788,2590.720797,13841.851115,-12487.356617
120.853097,-2738.761985,13693.809927,-7354.516781
120.853407,-3627.009116,15026.180623,-5898.935335
120.853716,-518.144159,12953.603985,-3830.477490
120.854026,3034.844362,11473.192101,-1685.410096
120.854335,4589.276840,6143.709319,4519.963438
120.854645,-1406.391290,2516.700203,8810.098227
120.854954,-3552.988522,4589.276840,11031.775171
120.855264,518.144159,10140.821405,1302.362347
120.855573,3849.070898,11473.192101,-8350.440928
120.855883,3849.070898,13397.727550,-11951.089769
120.856192,-4737.318029,12435.459826,-9039.926876
120.856501,-1332.370696,12287.418637,-5745.716235
120.856811,-0.000000,11325.150913,-2298.286494
120.857120,4071.132681,6809.894666,766.095498
120.857430,2960.823768,5403.503377,8197.221829
120.857739,-3256.906145,2072.576638,11951.089769
120.858049,-1776.494261,6661.853478,12257.527968
120.858358,962.267725,11621.233289,-4213.525239
120.858668,2294.638420,10955.047942,-15858.176809
120.858977,444.123565,15026.180623,-12027.699319
120.859287,-6661.853478,10584.944971,-6971.469032
120.859596,-148.041188,15470.304188,-4290.134789
120.859906,1554.432478,10436.903782,-2604.724693
120.860215,4071.132681,3849.070898,3677.258390
120.860525,-0.000000,3997.112087,12027.699319
120.860834,-3108.864956,4145.153275,11874.480219
120.861144,-962.267725,7105.977043,3753.867940
120.861453,4811.338623,11843.295072,-7890.783629
120.861763,3182.885551,12583.501014,-11414.822920
120.862072,-5107.421000,14878.139434,-6588.421283
120.862381,-2368.659014,17024.736666,-4060.306139
120.862691,1036.288319,12879.583391,-8503.660028
120.863000,4589.276840,10362.883188,-6052.154434
120.863310,3034.844362,6069.688724,4903.011187
120.863619,-3701.029710,1998.556043,10878.556072
120.863929,1776.494261,4811.338623,8886.707777
120.864238,2368.659014,10140.821405,1149.143247
120.864548,1036.288319,11473.192101,-5822.325785
120.864857,4219.173869,10140.821405,-6894.859482
120.865167,-7846.182985,10288.862594,-9959.241474
120.865476,-74.020594,12435.459826,-6128.763984
120.865786,-592.164754,9548.656652,-4979.620737
120.866095,2442.679609,6291.750507,-383.047749
120.866405,1924.535449,5255.462188,7354.516781
120.866714,-6143.709319,4367.215058,11338.213370
120.867024,-74.020594,8808.450710,7737.564530
120.867333,1554.432478,11843.295072,-3447.429741
120.867643,2442.679609,10658.965565,-9422.974625
120.867952,-1332.370696,10362.883188,-5362.668486
120.868261,-3923.091493,13841.851115,-7201.297681
120.868571,2072.576638,13101.645173,-6128.763984
120.868880,888.247130,8882.471304,-536.266849
120.869190,1184.329507,4663.297435,5209.449386
120.869499,444.123565,6291.750507,8197.221829
120.869809,-0.000000,4071.132681,7277.907231
120.870118,-1702.473667,10807.006753,383.047749
120.870428,3627.009116,13175.665768,-7660.954980
120.870737,1998.556043,12805.562797,-10572.117872
120.871047,-1036.288319,12583.501014,-6052.154434
120.871356,-1110.308913,12435.459826,-2145.067394
120.871666,592.164754,12287.418637,-3217.601092
120.871975,3997.112087,7254.018232,0.000000
120.872285,2516.700203,4959.379811,7890.783629
120.872594,-3627.009116,962.267725,8044.002729
120.872904,-74.020594,8364.327145,5286.058936
120.873213,1036.288319,12287.418637,-5669.106685
120.873523,3256.906145,10955.047942,-10418.898773
120.873832,-1702.473667,13915.871710,-9346.365076
120.874141,-7179.997637,10658.965565,-4903.011187
120.874451,-0.000000,12731.542202,-2068.457845
120.874760,1850.514855,7179.997637,-1378.971896
120.875070,2960.823768,5477.523971,3140.991542
120.875379,-666.185348,3997.112087,8733.488677
120.875689,-3552.988522,2960.823768,6435.202183
120.875998,1184.329507,12361.439231,229.828649
120.876308,962.267725,12657.521608,-6435.202183
120.876617,1702.473667,15692.365970,-9882.631924
120.876927,-74.020594,14804.118840,-7354.516781
120.877236,-1850.514855,11103.089130,-8350.440928
120.877546,-518.144159,10955.047942,-3524.039291
120.877855,2220.617826,7550.100608,0.000000
120.878165,888.247130,3330.926739,4979.620737
120.878474,-518.144159,2886.803174,9806.022374
120.878784,-3404.947333,7846.182985,10801.946522
120.879093,3182.885551,9918.759623,-1149.143247
120.879403,4071.132681,12657.521608,-14555.814462
120.879712,-296.082377,12657.521608,-8810.098227
120.880021,-2294.638420,10732.986159,-6818.249932
120.880331,-3182.885551,13249.686362,-4903.011187
120.880640,592.164754,14211.954086,-4443.353888
120.880950,2072.576638,6143.709319,3447.429741
120.881259,2738.761985,3627.009116,6052.154434
120.881569,-4663.297435,3997.112087,9806.022374
120.881878,-1480.411884,7772.162391,5592.497135
120.882188,2886.803174,9326.594869,-6741.640382
120.882497,2442.679609,13101.645173,-9499.584175
120.882807,-222.061783,14211.954086,-6588.421283
120.883116,-2368.659014,8660.409521,-3753.867940
120.883426,-296.082377,12731.542202,995.924147
120.883735,1702.473667,9178.553681,919.314598
120.884045,962.267725,4367.215058,2911.162892
120.884354,-222.061783,3478.967927,5439.278036
120.884664,-5403.503377,8290.306550,5056.230287
120.884973,1036.288319,15618.345376,-4596.572988
120.885283,-444.123565,14359.995275,-12870.404366
120.885592,2294.638420,12657.521608,-9269.755526
120.885901,-2072.576638,11769.274478,-4290.134789
120.886211,-2072.576638,8808.450710,612.876398
120.886520,1406.391290,9844.739029,1685.410096
120.886830,3108.864956,5033.400406,3600.648841
120.887139,4071.132681,1850.514855,4903.011187
120.887449,-4441.235652,1184.329507,8044.002729
120.887758,-3256.906145,11473.192101,4903.011187
120.888068,2960.823768,13249.686362,-6511.811733
120.888377,3478.967927,13101.645173,-14938.862211
120.888687,148.041188,15840.407159,-7814.174080
120.888996,-5847.626942,14285.974681,-3524.039291
120.889306,962.267725,13397.727550,-995.924147
120.889615,888.247130,6809.894666,1838.629195
120.889925,2886.803174,5107.421000,5132.839837
120.890234,-1628.453072,2442.679609,9116.536426
120.890544,-5773.606348,3849.070898,9116.536426
120.890853,2368.659014,14137.933492,229.828649
120.891163,4515.256246,14063.912898,-15858.176809
120.891472,1850.514855,12805.562797,-11031.775171
120.891781,-5403.503377,11917.315666,-2221.676944
120.892091,-4071.132681,8586.388927,-2987.772442
120.892400,2738.761985,8290.306550,-3830.477490
120.892710,2886.803174,2812.782580,4596.572988
120.893019,3404.947333,1036.288319,8733.488677
120.893329,-5625.565159,5551.544565,6665.030833
120.893638,-3182.885551,8142.265362,4903.011187
120.893948,3108.864956,13175.665768,-6588.421283
120.894257,6661.853478,14063.912898,-15704.957709
120.894567,-1480.411884,14508.036463,-9729.412825
120.894876,-3330.926739,12139.377449,-2528.115143
120.895186,-1628.453072,10732.986159,-2451.505594
120.895495,3627.009116,9474.636058,-536.266849
120.895805,4071.132681,4737.318029,6818.249932
120.896114,-0.000000,2812.782580,8733.488677
120.896424,-7328.038826,7254.018232,5056.230287
120.896733,2516.700203,10362.883188,-4443.353888
120.897043,5847.626942,8216.285956,-14249.376263
120.897352,-814.226536,15840.407159,-12640.575717
120.897661,-3182.885551,15470.304188,-5515.887586
120.897971,-1702.473667,7994.224174,-5056.230287
120.898280,4071.132681,12583.501014,766.095498
120.898590,1332.370696,5551.544565,7967.393179
120.898899,1924.535449,3775.050304,11338.213370
120.899209,-4959.379811,3849.070898,8656.879127
120.899518,-3775.050304,8290.306550,0.000000
120.899828,4663.297435,16432.571912,-13253.452115
120.900137,-74.020594,14508.036463,-19075.777900
120.900447,-2442.679609,16432.571912,-8963.317327
120.900756,-2220.617826,13249.686362,-3983.696590
120.901066,-1406.391290,9474.636058,-1455.581446
120.901375,3923.091493,7328.038826,5822.325785
120.901685,3256.906145,888.247130,11031.775171
120.901994,2590.720797,-962.267725,8350.440928
120.902304,-5551.544565,1332.370696,11261.603821
120.902613,-2590.720797,12361.439231,1915.238745
120.902923,4071.132681,17616.901420,-15704.957709
120.903232,518.144159,15396.283594,-17696.806004
120.903542,-4663.297435,17172.777854,-11184.994271
120.903851,-2368.659014,12361.439231,-6665.030833
120.904160,1924.535449,8586.388927,-1915.238745
120.904470,2516.700203,3034.844362,5592.497135
120.904779,3404.947333,2442.679609,13406.671215
120.905089,-0.000000,2516.700203,17390.367805
120.905398,-4589.276840,3627.009116,9729.412825
120.905708,3923.091493,16136.489536,-3524.039291
120.906017,222.061783,13989.892304,-15168.690860
120.906327,-1776.494261,16580.613101,-13866.328514
120.906636,-2664.741391,16210.510130,-5898.935335
120.906946,-1776.494261,14211.954086,-8580.269578
120.907255,1480.411884,12953.603985,-536.266849
120.907565,2664.741391,5551.544565,7584.345430
120.907874,1628.453072,666.185348,11874.480219
120.908184,-1924.535449,-1850.514855,15092.081311
120.908493,-3404.947333,7402.059420,8733.488677
120.908803,3923.091493,12953.603985,-8733.488677
120.909112,1332.370696,11325.150913,-15168.690860
120.909422,-4589.276840,16876.695478,-18692.730151
120.909731,-2294.638420,11621.233289,-12793.794817
120.910040,-518.144159,11029.068536,-5669.106685
120.910350,2516.700203,9474.636058,4903.011187
120.910659,1702.473667,4589.276840,10342.289223
120.910969,-0.000000,1036.288319,10265.679673
120.911278,-3923.091493,2442.679609,12334.137518
120.911588,-2220.617826,10214.842000,1762.019645
120.911897,2294.638420,13027.624579,-13789.718964
120.912207,592.164754,14359.995275,-17237.148705
120.912516,-2738.761985,16580.613101,-12257.527968
120.912826,-2960.823768,15470.304188,-5286.058936
120.913135,1258.350101,14285.974681,-3140.991542
120.913445,4145.153275,7031.956449,4519.963438
120.913754,4811.338623,2812.782580,9806.022374
120.914064,-4885.359217,-370.102971,14325.985813
120.914373,-3256.906145,5403.503377,8580.269578
120.914683,3182.885551,9548.656652,-7507.735880
120.914992,666.185348,13397.727550,-17160.539155
120.915302,-1110.308913,16284.530724,-14709.033562
120.915611,-4071.132681,11547.212695,-8733.488677
120.915920,-2368.659014,13101.645173,-5132.839837
120.916230,3849.070898,9770.718434,995.924147
120.916539,4515.256246,740.205942,5669.106685
120.916849,1406.391290,2812.782580,9959.241474
120.917158,-5477.523971,1998.556043,14709.033562
120.917468,-2442.679609,9992.780217,5822.325785
120.917777,4145.153275,13841.851115,-14019.547613
120.918087,-962.267725,20429.683999,-18845.949251
120.918396,-666.185348,15544.324782,-11951.089769
120.918706,-6069.688724,10807.006753,-7737.564530
120.919015,-0.000000,12805.562797,-4979.620737
120.919325,5625.565159,4885.359217,1685.410096
120.919634,4589.276840,-0.000000,11031.775171
120.919944,-1850.514855,3330.926739,17237.148705
120.920253,-4885.359217,1628.453072,15628.348159
120.920563,1406.391290,13693.809927,-2068.457845
120.920872,5699.585753,13249.686362,-20454.749797
120.921182,-0.000000,18431.127956,-17773.415554
120.921491,-4811.338623,16136.489536,-12257.527968
120.921800,-6365.771101,15618.345376,-7507.735880
120.922110,1110.308913,12657.521608,-3830.477490
120.922419,6439.791695,5921.647536,1149.143247
120.922729,1776.494261,3330.926739,13406.671215
120.923038,-5107.421000,1332.370696,19612.044749
120.923348,2960.823768,7920.203579,7277.907231
120.923657,4811.338623,8956.491898,-9499.584175
120.923967,-0.000000,11843.295072,-9269.755526
120.924276,-4441.235652,14508.036463,-8427.050478
120.924586,-3923.091493,13693.809927,-13942.938064
120.924895,-518.144159,12657.521608,-7277.907231
120.925205,5699.585753,8438.347739,-2911.162892
120.925514,3775.050304,3478.967927,2834.553343
120.925824,-3182.885551,1776.494261,14479.204912
120.926133,-6217.729913,3923.091493,19075.777900
120.926443,2146.597232,12879.583391,-459.657299
120.926752,7402.059420,12065.356855,-14709.033562
120.927062,222.061783,13545.768739,-10495.508323
120.927371,-6735.874072,15988.448347,-8886.707777
120.927680,-3627.009116,14952.160028,-9116.536426
120.927990,5329.482782,13027.624579,-8886.707777
120.928299,4737.318029,5107.421000,-459.657299
120.928609,666.185348,6513.812290,12104.308868
120.928918,-4293.194464,3627.009116,17160.539155
120.929228,-0.000000,3330.926739,9346.365076
120.929537,5329.482782,15840.407159,-10112.460574
120.929847,2812.782580,10140.821405,-11644.651570
120.930156,-3552.988522,12879.583391,-8350.440928
120.930466,-6513.812290,13101.645173,-7048.078582
120.930775,-2294.638420,13249.686362,-5745.716235
120.931085,9030.512492,8808.450710,-8503.660028
120.931394,1924.535449,3478.967927,2528.115143
120.931704,-2812.782580,5477.523971,14938.862211
120.932013,-5403.503377,1554.432478,17390.367805
120.932323,4367.215058,7179.997637,2834.553343
120.932632,4293.194464,9770.718434,-9422.974625
120.932942,-2886.803174,14285.974681,-5745.716235
120.933251,-3478.967927,14434.015869,-7354.516781
120.933560,-5477.523971,11547.212695,-11644.651570
120.933870,2812.782580,12509.480420,-10878.556072
120.934179,1924.535449,6069.688724,-4519.963438
120.934489,-0.000000,4219.173869,5439.278036
120.934798,-2886.803174,1702.473667,15704.957709
120.935108,-0.000000,5847.626942,15704.957709
120.935417,5551.544565,13545.768739,-1072.533697
120.935727,1332.370696,9030.512492,-5975.544884
120.936036,-2590.720797,13397.727550,-5209.449386
120.936346,-4737.318029,10510.924376,-10495.508323
120.936655,-1406.391290,16876.695478,-14709.033562
120.936965,7476.080014,17246.798449,-11414.822920
120.937274,592.164754,6439.791695,-1838.629195
120.937584,-1332.370696,5995.668130,11951.089769
120.937893,-4663.297435,3552.988522,17696.806004
120.938203,3775.050304,5625.565159,6205.373534
120.938512,5477.523971,7550.100608,-5515.887586
120.938822,-2146.597232,10658.965565,-5209.449386
120.939131,-4145.153275,12361.439231,-5898.935335
120.939440,-4737.318029,15544.324782,-10878.556072
120.939750,3108.864956,15692.365970,-12487.356617
120.940059,2294.638420,8438.347739,-6205.373534
120.940369,-2368.659014,6143.709319,6665.030833
120.940678,-370.102971,4811.338623,11414.822920
120.940988,-2294.638420,1776.494261,10955.165621
120.941297,3330.926739,8068.244768,2604.724693
120.941607,-0.000000,7624.121203,-4519.963438
120.941916,888.247130,11103.089130,-6435.202183
120.942226,-5477.523971,12509.480420,-9652.803275
120.942535,-1554.432478,15988.448347,-9116.536426
120.942845,4293.194464,13989.892304,-9806.022374
120.943154,-148.041188,6587.832884,995.924147
120.943464,-740.205942,8364.327145,7584.345430
120.943773,-3108.864956,2886.803174,7124.688131
120.944083,296.082377,7994.224174,5822.325785
120.944392,3849.070898,12287.418637,-2451.505594
120.944702,962.267725,9696.697840,-7737.564530
120.945011,1184.329507,14285.974681,-6971.469032
120.945320,-6735.874072,11621.233289,-2528.115143
120.945630,2072.576638,14656.077652,-6665.030833
120.945939,3552.988522,9770.718434,-9269.755526
120.946249,-1776.494261,6809.894666,2834.553343
120.946558,296.082377,5107.421000,5286.058936
120.946868,-2146.597232,1554.432478,5439.278036
120.947177,2146.597232,8216.285956,459.657299
120.947487,962.267725,7402.059420,-1991.848295
120.947796,-1332.370696,12509.480420,-4596.572988
120.948106,-518.144159,11547.212695,-4673.182538
120.948415,-4293.194464,10510.924376,-3830.477490
120.948725,4145.153275,12065.356855,-9806.022374
120.949034,444.123565,1776.494261,-4826.401637
120.949344,-2516.700203,7550.100608,5515.887586
120.949653,-2960.823768,5699.585753,8733.488677
120.949963,1406.391290,9622.677246,5439.278036
120.950272,4737.318029,12213.398043,-612.876398
120.950582,-1258.350101,9548.656652,-1991.848295
120.950891,-0.000000,15100.201217,-5898.935335
120.951200,-4515.256246,11399.171507,-5898.935335
120.951510,1110.308913,14285.974681,-7967.393179
120.951819,3330.926739,9992.780217,-9346.365076
120.952129,-1184.329507,7994.224174,-612.876398
120.952438,-1332.370696,7698.141797,6971.469032
120.952748,-2886.803174,6735.874072,8580.269578
120.953057,2220.617826,10288.862594,2528.115143
120.953367,5921.647536,8882.471304,-3217.601092
120.953676,-1480.411884,11251.130318,-1685.410096
120.953986,-2960.823768,11917.315666,-4136.915689
120.954295,-4663.297435,8586.388927,-2451.505594
120.954605,2368.659014,10288.862594,-7277.907231
120.954914,1628.453072,6513.812290,-6665.030833
120.955224,1702.473667,4589.276840,2911.162892
120.955533,-3404.947333,3849.070898,7507.735880
120.955843,-4071.132681,3552.988522,6588.421283
120.956153,5107.421000,11251.130318,-3753.867940
120.956462,296.082377,8512.368333,-5056.230287
120.956772,962.267725,13027.624579,-2604.724693
120.957081,-4441.235652,11547.212695,-1532.190996
120.957391,-222.061783,10362.883188,-2451.505594
120.957700,5477.523971,12361.439231,-7354.516781
120.958010,-2664.741391,7550.100608,-2451.505594
120.958320,592.164754,9548.656652,5515.887586
120.958629,-5033.400406,5107.421000,6205.373534
120.958939,1036.288319,13545.768739,-919.314598
120.959248,4293.194464,12213.398043,-8350.440928
120.959558,-0.000000,11177.109724,-6588.421283
120.959867,-222.061783,14137.933492,-4519.963438
120.960177,-3701.029710,10658.965565,-919.314598
120.960487,4515.256246,12361.439231,-3983.696590
120.960796,962.267725,9844.739029,-1685.410096
120.961106,1110.308913,6883.915261,6511.811733
120.961415,-3330.926739,3108.864956,8120.612279
120.961725,-3552.988522,2886.803174,7124.688131
120.962034,5033.400406,12583.501014,-5056.230287
120.962344,74.020594,12287.418637,-11031.775171
120.962654,-666.185348,11843.295072,-5975.544884
120.962963,-3701.029710,9326.594869,-919.314598
120.963273,-1998.556043,12583.501014,-1225.752797
120.963582,5033.400406,11103.089130,-5898.935335
120.963892,1036.288319,2220.617826,2221.676944
120.964201,-1850.514855,4367.215058,9729.412825
120.964511,-6513.812290,5995.668130,9806.022374
120.964820,1184.329507,9474.636058,-842.705048
120.965130,4515.256246,14508.036463,-12257.527968
120.965440,-222.061783,14582.057057,-9193.145976
120.965749,-814.226536,14656.077652,-4673.182538
120.966059,-3627.009116,13989.892304,-2298.286494
120.966368,4441.235652,12139.377449,-4826.401637
120.966678,3552.988522,6883.915261,-3064.381992
120.966987,888.247130,3701.029710,8350.440928
120.967297,-3330.926739,3849.070898,10648.727422
120.967607,-3404.947333,3923.091493,7431.126331
120.967916,4441.235652,11843.295072,-5209.449386
120.968226,3108.864956,10658.965565,-13023.623466
120.968535,-3108.864956,15026.180623,-6741.640382
120.968845,-4293.194464,13397.727550,-3140.991542
120.969154,-1776.494261,10214.842000,-3064.381992
120.969464,6217.729913,9326.594869,-5898.935335
120.969774,1332.370696,6735.874072,2911.162892
120.970083,-1110.308913,5033.400406,10572.117872
120.970393,-5921.647536,962.267725,11568.042020
120.970702,592.164754,8438.347739,3524.039291
120.971012,4219.173869,9548.656652,-11184.994271
120.971321,-3478.967927,9844.739029,-8656.879127
120.971631,-3923.091493,15396.283594,-3830.477490
120.971941,-1776.494261,12657.521608,-6281.983084
120.972250,3182.885551,13619.789333,-7737.564530
120.972560,2146.597232,8512.368333,-1685.410096
120.972869,-1110.308913,6587.832884,8886.707777
120.973179,1036.288319,4293.194464,8350.440928
120.973488,-3701.029710,4589.276840,7814.174080
120.973798,5625.565159,16580.613101,-4213.525239
120.974107,1406.391290,12213.398043,-13866.328514
120.974417,-1628.453072,14137.933492,-6205.373534
120.974727,-666.185348,16506.592507,-4673.182538
120.975036,-888.247130,9252.574275,-7737.564530
120.975346,4071.132681,12953.603985,-4903.011187
120.975655,1110.308913,6883.915261,4519.963438
120.975965,1480.411884,3404.947333,9576.193725
120.976274,-1776.494261,3701.029710,8733.488677
120.976584,-592.164754,4959.379811,4673.182538
120.976894,3701.029710,9844.739029,-9652.803275
120.977203,-3330.926739,8290.306550,-11031.775171
120.977513,-2072.576638,14434.015869,-3830.477490
120.977822,-3775.050304,11843.295072,-5286.058936
120.978132,3997.112087,13693.809927,-7660.954980
120.978441,6439.791695,9178.553681,-2911.162892
120.978751,-1406.391290,2368.659014,10035.851024
120.979061,-518.144159,5403.503377,12947.013916
120.979370,-4293.194464,4737.318029,7201.297681
120.979680,4293.194464,11991.336260,-1991.848295
120.979989,2590.720797,12139.377449,-11031.775171
120.980299,-6883.915261,13841.851115,-6741.640382
120.980608,-1406.391290,16284.530724,-6358.592633
120.980918,1184.329507,10732.986159,-10648.727422
120.981227,5551.544565,13101.645173,-7737.564530
120.981537,-296.082377,7698.141797,3217.601092
120.981847,-1258.350101,4959.379811,11491.432470
120.982156,2072.576638,6513.812290,10955.165621
120.982466,-1776.494261,7105.977043,7507.735880
120.982775,4737.318029,10140.821405,-5592.497135
120.983085,-1850.514855,11547.212695,-11721.261119
120.983394,-2590.720797,14137.933492,-8120.612279
120.983704,-4663.297435,13175.665768,-10955.165621
120.984014,-1036.288319,10658.965565,-7814.174080
120.984323,4219.173869,10436.903782,-2757.943793
120.984633,592.164754,3478.967927,7201.297681
120.984942,1702.473667,4885.359217,10725.336972
120.985252,-4663.297435,3330.926739,9959.241474
120.985561,148.041188,5699.585753,5286.058936
120.985871,4737.318029,11843.295072,-9882.631924
120.986181,-592.164754,13693.809927,-10495.508323
120.986490,-2516.700203,16654.633695,-8427.050478
120.986800,-3182.885551,9474.636058,-8656.879127
120.987109,1924.535449,14285.974681,-6665.030833
120.987419,2960.823768,8660.409521,-306.438199
120.987728,1332.370696,5403.503377,9422.974625
120.988038,3404.947333,7031.956449,14096.157163
120.988348,-5773.606348,4885.359217,11261.603821
120.988657,2960.823768,12213.398043,-995.924147
120.988967,2516.700203,12583.501014,-14632.424012
120.989276,-2072.576638,15840.407159,-12334.137518
120.989586,-1480.411884,16876.695478,-7507.735880
120.989895,-0.000000,9548.656652,-7507.735880
120.990205,2368.659014,12657.521608,-5822.325785
120.990514,1628.453072,5551.544565,5362.668486
120.990824,4589.276840,1110.308913,14325.985813
120.991134,-2886.803174,1924.535449,12487.356617
120.991443,-5033.400406,5625.565159,12947.013916
120.991753,6513.812290,10288.862594,-6511.811733
120.992062,-888.247130,9178.553681,-15398.519510
120.992372,-3256.906145,18653.189738,-9499.584175
120.992681,-5773.606348,11473.192101,-6358.592633
120.992991,962.267725,13767.830521,-10648.727422
120.993301,5033.400406,8364.327145,-5209.449386
120.993610,-740.205942,3404.947333,7354.516781
120.993920,1406.391290,3478.967927,13406.671215
120.994229,-6587.832884,3256.906145,14709.033562
120.994539,4885.359217,10658.965565,5592.497135
120.994848,4663.297435,8882.471304,-10342.289223
120.995158,-2516.700203,14211.954086,-11261.603821
120.995468,-5181.441594,16802.674883,-6665.030833
120.995777,-5181.441594,13989.892304,-10265.679673
120.996087,6957.935855,13915.871710,-12717.185267
120.996396,1924.535449,8734.430116,-1608.800546
120.996706,592.164754,7254.018232,10878.556072
120.997015,-444.123565,3627.009116,13023.623466
120.997325,1258.350101,5033.400406,10495.508323
120.997635,4145.153275,9400.615463,-2911.162892
120.997944,-3182.885551,12731.542202,-8273.831378
120.998254,370.102971,14656.077652,-8044.002729
120.998563,-5255.462188,10584.944971,-7814.174080
120.998873,-740.205942,14952.160028,-7814.174080
120.999182,4515.256246,10436.903782,-9039.926876
120.999492,2368.659014,3256.906145,306.438199
120.999801,518.144159,4071.132681,11108.384721
121.000111,-5255.462188,-296.082377,13253.452115
121.000421,-0.000000,9918.759623,5209.449386
121.000730,4811.338623,8364.327145,-3753.867940
121.001040,-1110.308913,9844.739029,-7354.516781
121.001349,-962.267725,15988.448347,-6281.983084
121.001659,-7328.038826,11473.192101,-5286.058936
121.001968,4071.132681,16358.551318,-9576.193725
121.002278,4071.132681,7698.141797,-5898.935335
121.002588,2516.700203,7698.141797,4979.620737
121.002897,-6143.709319,4959.379811,14096.157163
121.003207,-1628.453072,5551.544565,10878.556072
121.003516,7254.018232,9844.739029,-5056.230287
121.003826,-666.185348,10066.800811,-8120.612279
121.004135,-3923.091493,15766.386565,-2834.553343
121.004445,-4441.235652,13027.624579,-7507.735880
121.004755,1110.308913,14359.995275,-10265.679673
121.005064,4737.318029,12583.501014,-9806.022374
121.005374,-0.000000,5773.606348,-1532.190996
121.005683,-0.000000,5551.544565,9193.145976
121.005993,-2220.617826,2294.638420,13483.280765
121.006302,4071.132681,7994.224174,5362.668486
121.006612,7550.100608,7105.977043,-5515.887586
121.006921,-1702.473667,11769.274478,-1915.238745
121.007231,-3552.988522,13841.851115,-4519.963438
121.007541,-4367.215058,9030.512492,-10035.851024
121.007850,2072.576638,14359.995275,-10648.727422
121.008160,1332.370696,7254.018232,-9269.755526
121.008469,-888.247130,8660.409521,2374.896044
121.008779,-2886.803174,5773.606348,11261.603821
121.009088,-444.123565,3775.050304,11874.480219
121.009398,9548.656652,9030.512492,-2911.162892
121.009708,1702.473667,7031.956449,-6665.030833
121.010017,-4293.194464,12287.418637,229.828649
121.010327,-3108.864956,11991.336260,-4749.792088
121.010636,-74.020594,15692.365970,-11031.775171
121.010946,4663.297435,15026.180623,-14249.376263
121.011255,-2812.782580,8586.388927,-3217.601092
121.011565,-444.123565,8512.368333,5132.839837
121.011875,-1850.514855,3330.926739,7354.516781
121.012184,-74.020594,8068.244768,6511.811733
121.012494,3997.112087,7254.018232,-3677.258390
121.012803,-1036.288319,10955.047942,0.000000
121.013113,-592.164754,14730.098246,536.266849
121.013422,-1850.514855,9992.780217,-7814.174080
121.013732,1480.411884,15026.180623,-9193.145976
121.014042,1628.453072,9104.533087,-8963.317327
121.014351,-1480.411884,6069.688724,536.266849
121.014661,-1184.329507,6143.709319,6511.811733
121.014970,-962.267725,5699.585753,8963.317327
121.015280,3108.864956,9622.677246,2298.286494
121.015589,1184.329507,4441.235652,-2451.505594
121.015899,-2220.617826,11843.295072,919.314598
121.016208,-1406.391290,12805.562797,-5439.278036
121.016518,1480.411884,8290.306550,-9422.974625
121.016828,1110.308913,13841.851115,-7967.393179
121.017137,814.226536,7624.121203,-5132.839837
121.017447,-1776.494261,10140.821405,4903.011187
121.017756,-1184.329507,7105.977043,7507.735880
121.018066,1924.535449,6143.709319,4596.572988
121.018375,2960.823768,8882.471304,-4136.915689
121.018685,-2146.597232,8068.244768,-689.485948
121.018995,-1036.288319,12879.583391,-1685.410096
121.019304,-1554.432478,11843.295072,-8503.660028
121.019614,740.205942,16284.530724,-6741.640382
121.019923,1258.350101,13027.624579,-6511.811733
121.020233,296.082377,6661.853478,306.438199
121.020542,-0.000000,6809.894666,5515.887586
121.020852,-0.000000,2146.597232,7124.688131
121.021162,2146.597232,10066.800811,1072.533697
121.021471,-0.000000,8216.285956,-5286.058936
121.021781,-2812.782580,9178.553681,1149.143247
121.022090,1628.453072,12287.418637,-3447.429741
121.022400,-1702.473667,9844.739029,-7124.688131
121.022709,-0.000000,14211.954086,-5515.887586
121.023019,-2220.617826,6439.791695,-2757.943793
121.023329,3701.029710,9918.759623,919.314598
121.023638,-2960.823768,5921.647536,3677.258390
121.023948,-2664.741391,7105.977043,8580.269578
121.024257,2146.597232,10881.027347,-842.705048
121.024567,1480.411884,7476.080014,-5286.058936
121.024876,-222.061783,15914.427753,-1991.848295
121.025186,-4737.318029,12879.583391,-1532.190996
121.025495,666.185348,14582.057057,-5362.668486
121.025805,2368.659014,11695.253884,-9729.412825
121.026115,-2516.700203,8660.409521,-2145.067394
121.026424,1332.370696,9548.656652,2681.334243
121.026734,-2072.576638,3552.988522,3064.381992
121.027043,666.185348,11769.274478,4673.182538
121.027353,4145.153275,9474.636058,-3064.381992
121.027662,-1036.288319,11177.109724,-4979.620737
121.027972,-1036.288319,15692.365970,-383.047749
121.028282,-4885.359217,8882.471304,-1378.971896
121.028591,2368.659014,12287.418637,-6205.373534
121.028901,1406.391290,6291.750507,-6128.763984
121.029210,-370.102971,8956.491898,2681.334243
121.029520,592.164754,2812.782580,3830.477490
121.029829,-2812.782580,6439.791695,5286.058936
121.030139,1110.308913,11917.315666,-536.266849
121.030449,-0.000000,5255.462188,-5975.544884
121.030758,2368.659014,13249.686362,-5975.544884
121.031068,-2368.659014,9770.718434,-3524.039291
121.031377,-148.041188,14285.974681,306.438199
121.031687,3775.050304,13471.748144,-6511.811733
121.031996,888.247130,6291.750507,-1455.581446
121.032306,-1776.494261,11843.295072,10495.508323
121.032615,-5033.400406,1998.556043,6588.421283
121.032925,814.226536,11177.109724,229.828649
121.033235,1924.535449,11547.212695,-8656.879127
121.033544,222.061783,12879.583391,-6588.421283
121.033854,-1332.370696,13693.809927,-5898.935335
121.034163,-1184.329507,11251.130318,-1915.238745
121.034473,1110.308913,14285.974681,-2451.505594
121.034782,2886.803174,8068.244768,-3370.820191
121.035092,1110.308913,5477.523971,6588.421283
121.035402,-222.061783,518.144159,6281.983084
121.035711,-5181.441594,1184.329507,8197.221829
121.036021,1406.391290,13915.871710,-383.047749
121.036330,2590.720797,7402.059420,-11951.089769
121.036640,-814.226536,17320.819043,-5898.935335
121.036949,-4663.297435,12213.398043,-3370.820191
121.037259,-444.123565,11029.068536,-2681.334243
121.037569,4589.276840,11325.150913,-4903.011187
121.037878,-74.020594,6217.729913,2374.896044
121.038188,592.164754,7698.141797,9116.536426
121.038497,-1184.329507,1036.288319,9806.022374
121.038807,-2960.823768,8290.306550,5669.106685
121.039116,4589.276840,12509.480420,-8427.050478
121.039426,1332.370696,9844.739029,-9806.022374
121.039736,-3478.967927,16950.716072,-6281.983084
121.040045,-3775.050304,12583.501014,-3983.696590
121.040355,2368.659014,18135.045579,-5898.935335
121.040664,3849.070898,7994.224174,-5439.278036
121.040974,814.226536,7402.059420,7048.078582
121.041283,-592.164754,5551.544565,9499.584175
121.041593,-2442.679609,1036.288319,7967.393179
121.041902,1258.350101,12879.583391,1302.362347
121.042212,2812.782580,8660.409521,-12487.356617
121.042522,-444.123565,13323.706956,-9422.974625
121.042831,518.144159,12139.377449,-4673.182538
121.043141,-3627.009116,9918.759623,-3140.991542
121.043450,3701.029710,11917.315666,-4136.915689
121.043760,2516.700203,5329.482782,-3140.991542
121.044069,370.102971,4515.256246,8197.221829
121.044379,-2812.782580,2442.679609,11721.261119
121.044689,-666.185348,7624.121203,7277.907231
121.044998,2886.803174,11325.150913,-10342.289223
121.045308,888.247130,13027.624579,-12487.356617
121.045617,-6143.709319,15840.407159,-6665.030833
121.045927,-1924.535449,11103.089130,-5439.278036
121.046236,4663.297435,14804.118840,-5362.668486
121.046546,6069.688724,9622.677246,-4826.401637
121.046856,-3182.885551,7920.203579,8963.317327
121.047165,-1110.308913,6439.791695,12793.794817
121.047475,-1702.473667,1110.308913,7890.783629
121.047784,-0.000000,12583.501014,-383.047749
121.048094,1184.329507,12435.459826,-12180.918418
121.048403,-3404.947333,11621.233289,-11874.480219
121.048713,-1998.556043,13915.871710,-7124.688131
121.049023,-1998.556043,11695.253884,-3140.991542
121.049332,814.226536,15026.180623,-6358.592633
121.049642,1184.329507,4219.173869,2145.067394
121.049951,2664.741391,1850.514855,10801.946522
121.050261,-0.000000,-444.123565,10418.898773
121.050570,-3404.947333,5995.668130,9499.584175
121.050880,2368.659014,10955.047942,-7048.078582
121.051189,-222.061783,7994.224174,-15015.471761
121.051499,-2738.761985,17246.798449,-9193.145976
121.051809,-4441.235652,11399.171507,-4673.182538
121.052118,814.226536,13323.706956,-7584.345430
121.052428,5107.421000,10584.944971,-7890.783629
121.052737,962.267725,2368.659014,6511.811733
121.053047,1628.453072,6809.894666,14479.204912
121.053356,-3552.988522,1924.535449,11338.213370
121.053666,3330.926739,12361.439231,7507.735880
121.053976,2146.597232,11769.274478,-8427.050478
121.054285,-3849.070898,12953.603985,-11108.384721
121.054595,-4293.194464,17098.757260,-8656.879127
121.054904,-1332.370696,12139.377449,-10648.727422
121.055214,740.205942,19911.539840,-12410.747068
121.055524,2738.761985,6661.853478,-689.485948
121.055833,1332.370696,6365.771101,11338.213370
121.056143,2886.803174,1480.411884,11491.432470
121.056452,518.144159,962.267725,15168.690860
121.056762,-296.082377,9770.718434,5439.278036
121.057071,-740.205942,7846.182985,-9576.193725
121.057381,-814.226536,14952.160028,-12257.527968
121.057691,-2146.597232,12657.521608,-11797.870669
121.058000,-74.020594,13841.851115,-9576.193725
121.058310,1480.411884,14878.139434,-7814.174080
121.058619,1184.329507,4293.194464,3907.087040
121.058929,3627.009116,6439.791695,11491.432470
121.059239,3108.864956,888.247130,11951.089769
121.059548,-4811.338623,5773.606348,13023.623466
121.059858,2368.659014,9696.697840,536.266849
121.060167,444.123565,8660.409521,-11568.042020
121.060477,-1924.535449,15544.324782,-13483.280765
121.060786,-6883.915261,12139.377449,-12640.575717
121.061096,1998.556043,19467.416275,-9959.241474
121.061406,4367.215058,11843.295072,-8580.269578
121.061715,-296.082377,9400.615463,7277.907231
121.062025,1036.288319,5921.647536,14709.033562
121.062334,-1406.391290,-0.000000,12793.794817
121.062644,-1998.556043,13619.789333,5669.106685
121.062954,3034.844362,12213.398043,-6205.373534
121.063263,-0.000000,13545.768739,-13023.623466
121.063573,-3404.947333,13841.851115,-9882.631924
121.063882,-3552.988522,12065.356855,-7354.516781
121.064192,2368.659014,13323.706956,-8733.488677
121.064501,3108.864956,4589.276840,-306.438199
121.064811,888.247130,3182.885551,12640.575717
121.065121,1554.432478,-962.267725,13176.842566
121.065430,-2812.782580,592.164754,10878.556072
121.065740,370.102971,8438.347739,3830.477490
121.066049,1554.432478,9992.780217,-10418.898773
121.066359,-2220.617826,15248.242405,-14479.204912
121.066669,-4515.256246,11325.150913,-10035.851024
121.066978,-2072.576638,13101.645173,-7660.954980
121.067288,4219.173869,13027.624579,-9652.803275
121.067597,2072.576638,7105.977043,2145.067394
121.067907,2738.761985,9992.780217,17696.806004
121.068216,3182.885551,1184.329507,14249.376263
121.068526,-3182.885551,6809.894666,10112.460574
121.068836,2294.638420,11399.171507,-1838.629195
121.069145,-1110.308913,17912.983796,-13100.233016
121.069455,-1998.556043,18357.107362,-12487.356617
121.069764,-6809.894666,12509.480420,-7660.954980
121.070074,1628.453072,16358.551318,-12563.966167
121.070384,5995.668130,9252.574275,-11568.042020
121.070693,-2368.659014,7624.121203,7737.564530
121.071003,-1924.535449,3552.988522,17696.806004
121.071312,2442.679609,1702.473667,12334.137518
121.071622,3997.112087,8956.491898,2374.896044
121.071931,1406.391290,8586.388927,-3217.601092
121.072241,-1036.288319,15544.324782,-5286.058936
121.072551,-3478.967927,11029.068536,-9193.145976
121.072860,-5995.668130,10584.944971,-9116.536426
121.073170,7846.182985,11991.336260,-13789.718964
121.073479,2368.659014,3478.967927,-7277.907231
121.073789,-2442.679609,8586.388927,12947.013916
121.074099,-1184.329507,-962.267725,17160.539155
121.074408,3034.844362,5625.565159,4213.525239
121.074718,3034.844362,7994.224174,-1149.143247
121.075027,-1110.308913,10881.027347,-3983.696590
121.075337,-1924.535449,18431.127956,-9806.022374
121.075646,-1480.411884,10436.903782,-13789.718964
121.075956,-3775.050304,17172.777854,-7967.393179
121.076266,5477.523971,10658.965565,-9806.022374
121.076575,5033.400406,7698.141797,-5209.449386
121.076885,-2516.700203,9252.574275,14172.766713
121.077194,-2738.761985,3182.885551,18845.949251
121.077504,4737.318029,7994.224174,689.485948
121.077814,1850.514855,6069.688724,-6741.640382
121.078123,-3775.050304,13175.665768,-2604.724693
121.078433,-296.082377,16876.695478,-7890.783629
121.078742,-4219.173869,11103.089130,-9806.022374
121.079052,2812.782580,14434.015869,-9806.022374
121.079362,5477.523971,4515.256246,-11874.480219
121.079671,-1258.350101,7328.038826,5822.325785
121.079981,-3478.967927,1998.556043,20378.140247
121.080290,2072.576638,2664.741391,12180.918418
121.080600,9104.533087,8364.327145,-4366.744339
121.080909,-5107.421000,8364.327145,-2298.286494
121.081219,-5847.626942,16950.716072,-919.314598
121.081529,-1850.514855,11991.336260,-12487.356617
121.081838,-2442.679609,17468.860231,-14862.252661
121.082148,6513.812290,11769.274478,-10189.070123
121.082457,2516.700203,4515.256246,-3983.696590
121.082767,-962.267725,9104.533087,9882.631924
121.083077,-1702.473667,1998.556043,18079.853753
121.083386,4441.235652,8290.306550,8350.440928
121.083696,2664.741391,888.247130,-2145.067394
121.084005,-6809.894666,7994.224174,1608.800546
121.084315,-2368.659014,17838.963202,-4290.134789
121.084624,-814.226536,19615.457463,-15934.786358
121.084934,2294.638420,19763.498651,-16164.615008
121.085244,-1924.535449,7402.059420,-10112.460574
121.085553,-0.000000,7254.018232,-612.876398
121.085863,-0.000000,3182.885551,9959.241474
121.086172,-1258.350101,3923.091493,16011.395908
121.086482,7105.977043,4441.235652,10342.289223
121.086792,4737.318029,814.226536,-1302.362347
121.087101,-5107.421000,9844.739029,842.705048
121.087411,-3923.091493,10658.965565,-3600.648841
121.087720,-3256.906145,16062.468941,-10495.508323
121.088030,1480.411884,14211.954086,-12487.356617
121.088339,-888.247130,6587.832884,-8886.707777
121.088649,-0.000000,9400.615463,-383.047749
121.088959,-1850.514855,3997.112087,9729.412825
121.089268,148.041188,9548.656652,8886.707777
121.089578,6291.750507,6365.771101,-612.876398
121.089887,-222.061783,6365.771101,1072.533697
121.090197,-4219.173869,11399.171507,2221.676944
121.090507,-1776.494261,14137.933492,-6665.030833
121.090816,-0.000000,21169.889941,-12793.794817
121.091126,-962.267725,10732.986159,-9652.803275
121.091435,-518.144159,5329.482782,-1838.629195
121.091745,-1776.494261,4811.338623,2068.457845
121.092054,-2738.761985,6883.915261,7048.078582
121.092364,2960.823768,12287.418637,4979.620737
121.092674,1702.473667,4663.297435,-1532.190996
121.092983,-2146.597232,10881.027347,-2221.676944
121.093293,-444.123565,8956.491898,-3064.381992
121.093602,-2886.803174,10140.821405,-4749.792088
121.093912,2146.597232,18283.086767,-8733.488677
121.094222,1110.308913,7105.977043,-4903.011187
121.094531,296.082377,7031.956449,2068.457845
121.094841,1036.288319,5255.462188,5898.935335
121.095150,1480.411884,4589.276840,5209.449386
121.095460,814.226536,8956.491898,1991.848295
121.095769,2664.741391,6735.874072,-1225.752797
121.096079,-0.000000,11547.212695,-5592.497135
121.096389,-4737.318029,10066.800811,-6205.373534
121.096698,-3701.029710,17024.736666,-3830.477490
121.097008,5033.400406,14137.933492,-11491.432470
121.097317,2664.741391,5255.462188,-3830.477490
121.097627,-1850.514855,6809.894666,5898.935335
121.097937,-3404.947333,4589.276840,6052.154434
121.098246,2812.782580,11991.336260,2451.505594
121.098556,3330.926739,8586.388927,-459.657299
121.098865,518.144159,9918.759623,-689.485948
121.099175,-1924.535449,10881.027347,-3064.381992
121.099484,-5033.400406,12213.398043,-3524.039291
121.099794,444.123565,18283.086767,-8810.098227
121.100104,3034.844362,6809.894666,-11261.603821
121.100413,-888.247130,10732.986159,-1838.629195
121.100723,-3849.070898,5625.565159,7967.393179
121.101032,-1406.391290,5033.400406,6052.154434
121.101342,4737.318029,12213.398043,1225.752797
121.101652,2220.617826,5773.606348,383.047749
121.101961,-444.123565,8956.491898,2451.505594
121.102271,-2368.659014,6661.853478,-229.828649
121.102580,-1628.453072,14063.912898,-5745.716235
121.102890,3108.864956,11769.274478,-7507.735880
121.103199,1258.350101,9030.512492,-4903.011187
121.103509,-1406.391290,8660.409521,-76.609550
121.103819,-2590.720797,3552.988522,5822.325785
121.104128,518.144159,11325.150913,5515.887586
121.104438,5181.441594,7920.203579,-4903.011187
121.104747,-814.226536,8660.409521,-2145.067394
121.105057,1776.494261,13619.789333,459.657299
121.105367,-5255.462188,10658.965565,-2221.676944
121.105676,2738.761985,15544.324782,-8427.050478
121.105986,4219.173869,10807.006753,-7814.174080
121.106295,-518.144159,9326.594869,-536.266849
121.106605,-2442.679609,3256.906145,5209.449386
121.106915,-4515.256246,9178.553681,5898.935335
121.107224,4071.132681,13101.645173,-2757.943793
121.107534,4367.215058,7624.121203,-6894.859482
121.107843,-1184.329507,9178.553681,-76.609550
121.108153,-4293.194464,5921.647536,0.000000
121.108462,-444.123565,10436.903782,-3907.087040
121.108772,4811.338623,11769.274478,-8197.221829
121.109082,1406.391290,3478.967927,-1532.190996
121.109391,-2220.617826,8956.491898,7354.516781
121.109701,-2368.659014,2368.659014,6818.249932
121.110010,-2146.597232,9104.533087,2145.067394
121.110320,2368.659014,8290.306550,-3294.210641
121.110630,1850.514855,9178.553681,-6052.154434
121.110939,-2146.597232,16432.571912,-6358.592633
121.111249,-3256.906145,9326.594869,-2757.943793
121.111558,-148.041188,15248.242405,-4903.011187
121.111868,1480.411884,9474.636058,-7124.688131
121.112177,-296.082377,7550.100608,-842.705048
121.112487,-814.226536,5773.606348,9652.803275
121.112797,-2072.576638,4589.276840,7507.735880
121.113106,2220.617826,12583.501014,-1302.362347
121.113416,1554.432478,7105.977043,-6971.469032
121.113725,-2960.823768,14656.077652,-2221.676944
121.114035,-888.247130,15470.304188,-4290.134789
121.114345,-962.267725,14582.057057,-5515.887586
121.114654,3182.885551,15322.262999,-6818.249932
121.114964,666.185348,6217.729913,-1532.190996
121.115273,-1554.432478,6291.750507,6435.202183
121.115583,-3997.112087,1332.370696,8197.221829
121.115892,-1480.411884,6883.915261,4596.572988
121.116202,3627.009116,11843.295072,-6665.030833
121.116512,962.267725,9178.553681,-10725.336972
121.116821,-4219.173869,15174.221811,-1685.410096
121.117131,-222.061783,9622.677246,-1838.629195
121.117440,1332.370696,13027.624579,-7431.126331
121.117750,1998.556043,7846.182985,-4979.620737
121.118060,-666.185348,2220.617826,5669.106685
121.118369,-1776.494261,4293.194464,7277.907231
121.118679,-814.226536,3701.029710,4979.620737
121.118988,1480.411884,10214.842000,1302.362347
121.119298,592.164754,8512.368333,-6971.469032
121.119607,-2146.597232,13175.665768,-5362.668486
121.119917,-2072.576638,16506.592507,-3140.991542
121.120227,1110.308913,11991.336260,-6741.640382
121.120536,2220.617826,14285.974681,-8427.050478
121.120846,-0.000000,8290.306550,-842.705048
121.121155,-1332.370696,8808.450710,9039.926876
121.121465,1480.411884,4367.215058,6128.763984
121.121775,-1628.453072,8512.368333,4060.306139
121.122084,1406.391290,11251.130318,-1608.800546
121.122394,-74.020594,9252.574275,-9193.145976
121.122703,-740.205942,16136.489536,-7737.564530
121.123013,-1702.473667,11621.233289,-6052.154434
121.123322,-740.205942,12805.562797,-4673.182538
121.123632,6513.812290,9474.636058,-4213.525239
121.123942,592.164754,1480.411884,3677.258390
121.124251,222.061783,5329.482782,10035.851024
121.124561,-2886.803174,3330.926739,8733.488677
121.124870,1924.535449,8586.388927,229.828649
121.125180,518.144159,8956.491898,-8886.707777
121.125490,-1702.473667,8956.491898,-6818.249932
121.125799,-2442.679609,14878.139434,-4060.306139
121.126109,-1406.391290,10658.965565,-5592.497135
121.126418,1184.329507,14804.118840,0.000000
121.126728,222.061783,5107.421000,-1991.848295
121.127037,-0.000000,4811.338623,6818.249932
121.127347,-444.123565,5403.503377,8886.707777
121.127657,-518.144159,7846.182985,4749.792088
121.127966,-444.123565,15766.386565,-1149.143247
121.128276,-1110.308913,9474.636058,-6358.592633
121.128585,-3775.050304,17246.798449,-6128.763984
121.128895,-222.061783,14211.954086,-8197.221829
121.129205,740.205942,15692.365970,-5362.668486
121.129514,1480.411884,12213.398043,-6741.640382
121.129824,-0.000000,2590.720797,536.266849
121.130133,888.247130,3997.112087,8503.660028
121.130443,-592.164754,3478.967927,9652.803275
121.130752,-1702.473667,9104.533087,8580.269578
121.131062,1850.514855,9918.759623,-3753.867940
121.131372,296.082377,10288.862594,-9652.803275
121.131681,-2146.597232,13323.706956,-8350.440928
121.131991,-3849.070898,11621.233289,-5592.497135
121.132300,2590.720797,14804.118840,-6894.859482
121.132610,5403.503377,7772.162391,-7431.126331
121.132920,370.102971,3034.844362,5056.230287
121.133229,-1702.473667,3108.864956,13559.890315
121.133539,-2886.803174,962.267725,10878.556072
121.133848,-296.082377,9400.615463,0.000000
121.134158,1184.329507,8956.491898,-6588.421283
121.134468,-4145.153275,10807.006753,-7967.393179
121.134777,-1554.432478,14656.077652,-9806.022374
121.135087,-4515.256246,12287.418637,-9806.022374
121.135396,4737.318029,17912.983796,-8197.221829
121.135706,148.041188,3182.885551,-2987.772442
121.136015,-0.000000,6957.935855,9576.193725
121.136325,-444.123565,3923.091493,12640.575717
121.136635,1110.308913,5477.523971,7201.297681
121.136944,3775.050304,10510.924376,-2221.676944
121.137254,-592.164754,11843.295072,-7660.954980
121.137563,-1924.535449,16580.613101,-10342.289223
121.137873,-3775.050304,14878.139434,-13100.233016
121.138183,-1184.329507,18357.107362,-5822.325785
121.138492,2738.761985,11251.130318,-7660.954980
121.138802,1036.288319,5255.462188,-766.095498
121.139111,-592.164754,6365.771101,7431.126331
121.139421,-0.000000,592.164754,8044.002729
121.139730,-444.123565,7846.182985,2757.943793
121.140040,3849.070898,9548.656652,-6588.421283
121.140350,-3256.906145,9696.697840,-11797.870669
121.140659,-1554.432478,14285.974681,-9346.365076
121.140969,-5921.647536,14582.057057,-8120.612279
121.141278,1036.288319,18209.066173,-11568.042020
121.141588,3404.947333,7994.224174,-12640.575717
121.141898,-1480.411884,4071.132681,-4060.306139
121.142207,1036.288319,4737.318029,1762.019645
121.142517,-518.144159,5773.606348,4979.620737
121.142826,296.082377,11547.212695,1149.143247
121.143136,3997.112087,9696.697840,-11414.822920
121.143445,-444.123565,11917.315666,-17237.148705
121.143755,-1406.391290,15026.180623,-15015.471761
121.144065,-1184.329507,13767.830521,-13176.842566
121.144374,-222.061783,13397.727550,-12640.575717
121.144684,4219.173869,11399.171507,-8656.879127
121.144993,-296.082377,4737.318029,-536.266849
121.145303,3849.070898,3627.009116,-1608.800546
121.145613,3478.967927,4441.235652,0.000000
121.145922,-444.123565,7105.977043,-1149.143247
121.146232,-1184.329507,10140.821405,-6128.763984
121.146541,-0.000000,7031.956449,-16317.834107
121.146851,-148.041188,10214.842000,-21603.893044
121.147160,-1850.514855,13619.789333,-14019.547613
121.147470,-0.000000,13323.706956,-9959.241474
121.147780,-0.000000,6365.771101,-4213.525239
121.148089,-2072.576638,4663.297435,-1991.848295
121.148399,-1184.329507,3552.988522,-3907.087040
121.148708,3330.926739,8660.409521,-7048.078582
121.149018,740.205942,10362.883188,-7354.516781
121.149328,-2442.679609,9696.697840,-9499.584175
121.149637,-1480.411884,11473.192101,-12947.013916
121.149947,-3404.947333,10436.903782,-14249.376263
121.150256,-5921.647536,13175.665768,-13559.890315
121.150566,1702.473667,11695.253884,-17466.977354
121.150875,3034.844362,8512.368333,-15704.957709
121.151185,-666.185348,7031.956449,-4673.182538
121.151495,-1924.535449,5181.441594,-459.657299
121.151804,-0.000000,11547.212695,-4903.011187
121.152114,-1036.288319,10066.800811,-7890.783629
121.152423,-2442.679609,10658.965565,-12563.966167
121.152733,1184.329507,9770.718434,-20301.530697
121.153043,4293.194464,9992.780217,-20148.311597
121.153352,-2368.659014,10362.883188,-10112.460574
121.153662,-2294.638420,8882.471304,-6128.763984
121.153971,2960.823768,7476.080014,-4443.353888
121.154281,1628.453072,7920.203579,-3753.867940
121.154590,-2072.576638,7846.182985,-2681.334243
121.154900,2146.597232,9992.780217,-11491.432470
121.155210,4515.256246,10140.821405,-20607.968896
121.155519,-2072.576638,11399.171507,-16164.615008
121.155829,-3627.009116,11843.295072,-8197.221829
121.156138,1480.411884,14211.954086,-9806.022374
121.156448,3330.926739,13767.830521,-9806.022374
121.156757,1332.370696,6883.915261,-4903.011187
121.157067,-2664.741391,5329.482782,-3524.039291
121.157376,-1924.535449,4737.318029,-8580.269578
121.157685,962.267725,11325.150913,-14479.204912
121.157995,2442.679609,15840.407159,-18386.291952
121.158304,1628.453072,13249.686362,-13559.890315
121.158614,-2294.638420,12509.480420,-4060.306139
121.158923,1332.370696,8364.327145,-5515.887586
121.159233,-1258.350101,3997.112087,-8503.660028
121.159542,-74.020594,3701.029710,-4596.572988
121.159852,-4145.153275,3182.885551,-3064.381992
121.160161,-2738.761985,8512.368333,-8044.002729
121.160471,-592.164754,14285.974681,-14402.595362
121.160780,-1628.453072,17616.901420,-19152.387450
121.161089,-2738.761985,18061.024985,-18539.511052
121.161399,-2146.597232,16580.613101,-14249.376263
121.161708,888.247130,12065.356855,-12717.185267
121.162018,2516.700203,3997.112087,-9422.974625
121.162327,888.247130,1110.308913,-3217.601092
121.162637,-518.144159,-1480.411884,2911.162892
