#time,accel_x,accel_y,accel_z
122.838113,-0.000000,9326.594869,-919.314598
122.838423,-222.061783,9548.656652,-919.314598
122.838732,888.247130,11103.089130,-3753.867940
122.839042,296.082377,9178.553681,-1608.800546
122.839352,-0.000000,9252.574275,-2145.067394
122.839661,-74.020594,9400.615463,-1685.410096
122.839971,-222.061783,9770.718434,1455.581446
122.840280,-0.000000,9474.636058,-842.705048
122.840590,740.205942,9474.636058,-1225.752797
122.840900,-444.123565,8808.450710,-919.314598
122.841209,-370.102971,9622.677246,-1838.629195
122.841519,2294.638420,7550.100608,-1302.362347
122.841828,888.247130,10066.800811,-1915.238745
122.842138,-592.164754,10140.821405,-612.876398
122.842448,592.164754,9548.656652,153.219100
122.842757,-0.000000,9030.512492,-689.485948
122.843067,148.041188,9474.636058,-2145.067394
122.843376,222.061783,8660.409521,-2145.067394
122.843686,-222.061783,9770.718434,-1072.533697
122.843995,148.041188,10066.800811,153.219100
122.844305,-1776.494261,9548.656652,-1838.629195
122.844615,1110.308913,8734.430116,919.314598
122.844924,2368.659014,6661.853478,306.438199
122.845234,4737.318029,6661.853478,2374.896044
122.845543,2072.576638,8068.244768,10265.679673
122.845853,1036.288319,6883.915261,9806.022374
122.846163,3404.947333,7550.100608,9576.193725
122.846472,6661.853478,8290.306550,3677.258390
122.846782,2886.803174,6957.935855,3447.429741
122.847091,-2368.659014,8882.471304,12180.918418
122.847401,370.102971,12953.603985,11721.261119
122.847711,740.205942,10955.047942,5975.544884
122.848020,-0.000000,12435.459826,8044.002729
122.848330,-444.123565,12731.542202,11414.822920
122.848639,-15100.201217,13397.727550,13176.842566
122.848949,28053.805202,17912.983796,-6588.421283
122.849259,-14063.912898,8438.347739,3370.820191
122.849568,-6439.791695,16432.571912,22676.426741
122.849878,-16210.510130,8586.388927,26660.123330
122.850187,4293.194464,12361.439231,383.047749
122.850497,9474.636058,12509.480420,-4749.792088
122.850806,-12805.562797,9178.553681,9882.631924
122.851116,-3849.070898,12287.418637,7048.078582
122.851426,370.102971,6587.832884,1455.581446
122.851735,-1702.473667,9474.636058,4673.182538
122.852045,-3552.988522,4885.359217,18233.072852
122.852354,2442.679609,2960.823768,12180.918418
122.852664,-4219.173869,2664.741391,12487.356617
122.852974,-296.082377,3923.091493,18233.072852
122.853283,962.267725,10066.800811,6588.421283
122.853593,-1036.288319,592.164754,1685.410096
122.853902,666.185348,15174.221811,6128.763984
122.854212,1332.370696,9548.656652,-459.657299
122.854522,2664.741391,14656.077652,76.609550
122.854831,1628.453072,12213.398043,19841.873398
122.855141,444.123565,6291.750507,22676.426741
122.855450,444.123565,5107.421000,16241.224558
122.855760,-0.000000,7846.182985,13100.233016
122.856070,-1036.288319,8882.471304,7354.516781
122.856379,6513.812290,13323.706956,-4443.353888
122.856689,5329.482782,16210.510130,-4136.915689
122.856998,-0.000000,16210.510130,9422.974625
122.857308,-4219.173869,14508.036463,18309.682402
122.857617,-4145.153275,11695.253884,13253.452115
122.857927,3923.091493,9696.697840,1378.971896
122.858237,3997.112087,7772.162391,-5056.230287
122.858546,1036.288319,8512.368333,919.314598
122.858856,-0.000000,10214.842000,13253.452115
122.859165,-0.000000,11177.109724,14172.766713
122.859475,2146.597232,7476.080014,8886.707777
122.859785,2368.659014,5181.441594,4060.306139
122.860094,-5255.462188,1850.514855,10801.946522
122.860404,-7105.977043,5329.482782,7431.126331
122.860713,888.247130,9030.512492,-536.266849
122.861023,8734.430116,7698.141797,-8810.098227
122.861333,4737.318029,9178.553681,1838.629195
122.861642,-6513.812290,7846.182985,21757.112143
122.861952,-5921.647536,9844.739029,21910.331243
122.862261,4737.318029,9622.677246,4136.915689
122.862571,3330.926739,10214.842000,-4213.525239
122.862881,-1924.535449,10510.924376,4903.011187
122.863190,-7031.956449,11621.233289,76.609550
122.863500,4663.297435,15692.365970,-7967.393179
122.863809,8586.388927,13471.748144,-1838.629195
122.864119,-2072.576638,8734.430116,18845.949251
122.864429,-3701.029710,3849.070898,32329.230016
122.864738,3330.926739,3182.885551,14249.376263
122.865048,4293.194464,2442.679609,1915.238745
122.865357,-4367.215058,5181.441594,7814.174080
122.865667,-3330.926739,-7476.080014,3217.601092
122.865976,-3182.885551,6439.791695,-8350.440928
122.866286,10066.800811,13693.809927,8810.098227
122.866596,-25611.125593,592.164754,31792.963167
122.866905,6883.915261,15692.365970,22599.817191
122.867215,1184.329507,3627.009116,-6128.763984
122.867524,518.144159,11399.171507,-5975.544884
122.867834,-5847.626942,10288.862594,11184.994271
122.868144,3701.029710,15766.386565,766.095498
122.868453,-0.000000,12583.501014,1762.019645
122.868763,-222.061783,16802.674883,19535.435199
122.869072,-814.226536,12879.583391,18539.511052
122.869382,-10436.903782,5329.482782,7890.783629
122.869692,3108.864956,13619.789333,9269.755526
122.870001,5107.421000,9770.718434,76.609550
122.870311,740.205942,11177.109724,-8044.002729
122.870620,-1110.308913,12583.501014,13713.109414
122.870930,-4441.235652,17542.880825,17390.367805
122.871240,6069.688724,10658.965565,229.828649
122.871549,4071.132681,10732.986159,7354.516781
122.871859,-9992.780217,9844.739029,25817.418283
122.872168,-2590.720797,3849.070898,15475.129060
122.872478,7179.997637,6883.915261,-4366.744339
122.872787,1628.453072,5403.503377,-919.314598
122.873097,-666.185348,1554.432478,8197.221829
122.873407,444.123565,8660.409521,4979.620737
122.873716,-4515.256246,10732.986159,11031.775171
122.874026,-5699.585753,10881.027347,13483.280765
122.874335,592.164754,9844.739029,3677.258390
122.874645,1332.370696,5773.606348,-5515.887586
122.874955,-7105.977043,4515.256246,2068.457845
122.875264,-7254.018232,7846.182985,6741.640382
122.875574,-296.082377,10807.006753,-383.047749
122.875883,5033.400406,13027.624579,-2221.676944
122.876193,3997.112087,14285.974681,1455.581446
122.876503,-3478.967927,8956.491898,4290.134789
122.876812,-4811.338623,7624.121203,8427.050478
122.877122,-2664.741391,8882.471304,6128.763984
122.877431,2072.576638,8586.388927,-6818.249932
122.877741,7624.121203,8142.265362,-14019.547613
122.878051,-2812.782580,7920.203579,-3677.258390
122.878360,-5255.462188,9474.636058,7277.907231
122.878670,74.020594,10881.027347,6435.202183
122.878979,6661.853478,11103.089130,-4826.401637
122.879289,5699.585753,5699.585753,-3217.601092
122.879598,-4885.359217,3182.885551,9269.755526
122.879908,-1776.494261,9030.512492,7584.345430
122.880218,2220.617826,10140.821405,-6435.202183
122.880527,10436.903782,12953.603985,-11338.213370
122.880837,3701.029710,13027.624579,-2604.724693
122.881146,-8364.327145,8216.285956,10189.070123
122.881456,5921.647536,15026.180623,4136.915689
122.881766,4071.132681,6439.791695,-2221.676944
122.882075,1850.514855,4293.194464,2987.772442
122.882385,2516.700203,7846.182985,4060.306139
122.882694,-3404.947333,6587.832884,842.705048
122.883004,-2368.659014,19245.354492,-4213.525239
122.883314,1924.535449,14285.974681,-11874.480219
122.883623,7846.182985,13175.665768,-13942.938064
122.883933,-1110.308913,14508.036463,-536.266849
122.884242,-7254.018232,13175.665768,11951.089769
122.884552,1850.514855,6957.935855,1991.848295
122.884862,4515.256246,1184.329507,-4903.011187
122.885171,2590.720797,4071.132681,-153.219100
122.885481,-8068.244768,518.144159,5975.544884
122.885790,-1480.411884,15322.262999,-5745.716235
122.886100,5921.647536,14211.954086,-18462.901502
122.886409,-0.000000,10584.944971,-14402.595362
122.886719,-1406.391290,11325.150913,3753.867940
122.887029,-8808.450710,5773.606348,8427.050478
122.887338,2072.576638,6883.915261,2221.676944
122.887648,2812.782580,2664.741391,1608.800546
122.887957,5699.585753,6513.812290,995.924147
122.888267,-2072.576638,6809.894666,6205.373534
122.888577,-8956.491898,14656.077652,11568.042020
122.888886,3404.947333,16358.551318,-4366.744339
122.889196,5477.523971,13915.871710,-16241.224558
122.889505,1036.288319,13027.624579,-4903.011187
122.889815,-13989.892304,12657.521608,12104.308868
122.890125,296.082377,15100.201217,7277.907231
122.890434,9992.780217,9992.780217,-5515.887586
122.890744,2960.823768,5255.462188,-1378.971896
122.891053,-3256.906145,9622.677246,13406.671215
122.891363,-6957.935855,6439.791695,7048.078582
122.891673,4219.173869,13841.851115,-11108.384721
122.891982,1554.432478,12139.377449,-10801.946522
122.892292,592.164754,9696.697840,-2604.724693
122.892601,-3775.050304,7920.203579,2911.162892
122.892911,-2664.741391,8364.327145,3140.991542
122.893221,1332.370696,5107.421000,4366.744339
122.893530,3478.967927,740.205942,-306.438199
122.893840,1628.453072,6291.750507,0.000000
122.894150,-9474.636058,6883.915261,6741.640382
122.894459,592.164754,13397.727550,-4366.744339
122.894769,7105.977043,13841.851115,-17466.977354
122.895078,-592.164754,10584.944971,-9729.412825
122.895388,-7031.956449,10955.047942,5669.106685
122.895698,-6957.935855,11325.150913,5056.230287
122.896007,7920.203579,12435.459826,-842.705048
122.896317,1924.535449,5329.482782,3294.210641
122.896627,4737.318029,11843.295072,5439.278036
122.896936,-4145.153275,8290.306550,2911.162892
122.897246,-2368.659014,11473.192101,-7354.516781
122.897556,4293.194464,15470.304188,-9422.974625
122.897865,2294.638420,12953.603985,-9116.536426
122.898175,296.082377,11621.233289,-3370.820191
122.898485,-6217.729913,4219.173869,6741.640382
122.898794,1554.432478,10140.821405,5592.497135
122.899104,5329.482782,1332.370696,-1225.752797
122.899414,7624.121203,6069.688724,-1225.752797
122.899723,-1332.370696,5625.565159,7124.688131
122.900033,-6069.688724,12139.377449,2604.724693
122.900343,3478.967927,12657.521608,-8580.269578
122.900652,1776.494261,8586.388927,-11874.480219
122.900962,-814.226536,10732.986159,-6511.811733
122.901271,-9474.636058,7402.059420,3830.477490
122.901581,3775.050304,11769.274478,4519.963438
122.901891,6217.729913,7031.956449,-1685.410096
122.902200,7328.038826,7254.018232,-536.266849
122.902510,-370.102971,5699.585753,8503.660028
122.902820,-7031.956449,9548.656652,7814.174080
122.903129,4441.235652,18209.066173,-5669.106685
122.903439,-444.123565,11769.274478,-11184.994271
122.903749,3256.906145,16876.695478,-9576.193725
122.904058,-6291.750507,12509.480420,-4673.182538
122.904368,-592.164754,10658.965565,383.047749
122.904678,1480.411884,9252.574275,2068.457845
122.904987,3627.009116,2146.597232,5056.230287
122.905297,5403.503377,4515.256246,7660.954980
122.905607,-4663.297435,3552.988522,6665.030833
122.905916,-0.000000,11325.150913,-3294.210641
122.906226,148.041188,10881.027347,-10495.508323
122.906536,148.041188,11917.315666,-12563.966167
122.906845,-1850.514855,9104.533087,-8273.831378
122.907155,-6291.750507,9326.594869,383.047749
122.907464,-1998.556043,9474.636058,4443.353888
122.907774,-444.123565,3256.906145,5286.058936
122.908084,7328.038826,5773.606348,3753.867940
122.908393,-2294.638420,4145.153275,5822.325785
122.908703,-4219.173869,7846.182985,4749.792088
122.909013,592.164754,14063.912898,-7354.516781
122.909322,2368.659014,12287.418637,-15015.471761
122.909632,-1184.329507,15174.221811,-8503.660028
122.909942,-8956.491898,13915.871710,5515.887586
122.910251,592.164754,13989.892304,3600.648841
122.910561,2220.617826,5847.626942,1838.629195
122.910871,2664.741391,5625.565159,6818.249932
122.911180,-3478.967927,5255.462188,10648.727422
122.911490,-1850.514855,7624.121203,4443.353888
122.911800,3256.906145,17024.736666,-10648.727422
122.912109,-0.000000,16654.633695,-14709.033562
122.912419,-740.205942,19689.478057,-11414.822920
122.912729,-6365.771101,10214.842000,-2528.115143
122.913038,-2886.803174,10140.821405,3217.601092
122.913348,-518.144159,1850.514855,5439.278036
122.913658,3849.070898,444.123565,5439.278036
122.913967,2220.617826,1628.453072,8273.831378
122.914277,-4071.132681,3404.947333,6281.983084
122.914586,2886.803174,11991.336260,-5515.887586
122.914896,1776.494261,13471.748144,-13253.452115
122.915206,2294.638420,12213.398043,-12257.527968
122.915515,-5403.503377,9104.533087,-2987.772442
122.915825,-3627.009116,11177.109724,4290.134789
122.916135,296.082377,7624.121203,3753.867940
122.916444,6365.771101,3701.029710,4136.915689
122.916754,3701.029710,9104.533087,7201.297681
122.917064,-2960.823768,4219.173869,9346.365076
122.917373,2368.659014,13397.727550,919.314598
122.917683,1332.370696,17616.901420,-8963.317327
122.917993,8438.347739,15914.427753,-11261.603821
122.918302,-2590.720797,18135.045579,-6128.763984
122.918612,-7624.121203,9770.718434,7814.174080
122.918922,3775.050304,11325.150913,995.924147
122.919231,3034.844362,4515.256246,-3753.867940
122.919541,4737.318029,4737.318029,6052.154434
122.919851,-2368.659014,3849.070898,13100.233016
122.920160,-4293.194464,10436.903782,1225.752797
122.920470,5477.523971,16062.468941,-10189.070123
122.920779,1850.514855,11843.295072,-12870.404366
122.921089,-5033.400406,11991.336260,-8963.317327
122.921399,-5477.523971,5699.585753,2987.772442
122.921708,-1406.391290,11843.295072,0.000000
122.922018,2072.576638,1480.411884,-2911.162892
122.922328,4737.318029,2146.597232,1532.190996
122.922637,-2960.823768,3552.988522,9652.803275
122.922947,-3034.844362,7179.997637,9806.022374
122.923257,4811.338623,11473.192101,-8810.098227
122.923566,888.247130,8068.244768,-14555.814462
122.923876,-1702.473667,15248.242405,-7277.907231
122.924186,-6143.709319,10436.903782,-1991.848295
122.924495,-1850.514855,16728.654289,-4826.401637
122.924805,4367.215058,11325.150913,-3447.429741
122.925115,5255.462188,4663.297435,2298.286494
122.925424,-3849.070898,5181.441594,10265.679673
122.925734,-7402.059420,7476.080014,10648.727422
122.926044,4367.215058,12287.418637,-4673.182538
122.926353,5995.668130,12583.501014,-15245.300410
122.926663,2664.741391,17024.736666,-12334.137518
122.926972,-6661.853478,10362.883188,-2298.286494
122.927282,-1776.494261,14359.995275,-5898.935335
122.927592,-0.000000,3256.906145,-6435.202183
122.927901,3256.906145,4441.235652,3294.210641
122.928211,-2442.679609,3034.844362,11797.870669
122.928521,-4293.194464,962.267725,7048.078582
122.928830,3775.050304,11695.253884,-4519.963438
122.929140,1110.308913,7698.141797,-10265.679673
122.929450,3552.988522,15544.324782,-12334.137518
122.929759,-4737.318029,12435.459826,-6665.030833
122.930069,-9178.553681,11843.295072,0.000000
122.930379,5773.606348,12583.501014,-4519.963438
122.930688,888.247130,5107.421000,-2604.724693
122.930998,740.205942,7994.224174,9576.193725
122.931308,-8364.327145,5625.565159,10418.898773
122.931617,3478.967927,9400.615463,-5362.668486
122.931927,5921.647536,10807.006753,-10265.679673
122.932237,-518.144159,13471.748144,-8273.831378
122.932546,-2590.720797,13619.789333,-3370.820191
122.932856,-3775.050304,13175.665768,766.095498
122.933166,5625.565159,11177.109724,-4903.011187
122.933475,1406.391290,5181.441594,-306.438199
122.933785,-370.102971,4589.276840,6588.421283
122.934094,-4367.215058,5847.626942,8963.317327
122.934404,2146.597232,9178.553681,2068.457845
122.934714,7031.956449,10066.800811,-13866.328514
122.935023,-1554.432478,10732.986159,-8733.488677
122.935333,962.267725,16358.551318,-459.657299
122.935643,-4589.276840,7772.162391,-6435.202183
122.935952,2072.576638,11843.295072,-5515.887586
122.936262,444.123565,6069.688724,2834.553343
122.936572,222.061783,1924.535449,4290.134789
122.936881,3552.988522,5921.647536,4136.915689
122.937191,-5329.482782,10140.821405,5209.449386
122.937501,1628.453072,10955.047942,0.000000
122.937810,5477.523971,10807.006753,-7890.783629
122.938120,592.164754,11177.109724,-7967.393179
122.938430,-5699.585753,11695.253884,229.828649
122.938739,-0.000000,9770.718434,1149.143247
122.939049,3701.029710,12361.439231,-3753.867940
122.939359,1406.391290,9326.594869,-842.705048
122.939668,296.082377,8068.244768,5745.716235
122.939978,-5477.523971,7994.224174,2145.067394
122.940287,1332.370696,11843.295072,-2528.115143
122.940597,1776.494261,9918.759623,-4290.134789
122.940907,2072.576638,12139.377449,-7507.735880
122.941216,-2812.782580,6365.771101,-4596.572988
122.941526,-7994.224174,9548.656652,2068.457845
122.941836,888.247130,6513.812290,-1455.581446
122.942145,1036.288319,4589.276840,-3753.867940
122.942455,3701.029710,11103.089130,1685.410096
122.942765,-4145.153275,4737.318029,8044.002729
122.943074,-518.144159,12139.377449,-2145.067394
122.943384,1850.514855,9252.574275,-7124.688131
122.943694,1702.473667,9696.697840,-7584.345430
122.944003,-2738.761985,11917.315666,-4290.134789
122.944313,-4737.318029,9992.780217,-612.876398
122.944623,814.226536,10955.047942,-3217.601092
122.944932,-0.000000,8438.347739,536.266849
122.945242,2590.720797,9696.697840,383.047749
122.945552,-4367.215058,3923.091493,3217.601092
122.945861,-3034.844362,8364.327145,3064.381992
122.946171,592.164754,12287.418637,-3830.477490
122.946480,4737.318029,10955.047942,-8963.317327
122.946790,148.041188,12065.356855,-5822.325785
122.947100,-5329.482782,6069.688724,-459.657299
122.947409,-1110.308913,12139.377449,-2604.724693
122.947719,1258.350101,7772.162391,-4366.744339
122.948029,2516.700203,7328.038826,-1455.581446
122.948338,-4811.338623,8142.265362,6894.859482
122.948648,-4145.153275,7254.018232,306.438199
122.948958,5033.400406,10658.965565,-7890.783629
122.949267,4737.318029,10658.965565,-9576.193725
122.949577,2664.741391,11843.295072,-5515.887586
122.949887,-4959.379811,5033.400406,-612.876398
122.950196,-2442.679609,11695.253884,995.924147
122.950506,888.247130,5329.482782,153.219100
122.950816,4293.194464,6143.709319,-2221.676944
122.951125,-2664.741391,6513.812290,-153.219100
122.951435,-5847.626942,8068.244768,5209.449386
122.951745,3330.926739,16358.551318,-4826.401637
122.952054,5181.441594,10955.047942,-14709.033562
122.952364,4367.215058,12509.480420,-5822.325785
122.952674,-3997.112087,9918.759623,6281.983084
122.952983,-2368.659014,8290.306550,4290.134789
122.953293,5773.606348,9030.512492,689.485948
122.953602,3552.988522,7698.141797,919.314598
122.953912,2368.659014,7624.121203,2911.162892
122.954222,-5551.544565,8364.327145,0.000000
122.954531,1480.411884,12879.583391,-6511.811733
122.954841,4441.235652,10658.965565,-11108.384721
122.955151,2442.679609,11399.171507,-7737.564530
122.955460,-4515.256246,10436.903782,1762.019645
122.955770,-2442.679609,7105.977043,7507.735880
122.956080,3775.050304,9918.759623,-689.485948
122.956389,592.164754,4737.318029,-4213.525239
122.956699,4367.215058,6883.915261,1225.752797
122.957009,-3627.009116,3108.864956,4979.620737
122.957318,-4293.194464,13027.624579,-459.657299
122.957628,2960.823768,10066.800811,-7737.564530
122.957938,2812.782580,9992.780217,-11414.822920
122.958247,-1184.329507,9474.636058,-1991.848295
122.958557,-7846.182985,9252.574275,9269.755526
122.958867,2590.720797,10881.027347,-2528.115143
122.959176,4589.276840,4885.359217,-4213.525239
122.959486,2590.720797,7254.018232,3447.429741
122.959795,-6439.791695,8586.388927,8656.879127
122.960105,-444.123565,9474.636058,4136.915689
122.960415,7179.997637,15248.242405,-9499.584175
122.960724,-2220.617826,12583.501014,-10725.336972
122.961034,1924.535449,13619.789333,-4443.353888
122.961344,-6439.791695,11843.295072,-2604.724693
122.961653,-1332.370696,14878.139434,-1302.362347
122.961963,5699.585753,8438.347739,-459.657299
122.962273,1554.432478,6217.729913,2374.896044
122.962582,-3182.885551,5033.400406,9269.755526
122.962892,-4219.173869,6291.750507,5898.935335
122.963202,3256.906145,12139.377449,-11721.261119
122.963511,1998.556043,8734.430116,-16164.615008
122.963821,296.082377,11029.068536,-6128.763984
122.964131,-6291.750507,8586.388927,842.705048
122.964440,-1702.473667,10066.800811,3064.381992
122.964750,2590.720797,9548.656652,2145.067394
122.965060,444.123565,1702.473667,3524.039291
122.965369,814.226536,4811.338623,5132.839837
122.965679,-3627.009116,6513.812290,-536.266849
122.965988,-1776.494261,13101.645173,-8427.050478
122.966298,5847.626942,11473.192101,-13176.842566
122.966608,592.164754,11917.315666,-9346.365076
122.966917,-3552.988522,12139.377449,689.485948
122.967227,-4737.318029,10510.924376,4903.011187
122.967537,3627.009116,10066.800811,2911.162892
122.967846,1776.494261,6217.729913,919.314598
122.968156,2664.741391,8068.244768,3064.381992
122.968466,-1258.350101,8512.368333,3983.696590
122.968775,-2590.720797,14656.077652,-6818.249932
122.969085,6957.935855,13101.645173,-11261.603821
122.969395,1406.391290,12583.501014,-7660.954980
122.969704,-2516.700203,13619.789333,-2834.553343
122.970014,-5847.626942,7772.162391,5209.449386
122.970324,1258.350101,8438.347739,3830.477490
122.970633,2664.741391,5625.565159,-1149.143247
122.970943,6439.791695,4367.215058,-2145.067394
122.971253,-1258.350101,3923.091493,5209.449386
122.971562,-5551.544565,10214.842000,459.657299
122.971872,5847.626942,13693.809927,-10955.165621
122.972182,1776.494261,8216.285956,-12640.575717
122.972491,-3701.029710,11843.295072,-2987.772442
122.972801,-6069.688724,9326.594869,919.314598
122.973110,-666.185348,8882.471304,-306.438199
122.973420,4219.173869,7476.080014,383.047749
122.973730,5033.400406,3552.988522,2911.162892
122.974039,1776.494261,8586.388927,6281.983084
122.974349,-4441.235652,9548.656652,7814.174080
122.974659,4737.318029,11843.295072,-4903.011187
122.974968,518.144159,10807.006753,-10878.556072
122.975278,-666.185348,11695.253884,-5439.278036
122.975588,-2220.617826,12583.501014,-2298.286494
122.975897,-3182.885551,12953.603985,-3140.991542
122.976207,4589.276840,11103.089130,-383.047749
122.976517,-444.123565,6661.853478,2451.505594
122.976826,1998.556043,7476.080014,6358.592633
122.977136,-814.226536,5181.441594,4673.182538
122.977446,-1406.391290,11917.315666,-3677.258390
122.977755,4219.173869,9622.677246,-7507.735880
122.978065,1480.411884,11399.171507,-10801.946522
122.978375,-2072.576638,10214.842000,-4060.306139
122.978684,-4293.194464,10658.965565,3983.696590
122.978994,1924.535449,9252.574275,995.924147
122.979303,-592.164754,2960.823768,-2451.505594
122.979613,3849.070898,5921.647536,5439.278036
122.979923,-4367.215058,7105.977043,3294.210641
122.980232,-1924.535449,8512.368333,-4903.011187
122.980542,5477.523971,13693.809927,-9193.145976
122.980852,-2590.720797,11843.295072,-8886.707777
122.981161,-444.123565,12731.542202,-5286.058936
122.981471,-4737.318029,12509.480420,3064.381992
122.981781,-222.061783,13027.624579,3600.648841
122.982090,5255.462188,9178.553681,-1302.362347
122.982400,2664.741391,5699.585753,3983.696590
122.982710,-2516.700203,5033.400406,8273.831378
122.983019,-4959.379811,8216.285956,1532.190996
122.983329,5255.462188,11843.295072,-9499.584175
122.983639,962.267725,12139.377449,-10418.898773
122.983948,-740.205942,15248.242405,-6052.154434
122.984258,-5847.626942,12213.398043,-1608.800546
122.984568,-888.247130,11991.336260,2987.772442
122.984877,3256.906145,7254.018232,-153.219100
122.985187,4071.132681,2886.803174,1915.238745
122.985496,1776.494261,4441.235652,8580.269578
122.985806,-6365.771101,3849.070898,7967.393179
122.986116,2960.823768,13767.830521,-2757.943793
122.986425,3552.988522,11917.315666,-13789.718964
122.986735,-0.000000,12065.356855,-10955.165621
122.987045,-4367.215058,13989.892304,612.876398
122.987354,-2368.659014,13249.686362,0.000000
122.987664,5033.400406,8586.388927,-4519.963438
122.987974,2738.761985,3182.885551,5439.278036
122.988283,-0.000000,4737.318029,13023.623466
122.988593,-5921.647536,6809.894666,4366.744339
122.988903,2886.803174,11621.233289,-2298.286494
122.989212,4737.318029,11029.068536,-10035.851024
122.989522,2220.617826,11917.315666,-10189.070123
122.989832,-5033.400406,18061.024985,-1302.362347
122.990141,-5255.462188,14656.077652,76.609550
122.990451,5329.482782,13397.727550,-5439.278036
122.990761,888.247130,5329.482782,-1225.752797
122.991070,-666.185348,6883.915261,10495.508323
122.991380,-888.247130,8660.409521,6894.859482
122.991690,1110.308913,5773.606348,-1991.848295
122.991999,6069.688724,12879.583391,-6511.811733
122.992309,-0.000000,8956.491898,-7584.345430
122.992618,-1036.288319,10955.047942,-4366.744339
122.992928,-2812.782580,8956.491898,2068.457845
122.993238,1184.329507,10214.842000,-612.876398
122.993547,4737.318029,6661.853478,-4903.011187
122.993857,740.205942,5773.606348,3294.210641
122.994167,-1332.370696,4885.359217,11644.651570
122.994476,-5255.462188,7550.100608,3983.696590
122.994786,7031.956449,10732.986159,-7201.297681
122.995096,4589.276840,10881.027347,-11338.213370
122.995405,-3923.091493,11029.068536,-2451.505594
122.995715,-3330.926739,11251.130318,842.705048
122.996025,1554.432478,15174.221811,-4903.011187
122.996334,4293.194464,9474.636058,-6665.030833
122.996644,1258.350101,6069.688724,4366.744339
122.996953,-148.041188,8512.368333,11797.870669
122.997263,-5625.565159,8882.471304,4136.915689
122.997573,4515.256246,12065.356855,-3217.601092
122.997882,4589.276840,9474.636058,-8273.831378
122.998192,-1554.432478,9770.718434,-6665.030833
122.998501,-5773.606348,13989.892304,-3677.258390
122.998811,-2220.617826,12361.439231,-4060.306139
122.999121,4737.318029,10436.903782,-7967.393179
122.999430,1036.288319,5551.544565,0.000000
122.999740,-4367.215058,3330.926739,13176.842566
123.000049,-4367.215058,5921.647536,8197.221829
123.000359,5255.462188,7994.224174,-5745.716235
123.000669,3627.009116,8882.471304,-8427.050478
123.000978,-2294.638420,11103.089130,-3447.429741
123.001288,-2220.617826,14730.098246,-3217.601092
123.001597,-4293.194464,13323.706956,-5439.278036
123.001907,4071.132681,12879.583391,-4290.134789
123.002217,1628.453072,8216.285956,-689.485948
123.002526,-740.205942,4071.132681,6971.469032
123.002836,-3627.009116,7179.997637,7660.954980
123.003146,-518.144159,6587.832884,612.876398
123.003455,8290.306550,10140.821405,-6205.373534
123.003765,-740.205942,8808.450710,-5592.497135
123.004074,-1776.494261,17098.757260,1532.190996
123.004384,-5181.441594,13767.830521,-689.485948
123.004694,2738.761985,11325.150913,-8197.221829
123.005003,2516.700203,12435.459826,-3217.601092
123.005313,-0.000000,6291.750507,4366.744339
123.005622,-4515.256246,8142.265362,3447.429741
123.005932,-2368.659014,8364.327145,1378.971896
123.006242,5033.400406,11547.212695,-2757.943793
123.006551,2146.597232,9178.553681,-6052.154434
123.006861,-1850.514855,11843.295072,-383.047749
123.007170,-2442.679609,9178.553681,4443.353888
123.007480,2886.803174,8216.285956,-5669.106685
123.007790,3997.112087,9474.636058,-5132.839837
123.008099,-3923.091493,5033.400406,4903.011187
123.008409,888.247130,6069.688724,5745.716235
123.008719,-1850.514855,5551.544565,-995.924147
123.009028,3627.009116,11103.089130,-1378.971896
123.009338,3923.091493,10436.903782,-3983.696590
123.009647,-1628.453072,9992.780217,-3370.820191
123.009957,-222.061783,11769.274478,-1608.800546
123.010267,-2294.638420,11991.336260,-919.314598
123.010576,4293.194464,9844.739029,-4596.572988
123.010886,-370.102971,7402.059420,383.047749
123.011195,-1998.556043,7179.997637,5286.058936
123.011505,-2368.659014,6291.750507,2451.505594
123.011815,2664.741391,11473.192101,-2834.553343
123.012124,2960.823768,11695.253884,-5975.544884
123.012434,-0.000000,8364.327145,-6358.592633
123.012743,-1036.288319,13471.748144,766.095498
123.013053,-3404.947333,11473.192101,153.219100
123.013363,4071.132681,8364.327145,-4366.744339
123.013672,3552.988522,6069.688724,-766.095498
123.013982,-518.144159,5995.668130,6435.202183
123.014292,-5181.441594,5995.668130,4826.401637
123.014601,666.185348,7105.977043,-2757.943793
123.014911,962.267725,12435.459826,-5056.230287
123.015220,-814.226536,8290.306550,-7737.564530
123.015530,1258.350101,14582.057057,-7354.516781
123.015840,-5625.565159,15100.201217,-1302.362347
123.016149,-222.061783,11843.295072,1072.533697
123.016459,3552.988522,9474.636058,-3524.039291
123.016768,-592.164754,5033.400406,1225.752797
123.017078,-2368.659014,8808.450710,5209.449386
123.017388,-1628.453072,7846.182985,842.705048
123.017697,6957.935855,12435.459826,-4903.011187
123.018007,-888.247130,9622.677246,-2451.505594
123.018316,-2220.617826,11473.192101,1685.410096
123.018626,-3627.009116,13175.665768,-536.266849
123.018936,1554.432478,10214.842000,-5286.058936
123.019245,2812.782580,11029.068536,-4290.134789
123.019555,-2146.597232,5921.647536,1455.581446
123.019865,-0.000000,10362.883188,4213.525239
123.020174,-4959.379811,6587.832884,1455.581446
123.020484,1332.370696,12065.356855,-1991.848295
123.020793,1406.391290,9326.594869,-5975.544884
123.021103,296.082377,8586.388927,-4979.620737
123.021413,-2886.803174,12953.603985,2221.676944
123.021722,-3330.926739,9696.697840,459.657299
123.022032,4959.379811,9104.533087,-3217.601092
123.022341,592.164754,3182.885551,-2374.896044
123.022651,222.061783,7624.121203,6281.983084
123.022961,-7476.080014,10066.800811,5592.497135
123.023270,888.247130,8956.491898,-3294.210641
123.023580,6365.771101,12287.418637,-10495.508323
123.023889,1850.514855,10807.006753,-8810.098227
123.024199,-5181.441594,10732.986159,5362.668486
123.024509,-4589.276840,14285.974681,4213.525239
123.024818,6143.709319,10732.986159,-1072.533697
123.025128,3775.050304,8882.471304,-1225.752797
123.025438,-1702.473667,8734.430116,8503.660028
123.025747,-7105.977043,5995.668130,11031.775171
123.026057,518.144159,10436.903782,-6511.811733
123.026366,7105.977043,13989.892304,-14096.157163
123.026676,-1036.288319,12213.398043,-8044.002729
123.026986,-2738.761985,11325.150913,2451.505594
123.027295,-5403.503377,10807.006753,3370.820191
123.027605,2960.823768,7402.059420,-1762.019645
123.027914,1628.453072,3108.864956,0.000000
123.028224,-370.102971,1850.514855,6435.202183
123.028534,-3256.906145,4145.153275,7201.297681
123.028843,-2960.823768,9030.512492,-1838.629195
123.029153,4441.235652,12065.356855,-8656.879127
123.029462,1184.329507,8512.368333,-10418.898773
123.029772,-1480.411884,9400.615463,-2298.286494
123.030082,-5921.647536,14211.954086,3524.039291
123.030391,222.061783,9844.739029,-1149.143247
123.030701,4071.132681,7846.182985,-1378.971896
123.031011,666.185348,4293.194464,6435.202183
123.031320,-2442.679609,9474.636058,10648.727422
123.031630,-1554.432478,8956.491898,-1378.971896
123.031939,5625.565159,13027.624579,-12334.137518
123.032249,518.144159,13471.748144,-9039.926876
123.032559,-592.164754,13323.706956,-2604.724693
123.032868,-2072.576638,16210.510130,-7277.907231
123.033178,-370.102971,12361.439231,-1455.581446
123.033487,4219.173869,7254.018232,4213.525239
123.033797,-0.000000,2960.823768,4826.401637
123.034107,-2664.741391,6513.812290,6818.249932
123.034416,-4367.215058,7846.182985,2068.457845
123.034726,5773.606348,11325.150913,-11414.822920
123.035035,3404.947333,10288.862594,-14862.252661
123.035345,-2516.700203,11695.253884,-3830.477490
123.035655,-4885.359217,12139.377449,-2451.505594
123.035964,-1628.453072,7105.977043,-919.314598
123.036274,4959.379811,9178.553681,-1225.752797
123.036584,-2812.782580,2516.700203,2451.505594
123.036893,2516.700203,4293.194464,8197.221829
123.037203,-4145.153275,5995.668130,-1225.752797
123.037512,2220.617826,8882.471304,-8656.879127
123.037822,2442.679609,12583.501014,-8810.098227
123.038132,-3775.050304,11695.253884,-4903.011187
123.038441,-2146.597232,15322.262999,1072.533697
123.038751,-2368.659014,15026.180623,-2528.115143
123.039060,3849.070898,10732.986159,-2834.553343
123.039370,1406.391290,6217.729913,3217.601092
123.039680,1110.308913,6661.853478,8886.707777
123.039989,-3404.947333,9770.718434,6741.640382
123.040299,-740.205942,9770.718434,-2221.676944
123.040608,5847.626942,12287.418637,-9422.974625
123.040918,-2146.597232,11621.233289,-9039.926876
123.041228,-2664.741391,15470.304188,-1225.752797
123.041537,-5921.647536,15766.386565,-2911.162892
123.041847,3256.906145,9178.553681,-5286.058936
123.042157,1480.411884,4663.297435,459.657299
123.042466,-1628.453072,5255.462188,7660.954980
123.042776,-592.164754,4293.194464,5439.278036
123.043085,-5699.585753,5329.482782,-766.095498
123.043395,4737.318029,10807.006753,-6511.811733
123.043705,888.247130,7698.141797,-11338.213370
123.044014,-1702.473667,12583.501014,-6435.202183
123.044324,-5773.606348,14063.912898,229.828649
123.044633,296.082377,6365.771101,-3447.429741
123.044943,3701.029710,7846.182985,-2834.553343
123.045253,-2220.617826,3775.050304,6128.763984
123.045562,1036.288319,3849.070898,10189.070123
123.045872,-3997.112087,9178.553681,842.705048
123.046181,5181.441594,11325.150913,-6205.373534
123.046491,666.185348,12879.583391,-7507.735880
123.046801,-1184.329507,13767.830521,-6052.154434
123.047110,-4959.379811,16654.633695,-8120.612279
123.047420,-1332.370696,13175.665768,-8044.002729
123.047730,5181.441594,10955.047942,-1991.848295
123.048039,2072.576638,4959.379811,4903.011187
123.048349,-962.267725,4737.318029,11261.603821
123.048658,-4441.235652,7624.121203,8503.660028
123.048968,1332.370696,5181.441594,-1225.752797
123.049278,3849.070898,12065.356855,-10265.679673
123.049587,-2590.720797,12657.521608,-11338.213370
123.049897,-2442.679609,16284.530724,-8120.612279
123.050206,-666.185348,9548.656652,-6281.983084
123.050516,1110.308913,9178.553681,-3064.381992
123.050826,-1332.370696,5847.626942,6052.154434
123.051135,1776.494261,1480.411884,12717.185267
123.051445,-1776.494261,4071.132681,8273.831378
123.051754,-3182.885551,6217.729913,842.705048
123.052064,5625.565159,11029.068536,-7201.297681
123.052374,1036.288319,9918.759623,-15781.567259
123.052683,-1850.514855,17542.880825,-9499.584175
123.052993,-1776.494261,11991.336260,-1225.752797
123.053303,-0.000000,9548.656652,-1838.629195
123.053612,3404.947333,7920.203579,1762.019645
123.053922,-1480.411884,2220.617826,11874.480219
123.054231,-962.267725,5033.400406,9193.145976
123.054541,-1850.514855,7179.997637,-536.266849
123.054851,5921.647536,12657.521608,-9269.755526
123.055160,-592.164754,15544.324782,-14632.424012
123.055470,-962.267725,18579.169144,-10035.851024
123.055779,-148.041188,14804.118840,-2911.162892
123.056089,-1258.350101,10066.800811,-2221.676944
123.056399,4219.173869,8808.450710,-689.485948
123.056708,-1480.411884,-0.000000,9652.803275
123.057018,592.164754,4811.338623,9039.926876
123.057327,-3108.864956,2960.823768,4136.915689
123.057637,4589.276840,8660.409521,-4673.182538
123.057947,2072.576638,14211.954086,-12027.699319
123.058256,-1332.370696,12139.377449,-12180.918418
123.058566,-1776.494261,16210.510130,-4060.306139
123.058876,-4515.256246,10807.006753,-2374.896044
123.059185,2812.782580,10436.903782,-2757.943793
123.059495,2294.638420,3034.844362,5132.839837
123.059804,-518.144159,3552.988522,12487.356617
123.060114,-7179.997637,5403.503377,9269.755526
123.060424,5329.482782,7846.182985,-2374.896044
123.060733,4441.235652,11991.336260,-11184.994271
123.061043,-3182.885551,12805.562797,-10189.070123
123.061352,-4145.153275,17616.901420,-2757.943793
123.061662,-4811.338623,14508.036463,-3907.087040
123.061972,3552.988522,12583.501014,-7584.345430
123.062281,1110.308913,6513.812290,536.266849
123.062591,370.102971,3552.988522,9039.926876
123.062900,-3627.009116,6365.771101,7277.907231
123.063210,1110.308913,5699.585753,-153.219100
123.063520,6365.771101,10955.047942,-7890.783629
123.063829,-666.185348,9474.636058,-9346.365076
123.064139,-1406.391290,13545.768739,-995.924147
123.064449,-5477.523971,11547.212695,-1838.629195
123.064758,1036.288319,8586.388927,-8273.831378
123.065068,5477.523971,7328.038826,-4519.963438
123.065377,-1776.494261,3701.029710,4979.620737
123.065687,-2294.638420,7254.018232,7048.078582
123.065997,1184.329507,7846.182985,2221.676944
123.066306,4515.256246,9918.759623,-5898.935335
123.066616,-0.000000,10955.047942,-6818.249932
123.066925,-2294.638420,13101.645173,-842.705048
123.067235,-5477.523971,16136.489536,-3830.477490
123.067545,2664.741391,12361.439231,-10035.851024
123.067854,5329.482782,10732.986159,-7124.688131
123.068164,518.144159,6661.853478,3753.867940
123.068473,-1036.288319,6883.915261,14096.157163
123.068783,-2738.761985,6809.894666,7354.516781
123.069093,5699.585753,8068.244768,-2528.115143
123.069402,2146.597232,11251.130318,-6205.373534
123.069712,-3849.070898,11695.253884,-4136.915689
123.070022,-5921.647536,13767.830521,-3294.210641
123.070331,1998.556043,13545.768739,-12563.966167
123.070641,5403.503377,10362.883188,-11721.261119
123.070950,-666.185348,4663.297435,3983.696590
123.071260,-3478.967927,2960.823768,14938.862211
123.071570,-2220.617826,5625.565159,8656.879127
123.071879,3849.070898,7624.121203,459.657299
123.072189,3256.906145,8438.347739,-4519.963438
123.072498,-1776.494261,9844.739029,-6435.202183
123.072808,-1776.494261,14582.057057,-3294.210641
123.073118,-1184.329507,14952.160028,-10955.165621
123.073427,4737.318029,12139.377449,-11951.089769
123.073737,1184.329507,8438.347739,0.000000
123.074046,-3701.029710,6069.688724,12947.013916
123.074356,-1924.535449,5699.585753,9806.022374
123.074666,4589.276840,5995.668130,-842.705048
123.074975,3701.029710,8068.244768,-2451.505594
123.075285,-2442.679609,7624.121203,306.438199
123.075595,-370.102971,16876.695478,-2145.067394
123.075904,444.123565,14137.933492,-10572.117872
123.076214,1036.288319,13693.809927,-9422.974625
123.076523,-0.000000,8512.368333,995.924147
123.076833,-2886.803174,5403.503377,6358.592633
123.077143,-2664.741391,6587.832884,7507.735880
123.077452,-1480.411884,7402.059420,383.047749
123.077762,3552.988522,7920.203579,-3983.696590
123.078071,-592.164754,8512.368333,-3140.991542
123.078381,-1554.432478,14656.077652,-2681.334243
123.078691,-888.247130,8956.491898,-5209.449386
123.079000,1184.329507,11325.150913,-7660.954980
123.079310,-0.000000,9104.533087,-689.485948
123.079619,-222.061783,4885.359217,5898.935335
123.079929,-2590.720797,5477.523971,7124.688131
123.080239,-2442.679609,6661.853478,766.095498
123.080548,5033.400406,7994.224174,-3294.210641
123.080858,1258.350101,8808.450710,-4366.744339
123.081168,-444.123565,13915.871710,-2987.772442
123.081477,-1776.494261,13915.871710,-3447.429741
123.081787,148.041188,12953.603985,-7660.954980
123.082096,3182.885551,9400.615463,-2451.505594
123.082406,-1850.514855,6735.874072,3600.648841
123.082716,-962.267725,8512.368333,3753.867940
123.083025,222.061783,6291.750507,459.657299
123.083335,2886.803174,10881.027347,-1991.848295
123.083644,296.082377,11325.150913,-3753.867940
123.083954,2368.659014,8882.471304,-4290.134789
123.084264,-74.020594,14804.118840,-2757.943793
123.084573,222.061783,11843.295072,-4903.011187
123.084883,-0.000000,7402.059420,-3830.477490
123.085192,-814.226536,5255.462188,766.095498
123.085502,370.102971,4959.379811,3983.696590
123.085812,-1776.494261,4885.359217,1915.238745
123.086121,666.185348,8660.409521,-2451.505594
123.086431,3330.926739,8734.430116,-4903.011187
123.086741,518.144159,8586.388927,-4443.353888
123.087050,-4145.153275,13693.809927,-76.609550
123.087360,-888.247130,11695.253884,-1608.800546
123.087669,2442.679609,11029.068536,-4826.401637
123.087979,1480.411884,6587.832884,-2528.115143
123.088289,-1258.350101,7031.956449,2374.896044
123.088598,-3552.988522,7920.203579,2451.505594
123.088908,1184.329507,8512.368333,-383.047749
123.089217,4515.256246,8882.471304,-4903.011187
123.089527,1776.494261,11029.068536,-3447.429741
123.089837,-814.226536,14656.077652,3600.648841
123.090146,-3404.947333,14508.036463,-1532.190996
123.090456,3627.009116,13545.768739,-6358.592633
123.090765,1702.473667,8882.471304,-4290.134789
123.091075,-1184.329507,6143.709319,1225.752797
123.091385,-2294.638420,10288.862594,2451.505594
123.091694,-1110.308913,9696.697840,-1378.971896
123.092004,4145.153275,9474.636058,-4903.011187
123.092314,1850.514855,8438.347739,-2911.162892
123.092623,-148.041188,9252.574275,1608.800546
123.092933,-3775.050304,8586.388927,1838.629195
123.093242,296.082377,11103.089130,-2911.162892
123.093552,4959.379811,10436.903782,-7814.174080
123.093862,-2368.659014,6513.812290,-2834.553343
123.094171,-74.020594,8512.368333,8733.488677
123.094481,-4219.173869,7402.059420,2451.505594
123.094790,4441.235652,9548.656652,-5362.668486
123.095100,4071.132681,10881.027347,-3907.087040
123.095409,-1480.411884,7328.038826,689.485948
123.095719,-3997.112087,11843.295072,3524.039291
123.096028,2220.617826,9030.512492,-2145.067394
123.096337,4811.338623,10288.862594,-5975.544884
123.096647,-1998.556043,9474.636058,229.828649
123.096956,-1702.473667,9770.718434,7737.564530
123.097266,-4885.359217,9178.553681,2987.772442
123.097575,1554.432478,12805.562797,-7507.735880
123.097885,4367.215058,11769.274478,-9346.365076
123.098194,-2294.638420,10140.821405,-3217.601092
123.098504,740.205942,10584.944971,2757.943793
123.098813,-1924.535449,7920.203579,-459.657299
123.099123,3849.070898,9696.697840,-1685.410096
123.099432,1998.556043,3997.112087,2221.676944
123.099742,-666.185348,2146.597232,7124.688131
123.100051,-3775.050304,5255.462188,6358.592633
123.100361,-814.226536,11177.109724,-4519.963438
123.100670,3997.112087,13323.706956,-10955.165621
123.100979,-444.123565,12213.398043,-8044.002729
123.101289,-2886.803174,12139.377449,-1532.190996
123.101598,-3552.988522,11473.192101,-2145.067394
123.101908,5625.565159,12583.501014,-3753.867940
123.102217,888.247130,7772.162391,1762.019645
123.102527,814.226536,4367.215058,9806.022374
123.102836,-6069.688724,3330.926739,8733.488677
123.103146,148.041188,10214.842000,-1838.629195
123.103455,7550.100608,12139.377449,-11338.213370
123.103765,-444.123565,10584.944971,-9806.022374
123.104074,-1628.453072,15100.201217,-1762.019645
123.104384,-3034.844362,12805.562797,-153.219100
123.104693,222.061783,10955.047942,-5286.058936
123.105003,1628.453072,8068.244768,1072.533697
123.105312,-518.144159,2368.659014,8197.221829
123.105621,-1702.473667,4811.338623,6665.030833
123.105931,-1776.494261,6661.853478,0.000000
123.106240,2590.720797,9696.697840,-6665.030833
123.106550,2738.761985,9400.615463,-9116.536426
123.106859,-1776.494261,11177.109724,-4826.401637
123.107169,-3034.844362,12287.418637,-1685.410096
123.107478,1406.391290,11843.295072,-3370.820191
123.107788,1480.411884,8882.471304,-1915.238745
123.108097,-1998.556043,3478.967927,7354.516781
123.108407,-1258.350101,5921.647536,10955.165621
123.108716,-1702.473667,7772.162391,-2604.724693
123.109026,4737.318029,10140.821405,-12180.918418
123.109335,2294.638420,11177.109724,-9652.803275
123.109645,-2886.803174,12287.418637,-2604.724693
123.109954,1480.411884,15766.386565,2681.334243
123.110264,-2368.659014,9326.594869,306.438199
123.110573,3627.009116,7846.182985,2221.676944
123.110882,1702.473667,4219.173869,4290.134789
123.111192,-74.020594,6735.874072,4826.401637
123.111501,-4293.194464,9696.697840,1302.362347
123.111811,3627.009116,11103.089130,-8197.221829
123.112120,3034.844362,12583.501014,-12870.404366
123.112430,-2146.597232,13175.665768,-6741.640382
123.112739,-4293.194464,12805.562797,-995.924147
123.113049,-3552.988522,9474.636058,76.609550
123.113358,3256.906145,5625.565159,-306.438199
123.113668,2220.617826,1924.535449,6128.763984
123.113977,-888.247130,1850.514855,8273.831378
123.114287,-1258.350101,4737.318029,1302.362347
123.114596,-1776.494261,12435.459826,-4060.306139
123.114906,3182.885551,15544.324782,-10801.946522
123.115215,-1554.432478,12065.356855,-9959.241474
123.115524,-1110.308913,13841.851115,-5822.325785
123.115834,-2442.679609,12583.501014,-2834.553343
123.116143,296.082377,8586.388927,-3217.601092
123.116453,2072.576638,5403.503377,5745.716235
123.116762,740.205942,222.061783,11338.213370
123.117072,-4959.379811,3923.091493,11414.822920
123.117381,-814.226536,6735.874072,4596.572988
123.117691,5995.668130,12731.542202,-7737.564530
123.118000,-962.267725,15840.407159,-10572.117872
123.118310,-3775.050304,17912.983796,-4979.620737
123.118619,-1406.391290,19911.539840,-5592.497135
123.118929,518.144159,9548.656652,-11031.775171
123.119238,2072.576638,9030.512492,-229.828649
123.119548,-1702.473667,3478.967927,11261.603821
123.119857,2146.597232,2146.597232,12334.137518
123.120166,-2664.741391,5551.544565,6971.469032
123.120476,444.123565,7105.977043,459.657299
123.120785,3256.906145,10362.883188,-8963.317327
123.121095,-666.185348,13175.665768,-12257.527968
123.121404,-3849.070898,16136.489536,-7277.907231
123.121714,-3552.988522,13545.768739,-5439.278036
123.122023,5033.400406,9178.553681,-5209.449386
123.122333,-444.123565,3478.967927,5822.325785
123.122642,-888.247130,2294.638420,12563.966167
123.122952,-1702.473667,3108.864956,7507.735880
123.123261,-2220.617826,8882.471304,919.314598
123.123571,3182.885551,11325.150913,-6281.983084
123.123880,-814.226536,11769.274478,-12027.699319
123.124190,814.226536,18949.272115,-10801.946522
123.124499,-1850.514855,13915.871710,-6435.202183
123.124808,4219.173869,10140.821405,-4443.353888
123.125118,2368.659014,6661.853478,7967.393179
123.125427,-3256.906145,2812.782580,14402.595362
123.125737,-2738.761985,-0.000000,9346.365076
123.126046,1554.432478,7846.182985,-766.095498
123.126356,6439.791695,11251.130318,-11031.775171
123.126665,-1850.514855,13175.665768,-11874.480219
123.126975,-2146.597232,17172.777854,-6665.030833
123.127284,-666.185348,13027.624579,-4366.744339
123.127594,1554.432478,12139.377449,-6205.373534
123.127903,1628.453072,6069.688724,1838.629195
123.128213,-2738.761985,1184.329507,11338.213370
123.128522,444.123565,2072.576638,10265.679673
123.128832,-1036.288319,5033.400406,1838.629195
123.129141,2812.782580,9992.780217,-7124.688131
123.129450,2738.761985,10140.821405,-12104.308868
123.129760,-2442.679609,12509.480420,-10418.898773
123.130069,-1628.453072,14063.912898,-2604.724693
123.130379,-2664.741391,11177.109724,-1532.190996
123.130688,148.041188,6883.915261,-842.705048
123.130998,2442.679609,4663.297435,2528.115143
123.131307,-3034.844362,5551.544565,8197.221829
123.131617,-1258.350101,5773.606348,7354.516781
123.131926,4293.194464,11251.130318,-2374.896044
123.132236,2812.782580,11843.295072,-10035.851024
123.132545,-1776.494261,15396.283594,-5822.325785
123.132855,-5107.421000,14359.995275,-2451.505594
123.133164,-3552.988522,13693.809927,-5898.935335
123.133474,4367.215058,10288.862594,-7967.393179
123.133783,296.082377,6069.688724,0.000000
123.134093,-1036.288319,4293.194464,9729.412825
123.134402,-2072.576638,6439.791695,8733.488677
123.134711,1998.556043,8660.409521,-612.876398
123.135021,2812.782580,9474.636058,-6435.202183
123.135330,-1850.514855,11621.233289,-4213.525239
123.135640,148.041188,11695.253884,-459.657299
123.135949,-2368.659014,11695.253884,-6435.202183
123.136259,3108.864956,10288.862594,-9193.145976
123.136568,-0.000000,3034.844362,-1225.752797
123.136878,-2072.576638,4959.379811,7814.174080
123.137187,-2368.659014,6513.812290,8273.831378
123.137497,222.061783,10584.944971,689.485948
123.137806,4441.235652,9696.697840,-6128.763984
123.138116,-1258.350101,11695.253884,-4519.963438
123.138425,-3552.988522,13989.892304,3217.601092
123.138735,-2368.659014,14508.036463,-5056.230287
123.139044,2664.741391,13545.768739,-11874.480219
123.139353,2442.679609,7254.018232,-4749.792088
123.139663,-4219.173869,4811.338623,8886.707777
123.139972,74.020594,7698.141797,7814.174080
123.140282,-1036.288319,10288.862594,1455.581446
123.140591,5847.626942,9252.574275,-3830.477490
123.140901,-1554.432478,8586.388927,-2834.553343
123.141210,-1998.556043,13397.727550,-2451.505594
123.141520,-2294.638420,13915.871710,-5286.058936
123.141829,1776.494261,12065.356855,-8810.098227
123.142139,3552.988522,8290.306550,-6894.859482
123.142448,-2886.803174,6661.853478,3447.429741
123.142758,-2886.803174,2738.761985,14325.985813
123.143067,-1554.432478,5625.565159,6205.373534
123.143377,2516.700203,10066.800811,-5286.058936
123.143686,1554.432478,9178.553681,-4903.011187
123.143995,-1110.308913,13989.892304,-4519.963438
123.144305,-2368.659014,10955.047942,-5209.449386
123.144614,-2738.761985,14434.015869,-7354.516781
123.144924,4737.318029,11843.295072,-4596.572988
123.145233,296.082377,5329.482782,0.000000
123.145543,-3775.050304,5995.668130,10801.946522
123.145852,-3775.050304,2220.617826,10648.727422
123.146162,4811.338623,6365.771101,-4749.792088
123.146471,2516.700203,8068.244768,-4979.620737
123.146781,-3923.091493,12287.418637,1072.533697
123.147090,-1776.494261,13767.830521,-7814.174080
123.147400,370.102971,14508.036463,-12640.575717
123.147709,1702.473667,11621.233289,-8350.440928
123.148019,-1776.494261,9770.718434,0.000000
123.148328,-222.061783,6439.791695,3217.601092
123.148637,-2146.597232,5181.441594,6511.811733
123.148947,-1184.329507,7550.100608,3600.648841
123.149256,6069.688724,6883.915261,-4979.620737
123.149566,-296.082377,6365.771101,-4596.572988
123.149875,222.061783,10955.047942,1378.971896
123.150185,-0.000000,15322.262999,-6511.811733
123.150494,2664.741391,12805.562797,-10725.336972
123.150804,-592.164754,9548.656652,536.266849
123.151113,-2220.617826,7328.038826,4903.011187
123.151423,1480.411884,3552.988522,-919.314598
123.151732,-1776.494261,7846.182985,-1455.581446
123.152042,2072.576638,8956.491898,-2834.553343
123.152351,-0.000000,9696.697840,-3524.039291
123.152661,222.061783,13915.871710,-3677.258390
123.152970,-2886.803174,14730.098246,-2145.067394
123.153279,4441.235652,13323.706956,-8733.488677
123.153589,1850.514855,7920.203579,-2911.162892
123.153898,-5995.668130,7105.977043,6205.373534
123.154208,-3256.906145,6883.915261,5439.278036
123.154517,-1406.391290,7920.203579,-1991.848295
123.154827,1480.411884,8808.450710,-4136.915689
123.155136,1110.308913,8956.491898,-2451.505594
123.155446,-1628.453072,11917.315666,-4213.525239
123.155755,-2516.700203,11325.150913,-842.705048
123.156065,-296.082377,12361.439231,-4213.525239
123.156374,2590.720797,8216.285956,-6205.373534
123.156684,-0.000000,7624.121203,229.828649
123.156993,-518.144159,7105.977043,3983.696590
123.157303,-1554.432478,4959.379811,2298.286494
123.157612,296.082377,8142.265362,-2987.772442
123.157922,1480.411884,9992.780217,-2834.553343
123.158231,-1110.308913,9474.636058,-2757.943793
123.158540,-2960.823768,10140.821405,-4903.011187
123.158850,-3997.112087,13397.727550,-3600.648841
123.159159,3404.947333,11177.109724,-5669.106685
123.159469,1480.411884,9474.636058,-4290.134789
123.159778,-3182.885551,8586.388927,4519.963438
123.160088,-1628.453072,5847.626942,6435.202183
123.160397,2368.659014,7105.977043,-4136.915689
123.160707,1924.535449,8216.285956,-4443.353888
123.161016,-1924.535449,9474.636058,2068.457845
123.161326,2146.597232,9918.759623,-153.219100
123.161635,-2072.576638,11621.233289,-4366.744339
123.161945,148.041188,10436.903782,-1532.190996
123.162254,592.164754,9474.636058,-2987.772442
123.162564,518.144159,7994.224174,-2911.162892
123.162873,-2590.720797,9992.780217,3677.258390
123.163182,-4959.379811,8068.244768,1991.848295
123.163492,3997.112087,8142.265362,-6128.763984
123.163801,1110.308913,7402.059420,-4903.011187
123.164111,-2664.741391,9622.677246,4366.744339
123.164420,370.102971,10288.862594,-842.705048
123.164730,1036.288319,9030.512492,-4979.620737
123.165039,2738.761985,10288.862594,-1915.238745
123.165349,-148.041188,7994.224174,1302.362347
123.165658,370.102971,7920.203579,5439.278036
123.165968,-2072.576638,11029.068536,153.219100
123.166277,962.267725,10807.006753,-5209.449386
123.166587,2516.700203,10288.862594,-7124.688131
123.166896,-740.205942,11103.089130,-995.924147
123.167206,-1998.556043,13027.624579,4136.915689
123.167515,222.061783,7402.059420,-1991.848295
123.167824,3849.070898,7920.203579,-3907.087040
123.168134,-3034.844362,5699.585753,2145.067394
123.168443,1702.473667,7846.182985,2911.162892
123.168753,-2886.803174,9844.739029,-612.876398
123.169062,2812.782580,12731.542202,-5822.325785
123.169372,4293.194464,13397.727550,-8197.221829
123.169681,-1924.535449,9400.615463,-2681.334243
123.169991,-666.185348,10288.862594,3524.039291
123.170300,-4663.297435,6735.874072,459.657299
123.170610,4367.215058,5921.647536,-2145.067394
123.170919,-0.000000,4515.256246,3140.991542
123.171229,-2442.679609,6143.709319,4596.572988
123.171538,-3330.926739,5477.523971,0.000000
123.171848,962.267725,10955.047942,-6128.763984
123.172157,2368.659014,13471.748144,-10112.460574
123.172466,-1998.556043,13545.768739,-7354.516781
123.172776,-0.000000,12435.459826,-1072.533697
123.173085,-2072.576638,10288.862594,-536.266849
123.173395,3552.988522,9622.677246,-1608.800546
123.173704,3478.967927,2812.782580,2604.724693
123.174014,-1480.411884,4737.318029,9422.974625
123.174323,-518.144159,5773.606348,9346.365076
123.174633,-222.061783,12361.439231,-2221.676944
123.174942,5403.503377,12731.542202,-11491.432470
123.175252,-1628.453072,11991.336260,-8733.488677
123.175561,-592.164754,14211.954086,-2987.772442
123.175871,-4663.297435,13397.727550,-2451.505594
123.176180,4811.338623,12287.418637,-7737.564530
123.176490,814.226536,6883.915261,-995.924147
123.176799,-2812.782580,7402.059420,8733.488677
123.177108,-592.164754,4515.256246,7124.688131
123.177418,-666.185348,6143.709319,-153.219100
123.177727,5477.523971,11843.295072,-6358.592633
123.178037,-0.000000,6809.894666,-5745.716235
123.178346,-666.185348,9770.718434,-4060.306139
123.178656,-3552.988522,10066.800811,2145.067394
123.178965,2146.597232,9992.780217,-4826.401637
123.179275,2886.803174,5625.565159,-4366.744339
123.179584,-2664.741391,5033.400406,5209.449386
123.179894,-5477.523971,7402.059420,10801.946522
123.180203,-2294.638420,7328.038826,0.000000
123.180513,4811.338623,14656.077652,-9576.193725
123.180822,1036.288319,11621.233289,-8580.269578
123.181132,-1480.411884,15692.365970,-3370.820191
123.181441,-592.164754,13767.830521,-612.876398
123.181751,-148.041188,10510.924376,-766.095498
123.182060,6143.709319,8660.409521,1302.362347
123.182369,-518.144159,2516.700203,6971.469032
123.182679,-2738.761985,2442.679609,12180.918418
123.182988,-1702.473667,6439.791695,3064.381992
123.183298,3108.864956,11769.274478,-10725.336972
123.183607,3330.926739,11843.295072,-13406.671215
123.183917,-5921.647536,14804.118840,-5822.325785
123.184226,-2664.741391,12213.398043,-2145.067394
123.184536,370.102971,11251.130318,-4979.620737
123.184845,2368.659014,8882.471304,-1378.971896
123.185155,740.205942,3182.885551,7890.783629
123.185464,-740.205942,1258.350101,12104.308868
123.185774,-1258.350101,5403.503377,6052.154434
123.186083,148.041188,8956.491898,-2528.115143
123.186393,5921.647536,11251.130318,-10342.289223
123.186702,-2368.659014,13249.686362,-9806.022374
123.187011,-2886.803174,13693.809927,-3294.210641
123.187321,-0.000000,12065.356855,-5362.668486
123.187630,2294.638420,9622.677246,-6741.640382
123.187940,1850.514855,5181.441594,3447.429741
123.188249,-3330.926739,3330.926739,12640.575717
123.188559,-222.061783,3552.988522,10342.289223
123.188868,962.267725,7624.121203,1225.752797
123.189178,5329.482782,13471.748144,-4903.011187
123.189487,-222.061783,14063.912898,-7967.393179
123.189797,-1554.432478,16728.654289,-5209.449386
123.190106,-1036.288319,14434.015869,-4979.620737
123.190416,814.226536,14285.974681,-8733.488677
123.190725,5255.462188,9548.656652,-3830.477490
123.191035,-3404.947333,3478.967927,8886.707777
123.191344,-1036.288319,5255.462188,14555.814462
123.191653,-592.164754,6217.729913,4903.011187
123.191963,3330.926739,10584.944971,-5056.230287
123.192272,2294.638420,9770.718434,-8886.707777
123.192582,-3923.091493,12731.542202,-7431.126331
123.192891,370.102971,11621.233289,-6435.202183
123.193201,-1776.494261,11917.315666,-5822.325785
123.193510,2812.782580,7179.997637,-2145.067394
123.193820,-222.061783,3775.050304,5898.935335
123.194129,666.185348,518.144159,10878.556072
123.194439,-2960.823768,5477.523971,9116.536426
123.194748,2220.617826,10658.965565,-2221.676944
123.195058,2886.803174,10140.821405,-9652.803275
123.195367,-3923.091493,17246.798449,-6818.249932
123.195677,296.082377,17764.942608,-8120.612279
123.195986,-888.247130,12509.480420,-10572.117872
123.196295,1924.535449,11325.150913,-3294.210641
123.196605,-1702.473667,4515.256246,9806.022374
123.196914,222.061783,7031.956449,11491.432470
123.197224,1998.556043,3701.029710,7584.345430
123.197533,-1480.411884,7254.018232,306.438199
123.197843,2590.720797,9326.594869,-6358.592633
123.198152,-888.247130,13323.706956,-10342.289223
123.198462,-0.000000,17098.757260,-6588.421283
123.198771,-2812.782580,13619.789333,-5209.449386
123.199081,740.205942,13101.645173,-4519.963438
123.199390,2590.720797,5847.626942,1225.752797
123.199699,-222.061783,3478.967927,8120.612279
123.200009,-1924.535449,3108.864956,12104.308868
123.200318,-814.226536,5329.482782,5439.278036
123.200628,1998.556043,11325.150913,-4596.572988
123.200937,666.185348,14656.077652,-10725.336972
123.201247,-370.102971,14359.995275,-10725.336972
123.201556,-1924.535449,14878.139434,-7737.564530
123.201866,296.082377,12583.501014,-6128.763984
123.202175,2368.659014,6513.812290,-995.924147
123.202484,-1110.308913,4293.194464,8350.440928
123.202794,-74.020594,6513.812290,10495.508323
123.203103,-444.123565,4811.338623,7277.907231
123.203413,4737.318029,8808.450710,-1532.190996
123.203722,3256.906145,12805.562797,-8120.612279
123.204032,-1184.329507,12953.603985,-9576.193725
123.204341,-5995.668130,16136.489536,-2681.334243
123.204651,-1184.329507,12953.603985,-7584.345430
123.204960,3182.885551,9770.718434,-11108.384721
123.205269,-148.041188,4811.338623,1762.019645
123.205579,-1702.473667,3552.988522,12334.137518
123.205888,-1850.514855,4071.132681,7124.688131
123.206198,5329.482782,7846.182985,919.314598
123.206507,3478.967927,9326.594869,-5592.497135
123.206817,-518.144159,12065.356855,-6511.811733
123.207126,-962.267725,11917.315666,-3064.381992
123.207436,-3330.926739,12583.501014,-5592.497135
123.207745,5403.503377,9918.759623,-7354.516781
123.208054,444.123565,9030.512492,-1455.581446
123.208364,-2294.638420,4441.235652,7507.735880
123.208673,-5699.585753,2812.782580,8427.050478
123.208983,2294.638420,8068.244768,1608.800546
123.209292,3330.926739,10362.883188,-6205.373534
123.209602,1554.432478,14359.995275,-7431.126331
123.209911,-2220.617826,12731.542202,-3370.820191
123.210221,-5699.585753,13101.645173,-4136.915689
123.210530,4293.194464,13619.789333,-5822.325785
123.210839,2368.659014,7698.141797,-2451.505594
123.211149,1184.329507,8068.244768,5515.887586
123.211458,-2516.700203,4959.379811,10112.460574
123.211768,-3182.885551,6439.791695,5669.106685
123.212077,5181.441594,8512.368333,-4596.572988
123.212387,592.164754,9474.636058,-7507.735880
123.212696,-2960.823768,14434.015869,-1225.752797
123.213006,-5921.647536,14063.912898,-4213.525239
123.213315,5255.462188,14285.974681,-12027.699319
123.213624,2072.576638,7624.121203,-8580.269578
123.213934,-1850.514855,5995.668130,6205.373534
123.214243,-4071.132681,4293.194464,17083.929605
123.214553,-296.082377,5107.421000,7431.126331
123.214862,5625.565159,9474.636058,-306.438199
123.215172,2886.803174,8882.471304,-1991.848295
123.215481,-3552.988522,12583.501014,-1532.190996
123.215791,-3775.050304,15174.221811,-7048.078582
123.216100,444.123565,15618.345376,-10801.946522
123.216409,3997.112087,13175.665768,-10801.946522
123.216719,-592.164754,9696.697840,-536.266849
123.217028,1110.308913,7031.956449,4979.620737
123.217338,-4811.338623,4145.153275,10725.336972
123.217647,5329.482782,5181.441594,3677.258390
123.217957,2368.659014,6439.791695,76.609550
123.218266,296.082377,12731.542202,-1378.971896
123.218576,-2146.597232,14359.995275,-2681.334243
123.218885,-1554.432478,16950.716072,-9652.803275
123.219194,3034.844362,15322.262999,-9576.193725
123.219504,-2072.576638,13101.645173,-3753.867940
123.219813,-2220.617826,7698.141797,9806.022374
123.220123,-2368.659014,3108.864956,7507.735880
123.220432,2146.597232,5699.585753,3370.820191
123.220742,2960.823768,4441.235652,-689.485948
123.221051,-296.082377,7550.100608,-1915.238745
123.221361,-2368.659014,7994.224174,0.000000
123.221670,-1628.453072,14063.912898,-4136.915689
123.221979,4959.379811,13027.624579,-8733.488677
123.222289,-1702.473667,9178.553681,-4519.963438
123.222598,-1702.473667,9918.759623,4290.134789
123.222908,-1258.350101,7994.224174,3907.087040
123.223217,1628.453072,8808.450710,-842.705048
123.223527,4145.153275,6217.729913,-459.657299
123.223836,-1480.411884,11991.336260,-919.314598
123.224146,-1332.370696,13101.645173,-2451.505594
123.224455,-2960.823768,13027.624579,-4903.011187
123.224765,3627.009116,12509.480420,-5439.278036
123.225074,1258.350101,8586.388927,-3677.258390
123.225383,-2812.782580,10066.800811,1149.143247
123.225693,-2664.741391,3997.112087,4749.792088
123.226002,-518.144159,5995.668130,536.266849
123.226312,3182.885551,9992.780217,-3524.039291
123.226621,296.082377,9400.615463,-3294.210641
123.226931,-444.123565,12065.356855,-4213.525239
123.227240,-3330.926739,14063.912898,-1685.410096
123.227550,2072.576638,11621.233289,-1455.581446
123.227859,370.102971,8808.450710,-3370.820191
123.228168,-1332.370696,7550.100608,-3830.477490
123.228478,444.123565,3330.926739,-536.266849
123.228787,-5329.482782,4663.297435,1302.362347
123.229097,4071.132681,7624.121203,-1685.410096
123.229406,1850.514855,10436.903782,-3064.381992
123.229716,962.267725,12287.418637,-383.047749
123.230025,-1332.370696,10955.047942,2987.772442
123.230335,-296.082377,10510.924376,-2451.505594
123.230644,2812.782580,10807.006753,-6818.249932
123.230953,-1258.350101,10436.903782,-3447.429741
123.231263,-0.000000,7031.956449,153.219100
123.231572,-4811.338623,7328.038826,2145.067394
123.231882,4293.194464,10807.006753,-612.876398
123.232191,2368.659014,11769.274478,-3064.381992
123.232501,1406.391290,11843.295072,-1378.971896
123.232810,-2146.597232,10140.821405,612.876398
123.233120,-3849.070898,12139.377449,-1302.362347
123.233429,6143.709319,11103.089130,-7124.688131
123.233738,-2442.679609,6439.791695,-4443.353888
123.234048,1480.411884,8216.285956,4673.182538
123.234357,-2960.823768,4367.215058,2068.457845
123.234667,-666.185348,9696.697840,-306.438199
123.234976,2886.803174,11251.130318,-2145.067394
123.235286,-74.020594,9548.656652,-1532.190996
123.235595,1776.494261,11621.233289,-2145.067394
123.235905,-5551.544565,9178.553681,153.219100
123.236214,3997.112087,9474.636058,-4213.525239
123.236523,-666.185348,8660.409521,-3983.696590
123.236833,1258.350101,5699.585753,-1149.143247
123.237142,-3330.926739,6957.935855,1915.238745
123.237452,-4663.297435,10732.986159,383.047749
123.237761,2590.720797,11399.171507,-2068.457845
123.238071,2220.617826,14285.974681,-4749.792088
123.238380,2886.803174,11991.336260,842.705048
123.238690,-2294.638420,10510.924376,306.438199
123.238999,962.267725,10140.821405,-1225.752797
123.239308,2960.823768,7920.203579,-1455.581446
123.239618,-2960.823768,7031.956449,4749.792088
123.239927,370.102971,7105.977043,3447.429741
123.240237,-5107.421000,7994.224174,-1149.143247
123.240546,4145.153275,11251.130318,-6588.421283
123.240856,-1924.535449,11399.171507,-6971.469032
123.241165,2442.679609,11325.150913,-8350.440928
123.241475,-2738.761985,9178.553681,-2911.162892
123.241784,-2886.803174,9104.533087,919.314598
123.242093,2960.823768,6365.771101,1378.971896
123.242403,1332.370696,5995.668130,2374.896044
123.242712,1628.453072,7920.203579,6435.202183
123.243022,-4737.318029,5847.626942,4060.306139
123.243331,148.041188,11029.068536,-5286.058936
123.243641,4145.153275,12361.439231,-10495.508323
123.243950,-666.185348,10214.842000,-8273.831378
123.244260,-1554.432478,13471.748144,-5209.449386
123.244569,-2368.659014,9326.594869,-2451.505594
123.244878,2960.823768,7402.059420,-689.485948
123.245188,740.205942,5995.668130,4519.963438
123.245497,2146.597232,6069.688724,8810.098227
123.245807,-2738.761985,4885.359217,5745.716235
123.246116,-1850.514855,9992.780217,995.924147
123.246426,3775.050304,11991.336260,-8886.707777
123.246735,666.185348,13619.789333,-13023.623466
123.247045,-4293.194464,15322.262999,-5669.106685
123.247354,-3404.947333,14211.954086,-1991.848295
123.247663,2146.597232,11695.253884,-2604.724693
123.247973,2442.679609,7772.162391,2451.505594
123.248282,-3404.947333,4737.318029,8197.221829
123.248592,-3256.906145,4737.318029,6435.202183
123.248901,814.226536,7105.977043,229.828649
123.249211,4367.215058,11843.295072,-8656.879127
123.249520,-0.000000,8142.265362,-10189.070123
123.249830,814.226536,9400.615463,-2528.115143
123.250139,-4811.338623,13471.748144,-1378.971896
123.250448,1554.432478,13027.624579,-3370.820191
123.250758,1998.556043,6735.874072,2145.067394
123.251067,-740.205942,7179.997637,6281.983084
123.251377,148.041188,5181.441594,3294.210641
123.251686,-3478.967927,7550.100608,1072.533697
123.251996,2294.638420,13323.706956,-5056.230287
123.252305,1406.391290,10436.903782,-9039.926876
123.252615,-1110.308913,15100.201217,-9193.145976
123.252924,-2442.679609,12139.377449,-2451.505594
123.253234,-592.164754,11621.233289,-306.438199
123.253543,1702.473667,7328.038826,1685.410096
123.253852,-962.267725,5033.400406,3677.258390
123.254162,-0.000000,5847.626942,3600.648841
123.254471,-4959.379811,6217.729913,995.924147
123.254781,4885.359217,10584.944971,-2987.772442
123.255090,962.267725,13693.809927,-7431.126331
123.255400,962.267725,15692.365970,-7814.174080
123.255709,-2738.761985,12065.356855,-3217.601092
123.256019,-2294.638420,9548.656652,-612.876398
123.256328,3330.926739,8290.306550,-995.924147
123.256637,2146.597232,3997.112087,995.924147
123.256947,-1998.556043,2960.823768,2145.067394
123.257256,-4737.318029,4145.153275,4749.792088
123.257566,444.123565,12287.418637,0.000000
123.257875,2812.782580,12435.459826,-9193.145976
123.258185,-666.185348,11917.315666,-9422.974625
123.258494,-1258.350101,15840.407159,-3753.867940
123.258804,-4515.256246,11547.212695,-3217.601092
123.259113,3997.112087,10436.903782,-3983.696590
123.259422,1702.473667,4737.318029,1225.752797
123.259732,1036.288319,3034.844362,9576.193725
123.260041,-4293.194464,5181.441594,8810.098227
123.260351,518.144159,7994.224174,1455.581446
123.260660,1184.329507,13101.645173,-4903.011187
123.260970,-0.000000,16136.489536,-8197.221829
123.261279,2590.720797,11843.295072,-10418.898773
123.261589,-4293.194464,14211.954086,-9193.145976
123.261898,-0.000000,11769.274478,-4673.182538
123.262207,2220.617826,7031.956449,689.485948
123.262517,1110.308913,2590.720797,5132.839837
123.262826,-3034.844362,5551.544565,9959.241474
123.263136,-2664.741391,6735.874072,9729.412825
123.263445,4071.132681,10362.883188,-2374.896044
123.263755,1332.370696,11029.068536,-10189.070123
123.264064,2812.782580,14582.057057,-8427.050478
123.264374,-5329.482782,15988.448347,-6665.030833
123.264683,-1702.473667,12953.603985,-7124.688131
123.264992,4885.359217,9844.739029,-4366.744339
123.265302,-1702.473667,7846.182985,-306.438199
123.265611,-0.000000,3330.926739,9806.022374
123.265921,-4737.318029,3330.926739,10418.898773
123.266230,2442.679609,9252.574275,612.876398
123.266540,3330.926739,11547.212695,-8350.440928
123.266849,518.144159,9844.739029,-8427.050478
123.267159,-2960.823768,11473.192101,-6358.592633
123.267468,-592.164754,11029.068536,-4443.353888
123.267777,1924.535449,9030.512492,-2451.505594
123.268087,814.226536,9030.512492,1838.629195
123.268396,222.061783,4219.173869,9729.412825
123.268706,-4293.194464,9326.594869,7354.516781
123.269015,1776.494261,9252.574275,766.095498
123.269325,1554.432478,13101.645173,-9039.926876
123.269634,3034.844362,11399.171507,-12640.575717
123.269944,-1776.494261,13767.830521,-6435.202183
123.270253,-6809.894666,13619.789333,-1991.848295
123.270562,3627.009116,11251.130318,-2298.286494
123.270872,1850.514855,6883.915261,-766.095498
123.271181,5329.482782,5181.441594,7201.297681
123.271491,-5699.585753,2146.597232,9269.755526
123.271800,-2220.617826,6291.750507,5898.935335
123.272110,2516.700203,8364.327145,-4979.620737
123.272419,2516.700203,11177.109724,-11568.042020
123.272729,-592.164754,14804.118840,-9269.755526
123.273038,-7402.059420,12065.356855,-3753.867940
123.273347,814.226536,14211.954086,-2987.772442
123.273657,3478.967927,7846.182985,-3753.867940
123.273966,814.226536,4959.379811,2911.162892
123.274276,-3108.864956,5403.503377,11414.822920
123.274585,-2368.659014,2960.823768,6358.592633
123.274895,4663.297435,9326.594869,-3907.087040
123.275204,1702.473667,9918.759623,-5975.544884
123.275514,-0.000000,14137.933492,-4979.620737
123.275823,-5329.482782,15988.448347,-4366.744339
123.276132,814.226536,13101.645173,-8120.612279
123.276442,3034.844362,9400.615463,-7431.126331
123.276751,296.082377,4515.256246,1608.800546
123.277061,-2294.638420,1850.514855,10035.851024
123.277370,-4145.153275,5329.482782,8044.002729
123.277680,3330.926739,10658.965565,-2145.067394
123.277989,3627.009116,9918.759623,-6894.859482
123.278299,3108.864956,14359.995275,-4903.011187
123.278608,-5033.400406,13545.768739,-5745.716235
123.278918,-2886.803174,13471.748144,-3447.429741
123.279227,4145.153275,10066.800811,-3524.039291
123.279536,2146.597232,4219.173869,-1838.629195
123.279846,-1850.514855,8882.471304,8273.831378
123.280155,-4515.256246,4441.235652,9652.803275
123.280465,2886.803174,8660.409521,459.657299
123.280774,3552.988522,12361.439231,-6511.811733
123.281084,1776.494261,12287.418637,-3983.696590
123.281393,-3701.029710,13693.809927,-2987.772442
123.281703,-4293.194464,12509.480420,-5209.449386
123.282012,2960.823768,14730.098246,-5056.230287
123.282321,2886.803174,9400.615463,-4673.182538
123.282631,518.144159,6439.791695,766.095498
123.282940,-3923.091493,4737.318029,9346.365076
123.283250,-2146.597232,7179.997637,5056.230287
123.283559,4959.379811,7402.059420,-1991.848295
123.283869,1924.535449,6809.894666,-2987.772442
123.284178,-3404.947333,11177.109724,-1762.019645
123.284488,-2442.679609,11547.212695,-5745.716235
123.284797,2738.761985,12361.439231,-7967.393179
123.285106,1036.288319,9548.656652,-4749.792088
123.285416,5995.668130,6661.853478,0.000000
123.285725,-2886.803174,5551.544565,5286.058936
123.286035,-3849.070898,8808.450710,8503.660028
123.286344,4219.173869,11029.068536,2451.505594
123.286654,5625.565159,8586.388927,-7814.174080
123.286963,1184.329507,15840.407159,-3600.648841
123.287273,-7994.224174,12361.439231,-1225.752797
123.287582,444.123565,12879.583391,-4213.525239
123.287891,7031.956449,10584.944971,-9806.022374
123.288201,-740.205942,5699.585753,-2604.724693
123.288510,-3849.070898,4515.256246,9269.755526
123.288820,-4367.215058,4589.276840,7354.516781
123.289129,4737.318029,9548.656652,1072.533697
123.289439,3404.947333,10214.842000,-2757.943793
123.289748,2960.823768,7994.224174,-3677.258390
123.290058,-962.267725,11695.253884,-3140.991542
123.290367,-2886.803174,13323.706956,-4979.620737
123.290676,2738.761985,13027.624579,-6971.469032
123.290986,-222.061783,6735.874072,-4443.353888
123.291295,-666.185348,6513.812290,2068.457845
123.291605,-5329.482782,9400.615463,6128.763984
123.291914,4663.297435,8142.265362,1532.190996
123.292224,2886.803174,9992.780217,-4213.525239
123.292533,3330.926739,8734.430116,-4749.792088
123.292843,-6365.771101,10584.944971,-995.924147
123.293152,-5847.626942,10658.965565,1072.533697
123.293461,6587.832884,14434.015869,-5286.058936
123.293771,4293.194464,8956.491898,-10265.679673
123.294080,-0.000000,8290.306550,1991.848295
123.294390,-6069.688724,6439.791695,8810.098227
123.294699,592.164754,6587.832884,1378.971896
123.295009,7402.059420,10732.986159,-5898.935335
123.295318,-1406.391290,8586.388927,-383.047749
123.295628,-148.041188,13915.871710,3907.087040
123.295937,-4589.276840,10658.965565,-2528.115143
123.296246,3108.864956,14434.015869,-4366.744339
123.296556,1110.308913,10881.027347,-3294.210641
123.296865,370.102971,6069.688724,-5822.325785
123.297174,-5403.503377,8142.265362,3217.601092
123.297484,-4441.235652,8438.347739,2604.724693
123.297793,5551.544565,9918.759623,-5286.058936
123.298103,2442.679609,8512.368333,-6588.421283
123.298412,-1776.494261,11177.109724,229.828649
123.298721,-3552.988522,10584.944971,4366.744339
123.299031,3923.091493,11251.130318,-1762.019645
123.299340,3330.926739,9252.574275,-5209.449386
123.299650,-962.267725,4811.338623,-2911.162892
123.299959,-2220.617826,2442.679609,5132.839837
123.300268,-3182.885551,7476.080014,1149.143247
123.300578,1924.535449,14804.118840,-5439.278036
123.300887,4737.318029,8438.347739,-5362.668486
123.301197,2368.659014,14211.954086,-7124.688131
123.301506,-6587.832884,11547.212695,-612.876398
123.301815,1110.308913,9548.656652,1455.581446
123.302125,3997.112087,9844.739029,-4366.744339
123.302434,1998.556043,6069.688724,-1838.629195
123.302744,-1554.432478,9030.512492,7277.907231
123.303053,-7402.059420,6069.688724,6128.763984
123.303362,7328.038826,12805.562797,-2068.457845
123.303672,1924.535449,11917.315666,-7124.688131
123.303981,592.164754,9622.677246,-4979.620737
123.304290,-5551.544565,12287.418637,-383.047749
123.304600,-3627.009116,12213.398043,-2911.162892
123.304909,5403.503377,11843.295072,-4290.134789
123.305219,962.267725,9030.512492,-4060.306139
123.305528,814.226536,7698.141797,4596.572988
123.305837,-3997.112087,2960.823768,7354.516781
123.306147,-1036.288319,5995.668130,1072.533697
123.306456,4293.194464,11251.130318,-6894.859482
123.306766,1924.535449,6439.791695,-4979.620737
123.307075,-1480.411884,10955.047942,1532.190996
123.307384,-4959.379811,10807.006753,2451.505594
123.307694,5329.482782,13989.892304,-4060.306139
123.308003,592.164754,7550.100608,-5515.887586
123.308313,1554.432478,4515.256246,3830.477490
123.308622,-6439.791695,8808.450710,3370.820191
123.308931,222.061783,7328.038826,-2221.676944
123.309241,5477.523971,12805.562797,-6741.640382
123.309550,666.185348,11473.192101,-4290.134789
123.309859,3256.906145,10955.047942,459.657299
123.310169,-4663.297435,8142.265362,2374.896044
123.310478,2072.576638,10584.944971,2757.943793
123.310788,4367.215058,11251.130318,-1991.848295
123.311097,2146.597232,3627.009116,-459.657299
123.311406,-3997.112087,10214.842000,4596.572988
123.311716,-5625.565159,9400.615463,383.047749
123.312025,5477.523971,13841.851115,-7354.516781
123.312335,3330.926739,11695.253884,-9806.022374
123.312644,-3330.926739,11547.212695,-3983.696590
123.312953,-5181.441594,12435.459826,1455.581446
123.313263,-370.102971,7994.224174,1532.190996
123.313572,5329.482782,8290.306550,-1225.752797
123.313882,2442.679609,4071.132681,3447.429741
123.314191,-1406.391290,5255.462188,6358.592633
123.314500,-6513.812290,2664.741391,5286.058936
123.314810,1480.411884,11843.295072,-3907.087040
123.315119,3108.864956,14063.912898,-13023.623466
123.315429,4441.235652,9030.512492,-9959.241474
123.315738,-4737.318029,14730.098246,-766.095498
123.316047,-2220.617826,12361.439231,229.828649
123.316357,3923.091493,9548.656652,459.657299
123.316666,1406.391290,3552.988522,2757.943793
123.316975,-740.205942,3849.070898,8656.879127
123.317285,-4959.379811,5995.668130,6435.202183
123.317594,-888.247130,11991.336260,-459.657299
123.317904,7179.997637,17320.819043,-12257.527968
123.318213,2220.617826,12657.521608,-12257.527968
123.318522,-4885.359217,15322.262999,-1532.190996
123.318832,-4959.379811,9252.574275,2451.505594
123.319141,4885.359217,9326.594869,-3447.429741
123.319451,4811.338623,5033.400406,766.095498
123.319760,-4219.173869,4293.194464,11184.994271
123.320069,-3923.091493,3923.091493,7737.564530
123.320379,-148.041188,3701.029710,383.047749
123.320688,4737.318029,11325.150913,-7507.735880
123.320998,-0.000000,13841.851115,-12717.185267
123.321307,-0.000000,11621.233289,-7507.735880
123.321616,-6883.915261,12435.459826,2068.457845
123.321926,592.164754,12879.583391,-229.828649
123.322235,6587.832884,6735.874072,-4443.353888
123.322544,-3330.926739,1998.556043,2681.334243
123.322854,-6291.750507,3108.864956,12180.918418
123.323163,-2960.823768,5995.668130,1762.019645
123.323473,8068.244768,10214.842000,-11414.822920
123.323782,148.041188,11843.295072,-7967.393179
123.324091,-3627.009116,15840.407159,-153.219100
123.324401,-1628.453072,15026.180623,-3447.429741
123.324710,5329.482782,9844.739029,-3140.991542
123.325020,2664.741391,10362.883188,76.609550
123.325329,370.102971,4515.256246,4673.182538
123.325638,-3775.050304,3701.029710,7201.297681
123.325948,-3404.947333,9474.636058,5209.449386
123.326257,5625.565159,13693.809927,-6894.859482
123.326567,4737.318029,17320.819043,-14709.033562
123.326876,-2368.659014,12583.501014,-7201.297681
123.327185,-5995.668130,16210.510130,-689.485948
123.327495,-148.041188,8882.471304,-4443.353888
123.327804,6069.688724,7105.977043,-2528.115143
123.328114,814.226536,1924.535449,6281.983084
123.328423,-3701.029710,1628.453072,10878.556072
123.328732,-3552.988522,4441.235652,8120.612279
123.329042,2146.597232,8882.471304,-1838.629195
123.329351,4885.359217,12953.603985,-11108.384721
123.329660,-814.226536,11917.315666,-12410.747068
123.329970,-5699.585753,14359.995275,-6665.030833
123.330279,-1258.350101,11769.274478,-3524.039291
123.330589,4219.173869,11991.336260,-2911.162892
123.330898,3997.112087,6439.791695,919.314598
123.331207,-3108.864956,3701.029710,11797.870669
123.331517,-5181.441594,5847.626942,13330.061665
123.331826,-0.000000,9918.759623,3830.477490
123.332136,7254.018232,11695.253884,-10189.070123
123.332445,592.164754,13323.706956,-12487.356617
123.332754,-5329.482782,17838.963202,-7814.174080
123.333064,-2442.679609,14063.912898,-6894.859482
123.333373,4071.132681,15100.201217,-7737.564530
123.333683,4515.256246,8586.388927,-1378.971896
123.333992,-1850.514855,3552.988522,7890.783629
123.334301,-3478.967927,2220.617826,14479.204912
123.334611,-888.247130,5255.462188,7660.954980
123.334920,6365.771101,10288.862594,-3677.258390
123.335230,4293.194464,10510.924376,-9193.145976
123.335539,-4145.153275,15470.304188,-5515.887586
123.335848,-3256.906145,16210.510130,-6588.421283
123.336158,740.205942,11547.212695,-7890.783629
123.336467,5773.606348,12065.356855,-7507.735880
123.336776,-2442.679609,2368.659014,2987.772442
123.337086,-5403.503377,1184.329507,16777.491406
123.337395,-2664.741391,4367.215058,12257.527968
123.337705,4293.194464,9252.574275,-1378.971896
123.338014,4737.318029,11103.089130,-7354.516781
123.338323,-4367.215058,8882.471304,-7890.783629
123.338633,-4441.235652,14359.995275,-7507.735880
123.338942,-962.267725,13915.871710,-7737.564530
123.339252,5477.523971,12509.480420,-6588.421283
123.339561,2368.659014,7402.059420,153.219100
123.339870,-4441.235652,3701.029710,10878.556072
123.340180,-3404.947333,4219.173869,13483.280765
123.340489,2738.761985,5921.647536,229.828649
123.340799,6735.874072,14137.933492,-11951.089769
123.341108,-592.164754,11399.171507,-1072.533697
123.341417,-5255.462188,13767.830521,-3294.210641
123.341727,-1628.453072,16136.489536,-7201.297681
123.342036,4811.338623,12213.398043,-7967.393179
123.342345,3775.050304,3330.926739,-1455.581446
123.342655,-2812.782580,4145.153275,6894.859482
123.342964,-4219.173869,3404.947333,12257.527968
123.343274,1628.453072,3478.967927,5362.668486
123.343583,5477.523971,11177.109724,-7584.345430
123.343892,888.247130,11547.212695,-8273.831378
123.344202,-3478.967927,14359.995275,-3370.820191
123.344511,-5477.523971,12509.480420,-4903.011187
123.344821,1998.556043,14359.995275,-6435.202183
123.345130,5699.585753,9918.759623,-4366.744339
123.345439,-3849.070898,3849.070898,6052.154434
123.345749,-4515.256246,5625.565159,10112.460574
123.346058,-962.267725,5625.565159,8963.317327
123.346368,5921.647536,10881.027347,-4136.915689
123.346677,3775.050304,11251.130318,-6205.373534
123.346986,-4737.318029,14434.015869,-1991.848295
123.347296,-4959.379811,12435.459826,-4826.401637
123.347605,814.226536,15914.427753,-10418.898773
123.347915,8290.306550,11399.171507,-10955.165621
123.348224,1406.391290,2664.741391,-2451.505594
123.348533,-6365.771101,6809.894666,10725.336972
123.348843,-2812.782580,4885.359217,13176.842566
123.349152,5773.606348,8882.471304,-2604.724693
123.349461,9474.636058,8660.409521,-8197.221829
123.349771,-4219.173869,11843.295072,0.000000
123.350080,-6513.812290,14804.118840,-1685.410096
123.350390,-740.205942,12139.377449,-6894.859482
123.350699,9992.780217,12213.398043,-11414.822920
123.351008,-2072.576638,5773.606348,-2528.115143
123.351318,-7328.038826,4441.235652,10418.898773
123.351627,-4441.235652,3182.885551,10265.679673
123.351937,2516.700203,6957.935855,-3447.429741
123.352246,5847.626942,9622.677246,-5592.497135
123.352555,-3256.906145,10658.965565,306.438199
123.352865,-7105.977043,13693.809927,-2911.162892
123.353174,-1406.391290,15248.242405,-6358.592633
123.353484,6661.853478,12361.439231,-8580.269578
123.353793,2886.803174,7550.100608,-5975.544884
123.354102,-6661.853478,6735.874072,5592.497135
123.354412,-6735.874072,7031.956449,12410.747068
123.354721,2812.782580,5847.626942,536.266849
123.355030,7624.121203,10955.047942,-8733.488677
123.355340,1554.432478,9844.739029,-4903.011187
123.355649,-6513.812290,13989.892304,-766.095498
123.355959,-1850.514855,14508.036463,-3140.991542
123.356268,6365.771101,14730.098246,-10342.289223
123.356577,6735.874072,8216.285956,-9959.241474
123.356887,-2738.761985,5329.482782,6894.859482
123.357196,-6291.750507,5329.482782,14709.033562
123.357506,2368.659014,5403.503377,4519.963438
123.357815,6513.812290,8808.450710,-6511.811733
123.358124,592.164754,9770.718434,-2604.724693
123.358434,-5107.421000,11103.089130,-1302.362347
123.358743,-5847.626942,14211.954086,-4673.182538
123.359053,1924.535449,15988.448347,-10265.679673
123.359362,5107.421000,10510.924376,-10418.898773
123.359671,-2960.823768,5995.668130,-3447.429741
123.359981,-7105.977043,3034.844362,10265.679673
123.360290,-2368.659014,5181.441594,10418.898773
123.360600,4071.132681,5403.503377,-306.438199
123.360909,4959.379811,6587.832884,-4213.525239
123.361218,-2516.700203,9918.759623,1149.143247
123.361528,-5773.606348,13471.748144,-1532.190996
123.361837,2812.782580,15396.283594,-8886.707777
123.362146,6365.771101,14063.912898,-12717.185267
123.362456,74.020594,10214.842000,-2604.724693
123.362765,-6587.832884,8660.409521,8963.317327
123.363075,-2738.761985,6587.832884,9116.536426
123.363384,5773.606348,6587.832884,-2451.505594
123.363693,4515.256246,10066.800811,-4903.011187
123.364003,-3034.844362,10510.924376,-4290.134789
123.364312,-3775.050304,9622.677246,-1685.410096
123.364622,-222.061783,13915.871710,-5056.230287
123.364931,7179.997637,13915.871710,-10878.556072
123.365240,1998.556043,6957.935855,-5286.058936
123.365550,-6217.729913,8734.430116,6971.469032
123.365859,-3552.988522,4885.359217,7737.564530
123.366169,3034.844362,4959.379811,-459.657299
123.366478,5255.462188,5329.482782,-3370.820191
123.366787,-1406.391290,6661.853478,459.657299
123.367097,-6883.915261,10436.903782,2757.943793
123.367406,-222.061783,11029.068536,-2374.896044
123.367716,3552.988522,14656.077652,-9806.022374
123.368025,666.185348,10140.821405,-6205.373534
123.368334,-5995.668130,9696.697840,1225.752797
123.368644,-4071.132681,7994.224174,2145.067394
123.368953,-444.123565,10140.821405,153.219100
123.369262,7550.100608,10955.047942,-4366.744339
123.369572,-0.000000,11843.295072,-3830.477490
123.369881,-296.082377,11251.130318,2528.115143
123.370191,-3997.112087,9252.574275,2451.505594
123.370500,3478.967927,11621.233289,-5209.449386
123.370809,5255.462188,7328.038826,-9193.145976
123.371119,-888.247130,8216.285956,-1608.800546
123.371428,-4737.318029,6587.832884,5056.230287
123.371738,148.041188,6809.894666,1072.533697
123.372047,5847.626942,11399.171507,-6894.859482
123.372356,2146.597232,10807.006753,-2911.162892
123.372666,-1332.370696,12731.542202,3140.991542
123.372975,-5995.668130,11473.192101,612.876398
123.373285,3552.988522,11473.192101,-2987.772442
123.373594,4737.318029,6069.688724,-6128.763984
123.373903,-3849.070898,6809.894666,-4673.182538
123.374213,-5255.462188,7698.141797,6281.983084
123.374522,-1258.350101,9178.553681,3677.258390
123.374831,3775.050304,12139.377449,-6435.202183
123.375141,2738.761985,9770.718434,-5439.278036
123.375450,-0.000000,8216.285956,1378.971896
123.375760,-6587.832884,10807.006753,919.314598
123.376069,1776.494261,12953.603985,-4060.306139
123.376378,3997.112087,11103.089130,-8120.612279
123.376688,1998.556043,8660.409521,-1762.019645
123.376997,-1332.370696,5255.462188,5592.497135
123.377307,-3478.967927,4589.276840,5286.058936
123.377616,2072.576638,9474.636058,-1302.362347
123.377925,6883.915261,11621.233289,-5132.839837
123.378235,-2220.617826,9622.677246,-1838.629195
123.378544,-4959.379811,11177.109724,2068.457845
123.378854,-0.000000,13767.830521,0.000000
123.379163,4071.132681,9992.780217,-7737.564530
123.379472,2442.679609,9400.615463,-5439.278036
123.379782,-4367.215058,7031.956449,1225.752797
123.380091,-4737.318029,5995.668130,5056.230287
123.380401,2072.576638,9252.574275,306.438199
123.380710,5773.606348,9918.759623,-8120.612279
123.381019,814.226536,9696.697840,-2451.505594
123.381329,-4737.318029,9400.615463,5132.839837
123.381638,-148.041188,10732.986159,2145.067394
123.381947,6513.812290,11991.336260,-6894.859482
123.382257,2368.659014,6661.853478,-2834.553343
123.382566,-3627.009116,8734.430116,3370.820191
123.382876,-8290.306550,5107.421000,5362.668486
123.383185,-1406.391290,10584.944971,995.924147
123.383494,4515.256246,12435.459826,-11338.213370
123.383804,3256.906145,11695.253884,-10342.289223
123.384113,-5033.400406,10288.862594,995.924147
123.384423,-5181.441594,11843.295072,3140.991542
123.384732,3330.926739,13323.706956,-4366.744339
123.385041,9548.656652,9548.656652,-6281.983084
123.385351,2368.659014,5847.626942,9346.365076
123.385660,-6291.750507,3849.070898,11184.994271
123.385970,-2960.823768,5107.421000,5592.497135
123.386279,4441.235652,10807.006753,-8580.269578
123.386588,2590.720797,6365.771101,-11568.042020
123.386898,-4367.215058,11991.336260,-3753.867940
123.387207,-8068.244768,13249.686362,-153.219100
123.387516,3330.926739,11251.130318,-4903.011187
123.387826,7476.080014,10066.800811,-7660.954980
123.388135,74.020594,7402.059420,3677.258390
123.388445,-6513.812290,3775.050304,12487.356617
123.388754,-3701.029710,4145.153275,9116.536426
123.389063,4071.132681,11103.089130,-5515.887586
123.389373,6661.853478,9992.780217,-11108.384721
123.389682,-4737.318029,10140.821405,-4366.744339
123.389992,-6143.709319,13175.665768,1302.362347
123.390301,592.164754,14063.912898,-4136.915689
123.390610,6069.688724,11621.233289,-8733.488677
123.390920,3182.885551,5181.441594,1225.752797
123.391229,-8142.265362,2294.638420,10955.165621
123.391539,-5995.668130,4589.276840,8044.002729
123.391848,3701.029710,8882.471304,-2374.896044
123.392157,6957.935855,9400.615463,-10725.336972
123.392467,-2590.720797,12139.377449,-5286.058936
123.392776,-6957.935855,10584.944971,2911.162892
123.393086,-1036.288319,9622.677246,-306.438199
123.393395,7105.977043,11769.274478,-8580.269578
123.393704,5551.544565,7846.182985,-2068.457845
123.394014,-8586.388927,4811.338623,8963.317327
123.394323,-6735.874072,4441.235652,9039.926876
123.394632,4441.235652,7476.080014,-2068.457845
123.394942,4367.215058,10214.842000,-11644.651570
123.395251,-1702.473667,13619.789333,-7967.393179
123.395561,-5995.668130,12805.562797,2528.115143
123.395870,-0.000000,10214.842000,0.000000
123.396179,6365.771101,11103.089130,-5132.839837
123.396489,3404.947333,6439.791695,-2221.676944
123.396798,-0.000000,9474.636058,8197.221829
123.397108,-7994.224174,4885.359217,8656.879127
123.397417,148.041188,9918.759623,1072.533697
123.397726,7550.100608,13693.809927,-12563.966167
123.398036,2368.659014,12139.377449,-9193.145976
123.398345,-7254.018232,16284.530724,2451.505594
123.398655,-3478.967927,11251.130318,536.266849
123.398964,4737.318029,10807.006753,-6818.249932
123.399273,7328.038826,8586.388927,-4979.620737
123.399583,-1480.411884,1406.391290,4673.182538
123.399892,-5773.606348,2516.700203,9116.536426
123.400201,-888.247130,5403.503377,7354.516781
123.400511,4367.215058,11177.109724,-6128.763984
123.400820,2590.720797,11769.274478,-11108.384721
123.401130,-4441.235652,12805.562797,-995.924147
123.401439,-4959.379811,11843.295072,-536.266849
123.401748,1258.350101,10510.924376,-6052.154434
123.402058,7254.018232,9474.636058,-8656.879127
123.402367,-1702.473667,5403.503377,3294.210641
123.402677,-5995.668130,5625.565159,13406.671215
123.402986,-222.061783,4367.215058,8503.660028
123.403295,5255.462188,12065.356855,-3294.210641
123.403605,2590.720797,11695.253884,-8350.440928
123.403914,-6217.729913,13619.789333,-4979.620737
123.404223,-4663.297435,13323.706956,-2911.162892
123.404533,-74.020594,11843.295072,-8733.488677
123.404842,7846.182985,12213.398043,-10342.289223
123.405152,888.247130,5995.668130,0.000000
123.405461,-5551.544565,7105.977043,10265.679673
123.405770,-2294.638420,3701.029710,10189.070123
123.406080,3034.844362,8808.450710,842.705048
123.406389,5329.482782,8660.409521,-6281.983084
123.406699,-1628.453072,10288.862594,-1149.143247
123.407008,-3034.844362,12509.480420,-4136.915689
123.407317,-888.247130,12953.603985,-6358.592633
123.407627,1924.535449,12583.501014,-7507.735880
123.407936,4293.194464,7846.182985,-4519.963438
123.408245,-1332.370696,7476.080014,5209.449386
123.408555,-6661.853478,3552.988522,11644.651570
123.408864,1628.453072,5255.462188,5056.230287
123.409174,5107.421000,9992.780217,-7354.516781
123.409483,592.164754,10214.842000,-5132.839837
123.409792,-5921.647536,12435.459826,-1302.362347
123.410102,-296.082377,9548.656652,-7048.078582
123.410411,3997.112087,14730.098246,-9039.926876
123.410721,3478.967927,9844.739029,-2987.772442
123.411030,-3701.029710,7476.080014,6665.030833
123.411339,-2072.576638,3552.988522,9499.584175
123.411649,-74.020594,7772.162391,8733.488677
123.411958,2886.803174,7920.203579,-4596.572988
123.412267,2368.659014,9770.718434,-10955.165621
123.412577,-2072.576638,13767.830521,-5592.497135
123.412886,-4367.215058,13101.645173,-3064.381992
123.413196,2516.700203,14063.912898,-7507.735880
123.413505,5107.421000,13619.789333,-5592.497135
123.413814,1850.514855,6143.709319,5515.887586
123.414124,-4737.318029,2442.679609,9499.584175
123.414433,-1628.453072,1332.370696,10035.851024
123.414743,2368.659014,7846.182985,-459.657299
123.415052,3849.070898,6883.915261,-9039.926876
123.415361,-444.123565,10584.944971,-4136.915689
123.415671,-6143.709319,12361.439231,153.219100
123.415980,1184.329507,13767.830521,-4903.011187
123.416289,4515.256246,12509.480420,-9346.365076
123.416599,2516.700203,5033.400406,-383.047749
123.416908,-5773.606348,4811.338623,8656.879127
123.417218,-5847.626942,2368.659014,9959.241474
123.417527,4737.318029,9844.739029,2451.505594
123.417836,5625.565159,7031.956449,-7354.516781
123.418146,-2442.679609,14582.057057,-4290.134789
123.418455,-7476.080014,17468.860231,0.000000
123.418765,-3182.885551,14359.995275,-5209.449386
123.419074,4737.318029,12879.583391,-11568.042020
123.419383,4589.276840,8216.285956,-6894.859482
123.419693,-5403.503377,9104.533087,7354.516781
123.420002,-4441.235652,2442.679609,11644.651570
123.420311,2886.803174,7328.038826,4979.620737
123.420621,7179.997637,7179.997637,-4060.306139
123.420930,1776.494261,11843.295072,-4213.525239
123.421240,-6439.791695,12657.521608,766.095498
123.421549,-1110.308913,10362.883188,-2834.553343
123.421858,3775.050304,12435.459826,-9116.536426
123.422168,3404.947333,9622.677246,-10878.556072
123.422477,-3775.050304,10436.903782,1378.971896
123.422787,-3997.112087,2220.617826,10878.556072
123.423096,-222.061783,5477.523971,8044.002729
123.423405,6957.935855,12731.542202,-2528.115143
123.423715,3849.070898,6291.750507,-3370.820191
123.424024,-5773.606348,12509.480420,612.876398
123.424333,-5329.482782,10955.047942,-1455.581446
123.424643,2146.597232,15470.304188,-9806.022374
123.424952,5773.606348,10807.006753,-12793.794817
123.425262,-0.000000,10362.883188,-3753.867940
123.425571,-8142.265362,7402.059420,6971.469032
123.425880,-740.205942,3552.988522,9576.193725
123.426190,4811.338623,8660.409521,-1225.752797
123.426499,5255.462188,7550.100608,-6741.640382
123.426809,-3997.112087,11103.089130,1149.143247
123.427118,-5181.441594,9918.759623,2528.115143
123.427427,1702.473667,13545.768739,-6281.983084
123.427737,9400.615463,13397.727550,-13942.938064
123.428046,-1110.308913,6883.915261,-5515.887586
123.428355,-6217.729913,7105.977043,6588.421283
123.428665,-2220.617826,3849.070898,7814.174080
123.428974,3923.091493,7105.977043,-1685.410096
123.429284,5033.400406,8290.306550,-6205.373534
123.429593,-6587.832884,6883.915261,-1532.190996
123.429902,-5551.544565,10140.821405,2298.286494
123.430212,444.123565,13545.768739,-2604.724693
123.430521,7772.162391,13027.624579,-12104.308868
123.430831,2146.597232,8364.327145,-7814.174080
123.431140,-6735.874072,8882.471304,6052.154434
123.431449,-6587.832884,3034.844362,9116.536426
123.431759,5107.421000,6735.874072,536.266849
123.432068,7920.203579,8438.347739,-6818.249932
123.432377,-2664.741391,11325.150913,1532.190996
123.432687,-7772.162391,12139.377449,4903.011187
123.432996,592.164754,11621.233289,-3217.601092
123.433306,6143.709319,15840.407159,-12487.356617
123.433615,3256.906145,11769.274478,-9806.022374
123.433924,-5847.626942,10510.924376,6205.373534
123.434234,-5551.544565,8364.327145,8427.050478
123.434543,2886.803174,6513.812290,1838.629195
123.434853,4885.359217,7920.203579,-6128.763984
123.435162,1258.350101,9474.636058,-2145.067394
123.435471,-5625.565159,11769.274478,2068.457845
123.435781,-3330.926739,13027.624579,-2451.505594
123.436090,4885.359217,14063.912898,-9346.365076
123.436399,5551.544565,8882.471304,-8427.050478
123.436709,-4515.256246,9622.677246,1455.581446
123.437018,-5773.606348,7105.977043,6128.763984
123.437328,2368.659014,2738.761985,2987.772442
123.437637,5329.482782,5477.523971,-2451.505594
123.437946,222.061783,7994.224174,-3447.429741
123.438256,-2960.823768,10955.047942,6205.373534
123.438565,-3108.864956,9030.512492,3370.820191
123.438875,4737.318029,13101.645173,-3830.477490
123.439184,3923.091493,12731.542202,-8733.488677
123.439493,-1258.350101,9252.574275,-3064.381992
123.439803,-4959.379811,8364.327145,4290.134789
123.440112,-592.164754,7698.141797,229.828649
123.440421,2368.659014,9548.656652,-5056.230287
123.440731,2664.741391,9474.636058,-5362.668486
123.441040,-5181.441594,11325.150913,-3677.258390
123.441350,-3775.050304,9918.759623,1915.238745
123.441659,2812.782580,13693.809927,-919.314598
123.441968,5847.626942,13545.768739,-6511.811733
123.442278,1924.535449,7031.956449,-2068.457845
123.442587,-3775.050304,7772.162391,4749.792088
123.442897,-2368.659014,4219.173869,2068.457845
123.443206,2516.700203,9474.636058,-3753.867940
123.443515,4293.194464,7254.018232,-6894.859482
123.443825,-3849.070898,9622.677246,-842.705048
123.444134,-3182.885551,11177.109724,4136.915689
123.444443,222.061783,9326.594869,306.438199
123.444753,2368.659014,11917.315666,-6128.763984
123.445062,1702.473667,6069.688724,-2911.162892
123.445372,-6513.812290,7105.977043,3600.648841
123.445681,-370.102971,4737.318029,2528.115143
123.445990,-666.185348,8882.471304,0.000000
123.446300,3182.885551,12065.356855,-6358.592633
123.446609,-296.082377,7846.182985,-4903.011187
123.446919,-4589.276840,14804.118840,153.219100
123.447228,74.020594,8956.491898,306.438199
123.447537,1036.288319,13323.706956,-6511.811733
123.447847,3627.009116,8364.327145,-6818.249932
123.448156,1850.514855,11399.171507,-1072.533697
123.448465,-2664.741391,7402.059420,5745.716235
123.448775,-222.061783,8956.491898,1838.629195
123.449084,7476.080014,11843.295072,-7124.688131
123.449394,-888.247130,7328.038826,-7201.297681
123.449703,-4367.215058,14878.139434,2451.505594
123.450012,-3701.029710,9252.574275,1608.800546
123.450322,5847.626942,11251.130318,-7201.297681
123.450631,3923.091493,8734.430116,-7277.907231
123.450941,-3330.926739,6735.874072,-1608.800546
123.451250,-4441.235652,5329.482782,6435.202183
123.451559,-1628.453072,5773.606348,2911.162892
123.451869,4219.173869,11843.295072,-4136.915689
123.452178,1702.473667,6957.935855,-8197.221829
123.452487,-6143.709319,12509.480420,-2834.553343
123.452797,-2590.720797,9030.512492,536.266849
123.453106,2368.659014,11399.171507,-4290.134789
123.453416,4589.276840,11251.130318,-7507.735880
123.453725,-0.000000,7698.141797,1991.848295
123.454034,-1850.514855,7994.224174,9882.631924
123.454344,-2960.823768,3849.070898,5745.716235
123.454653,592.164754,14359.995275,-3600.648841
123.454963,4441.235652,9844.739029,-10878.556072
123.455272,-888.247130,12139.377449,-11874.480219
123.455581,-3849.070898,12065.356855,-1762.019645
123.455891,-814.226536,10066.800811,842.705048
123.456200,5403.503377,12953.603985,-6052.154434
123.456509,3404.947333,7772.162391,-1302.362347
123.456819,-962.267725,5255.462188,7584.345430
123.457128,-5847.626942,814.226536,10112.460574
123.457438,2516.700203,8290.306550,2068.457845
123.457747,3478.967927,8882.471304,-9729.412825
123.458056,-814.226536,9992.780217,-6281.983084
123.458366,-6957.935855,14804.118840,-2604.724693
123.458675,-1628.453072,10881.027347,-2834.553343
123.458985,5995.668130,13323.706956,-8656.879127
123.459294,3034.844362,7254.018232,-2987.772442
123.459603,-3034.844362,7476.080014,11797.870669
123.459913,-2812.782580,3404.947333,11338.213370
123.460222,1776.494261,3182.885551,4213.525239
123.460531,6069.688724,11251.130318,-5822.325785
123.460841,-222.061783,10658.965565,-7660.954980
123.461150,-7105.977043,15544.324782,-3983.696590
123.461460,-3552.988522,11769.274478,-1532.190996
123.461769,4293.194464,15914.427753,-8350.440928
123.462078,5403.503377,10584.944971,-10035.851024
123.462388,-1776.494261,5847.626942,4213.525239
123.462697,-6069.688724,4071.132681,11644.651570
123.463007,1258.350101,2886.803174,6435.202183
123.463316,4737.318029,10214.842000,-3677.258390
123.463625,2368.659014,7920.203579,-6818.249932
123.463935,-4367.215058,11695.253884,536.266849
123.464244,-4145.153275,9326.594869,-383.047749
123.464553,1480.411884,10510.924376,-4290.134789
123.464863,4737.318029,12435.459826,-10725.336972
123.465172,-1110.308913,6069.688724,2451.505594
123.465482,-5995.668130,6735.874072,9576.193725
123.465791,-2368.659014,4071.132681,6281.983084
123.466100,5995.668130,10658.965565,-4979.620737
123.466410,4885.359217,7402.059420,-6971.469032
123.466719,-5699.585753,11917.315666,153.219100
123.467029,-5403.503377,12287.418637,-612.876398
123.467338,4811.338623,10955.047942,-3677.258390
123.467647,6365.771101,14063.912898,-7814.174080
123.467957,-222.061783,7402.059420,-383.047749
123.468266,-4737.318029,6883.915261,11031.775171
123.468575,-1554.432478,5107.421000,7124.688131
123.468885,2146.597232,10066.800811,-3447.429741
123.469194,5625.565159,11547.212695,-10112.460574
123.469504,-5329.482782,11621.233289,-7507.735880
123.469813,-6513.812290,14878.139434,-612.876398
123.470122,370.102971,11029.068536,-4366.744339
123.470432,5551.544565,11473.192101,-7660.954980
123.470741,2368.659014,5033.400406,-306.438199
123.471051,-3108.864956,6439.791695,11108.384721
123.471360,-3849.070898,1258.350101,8427.050478
123.471669,2368.659014,4811.338623,3907.087040
123.471979,4071.132681,10807.006753,-6052.154434
123.472288,-962.267725,9326.594869,-9652.803275
123.472597,-5403.503377,14211.954086,-4979.620737
123.472907,-1554.432478,12435.459826,-2834.553343
123.473216,4589.276840,13841.851115,-8120.612279
123.473526,4441.235652,8216.285956,-6435.202183
123.473835,-1110.308913,7402.059420,8810.098227
123.474144,-3997.112087,4885.359217,11874.480219
123.474454,2442.679609,3627.009116,6588.421283
123.474763,3627.009116,11177.109724,-2987.772442
123.475072,-814.226536,10584.944971,-7277.907231
123.475382,-5033.400406,18579.169144,-2987.772442
123.475691,-4293.194464,12361.439231,-5362.668486
123.476001,3404.947333,15248.242405,-11031.775171
123.476310,4515.256246,10584.944971,-10342.289223
123.476619,-3701.029710,8068.244768,7814.174080
123.476929,-4071.132681,6143.709319,11951.089769
123.477238,592.164754,-74.020594,6511.811733
123.477548,1554.432478,7402.059420,1838.629195
123.477857,2516.700203,8142.265362,-1685.410096
123.478166,-518.144159,10807.006753,-6971.469032
123.478476,-2664.741391,12731.542202,-8656.879127
123.478785,740.205942,12583.501014,-6358.592633
123.479094,3849.070898,9474.636058,-9193.145976
123.479404,1850.514855,5625.565159,-2451.505594
123.479713,-5255.462188,8068.244768,11031.775171
123.480023,-0.000000,-0.000000,11568.042020
123.480332,1998.556043,4737.318029,2221.676944
123.480641,592.164754,10436.903782,-2757.943793
123.480951,-518.144159,10807.006753,-10035.851024
123.481260,-3182.885551,12953.603985,-8044.002729
123.481570,-1110.308913,14582.057057,-8810.098227
123.481879,1776.494261,17320.819043,-8044.002729
123.482188,3849.070898,11473.192101,-4213.525239
123.482498,-4515.256246,11695.253884,11568.042020
123.482807,-1184.329507,5699.585753,11184.994271
123.483116,1332.370696,3256.906145,5362.668486
123.483426,1628.453072,9474.636058,-2757.943793
123.483735,-888.247130,9622.677246,-5669.106685
123.484045,-4959.379811,14063.912898,-6435.202183
123.484354,-1924.535449,11547.212695,-7890.783629
123.484663,2664.741391,13249.686362,-8963.317327
123.484973,4589.276840,9178.553681,-7737.564530
123.485282,-2368.659014,4515.256246,6588.421283
123.485592,-2442.679609,3552.988522,13176.842566
123.485901,1036.288319,-74.020594,8580.269578
123.486210,3108.864956,6587.832884,-536.266849
123.486520,2146.597232,8808.450710,-4366.744339
123.486829,-2072.576638,13841.851115,-5515.887586
123.487138,-3997.112087,13027.624579,-8120.612279
123.487448,-1554.432478,14285.974681,-6818.249932
123.487757,4959.379811,11103.089130,-9422.974625
123.488067,2738.761985,6365.771101,-2528.115143
123.488376,-4367.215058,7254.018232,12640.575717
123.488685,-370.102971,1702.473667,11184.994271
123.488995,2368.659014,7772.162391,689.485948
123.489304,3552.988522,7031.956449,-3140.991542
123.489614,-2368.659014,16580.613101,-4826.401637
123.489923,-4515.256246,16950.716072,-8810.098227
123.490232,-0.000000,16358.551318,-8886.707777
123.490542,4219.173869,15618.345376,-12257.527968
123.490851,3552.988522,8660.409521,-6818.249932
123.491160,-6587.832884,8142.265362,9729.412825
123.491470,-2738.761985,4737.318029,15321.909960
123.491779,6217.729913,5403.503377,3140.991542
123.492089,5773.606348,3701.029710,-5439.278036
123.492398,-2220.617826,10066.800811,3294.210641
123.492707,-5255.462188,15248.242405,0.000000
123.493017,-518.144159,10732.986159,-9346.365076
123.493326,3034.844362,12583.501014,-14479.204912
123.493636,3849.070898,6513.812290,-9269.755526
123.493945,-4515.256246,5773.606348,2911.162892
123.494254,-3627.009116,4515.256246,11568.042020
123.494564,5329.482782,5625.565159,5209.449386
123.494873,5699.585753,5403.503377,-3064.381992
123.495182,-1184.329507,5107.421000,4213.525239
123.495492,-6365.771101,15174.221811,4290.134789
123.495801,1480.411884,12657.521608,-9652.803275
123.496111,296.082377,18431.127956,-14632.424012
123.496420,2664.741391,14137.933492,-8810.098227
123.496729,888.247130,9844.739029,-2451.505594
123.497039,-3849.070898,7920.203579,4519.963438
123.497348,518.144159,9326.594869,9039.926876
123.497658,4515.256246,10584.944971,-2298.286494
123.497967,1998.556043,5773.606348,-2221.676944
123.498276,-3775.050304,11843.295072,3830.477490
123.498586,-4367.215058,10955.047942,-3140.991542
123.498895,3404.947333,15174.221811,-11108.384721
123.499204,5773.606348,11251.130318,-10495.508323
123.499514,-444.123565,3478.967927,-6128.763984
123.499823,-4367.215058,6883.915261,6205.373534
123.500133,592.164754,4293.194464,9422.974625
123.500442,7624.121203,8364.327145,306.438199
123.500751,814.226536,4219.173869,-229.828649
123.501061,-5033.400406,7994.224174,6052.154434
123.501370,-4737.318029,10436.903782,-1685.410096
123.501680,1110.308913,14434.015869,-12180.918418
123.501989,2368.659014,16506.592507,-13866.328514
123.502298,1998.556043,9326.594869,-3830.477490
123.502608,-4811.338623,9770.718434,3370.820191
123.502917,-2664.741391,7105.977043,9039.926876
123.503227,5921.647536,10510.924376,4136.915689
123.503536,6735.874072,8290.306550,-1838.629195
123.503845,-2738.761985,8734.430116,7048.078582
123.504155,-5403.503377,10214.842000,2374.896044
123.504464,1258.350101,11103.089130,-9576.193725
123.504773,5033.400406,17172.777854,-15015.471761
123.505083,-1480.411884,9770.718434,-5286.058936
123.505392,-2590.720797,10362.883188,2911.162892
123.505702,-3034.844362,6217.729913,3217.601092
123.506011,3478.967927,7105.977043,3677.258390
123.506320,4811.338623,5033.400406,1685.410096
123.506630,2220.617826,4145.153275,1608.800546
123.506939,-3849.070898,10066.800811,3677.258390
123.507249,296.082377,8734.430116,612.876398
123.507558,1924.535449,15544.324782,-9576.193725
123.507867,-0.000000,11843.295072,-9652.803275
123.508177,-2960.823768,12879.583391,766.095498
123.508486,-3034.844362,7698.141797,1302.362347
123.508795,1924.535449,5699.585753,0.000000
123.509105,3849.070898,8290.306550,-1991.848295
123.509414,-666.185348,7624.121203,-919.314598
123.509724,-2812.782580,9918.759623,2604.724693
123.510033,296.082377,8438.347739,1225.752797
123.510342,3849.070898,13027.624579,-5898.935335
123.510652,2442.679609,11917.315666,-7431.126331
123.510961,-3552.988522,11251.130318,1149.143247
123.511271,-3701.029710,11103.089130,1225.752797
123.511580,666.185348,7402.059420,-2451.505594
123.511889,3552.988522,9696.697840,-5592.497135
123.512199,370.102971,8438.347739,-1991.848295
123.512508,-2146.597232,12361.439231,2528.115143
123.512817,-1480.411884,9844.739029,1532.190996
123.513127,3182.885551,9622.677246,-1915.238745
123.513436,3478.967927,9918.759623,-5745.716235
123.513746,-5255.462188,8216.285956,-3677.258390
123.514055,-2960.823768,7772.162391,1149.143247
123.514364,-1924.535449,5403.503377,76.609550
123.514674,4367.215058,10732.986159,-6511.811733
123.514983,962.267725,9548.656652,-4443.353888
123.515293,-2368.659014,8142.265362,3370.820191
123.515602,-1850.514855,9622.677246,995.924147
123.515911,-740.205942,11029.068536,-1762.019645
123.516221,4441.235652,10732.986159,-4749.792088
123.516530,-518.144159,5551.544565,-229.828649
123.516840,-1184.329507,7476.080014,1762.019645
123.517149,-444.123565,8512.368333,2221.676944
123.517458,740.205942,11991.336260,-3447.429741
123.517768,3849.070898,8512.368333,-4749.792088
123.518077,814.226536,7254.018232,2834.553343
123.518386,-3627.009116,13101.645173,689.485948
123.518696,-2812.782580,11029.068536,153.219100
123.519005,1924.535449,11769.274478,-4519.963438
123.519315,-444.123565,8956.491898,-8350.440928
123.519624,-222.061783,11991.336260,-2451.505594
123.519933,-2368.659014,8660.409521,3600.648841
123.520243,-1036.288319,9400.615463,-995.924147
123.520552,5551.544565,11251.130318,-6281.983084
123.520862,2960.823768,7179.997637,-4136.915689
123.521171,-2960.823768,9622.677246,4290.134789
123.521480,-74.020594,5329.482782,5286.058936
123.521790,2812.782580,9992.780217,-2681.334243
123.522099,1628.453072,4293.194464,-5362.668486
123.522408,740.205942,6513.812290,0.000000
123.522718,-2960.823768,8142.265362,1762.019645
123.523027,-444.123565,10066.800811,-1838.629195
123.523337,3034.844362,11769.274478,-6205.373534
123.523646,1258.350101,9548.656652,-4673.182538
123.523955,222.061783,10881.027347,1915.238745
123.524265,-4219.173869,9400.615463,3370.820191
123.524574,2072.576638,12065.356855,-842.705048
123.524884,4811.338623,8882.471304,-4596.572988
123.525193,814.226536,10140.821405,4443.353888
123.525502,-5773.606348,9400.615463,6052.154434
123.525812,-4145.153275,11029.068536,0.000000
123.526121,5477.523971,14359.995275,-9346.365076
123.526430,2442.679609,9030.512492,-10265.679673
123.526740,-3552.988522,9770.718434,-1455.581446
123.527049,-5699.585753,7402.059420,1762.019645
123.527359,1776.494261,9770.718434,-1149.143247
123.527668,7846.182985,6291.750507,-4213.525239
123.527977,2738.761985,3256.906145,5439.278036
123.528287,-1776.494261,8956.491898,11568.042020
123.528596,-1110.308913,5033.400406,7124.688131
123.528906,3108.864956,10362.883188,-4519.963438
123.529215,2220.617826,12213.398043,-9882.631924
123.529524,74.020594,12879.583391,-7277.907231
123.529834,-3330.926739,12213.398043,-3447.429741
123.530143,-2220.617826,12435.459826,-3294.210641
123.530452,6069.688724,12139.377449,-4366.744339
123.530762,3034.844362,7846.182985,-1378.971896
123.531071,-2220.617826,6661.853478,9652.803275
123.531381,-3330.926739,4145.153275,10418.898773
123.531690,2664.741391,9474.636058,-842.705048
123.531999,2368.659014,11177.109724,-9193.145976
123.532309,-1998.556043,11473.192101,-5975.544884
123.532618,-3923.091493,13841.851115,-3524.039291
123.532928,370.102971,14285.974681,-7124.688131
123.533237,3627.009116,13693.809927,-6818.249932
123.533546,2072.576638,7476.080014,-383.047749
123.533856,-518.144159,3997.112087,8044.002729
123.534165,-4663.297435,4737.318029,9652.803275
123.534475,-1480.411884,6735.874072,3064.381992
123.534784,4071.132681,9548.656652,-8350.440928
123.535093,444.123565,9548.656652,-7967.393179
123.535403,-4663.297435,13619.789333,-2451.505594
123.535712,-3404.947333,12657.521608,-2451.505594
123.536021,3849.070898,15544.324782,-8120.612279
123.536331,4811.338623,7105.977043,-6281.983084
123.536640,-148.041188,7031.956449,6665.030833
123.536950,-1850.514855,4737.318029,10495.508323
123.537259,-222.061783,4515.256246,3370.820191
123.537568,4219.173869,10288.862594,-3907.087040
123.537878,666.185348,7402.059420,-5822.325785
123.538187,-6217.729913,13101.645173,-2145.067394
123.538497,-4811.338623,11991.336260,-1838.629195
123.538806,4589.276840,16654.633695,-9576.193725
123.539115,4959.379811,7476.080014,-11108.384721
123.539425,-222.061783,5625.565159,4903.011187
123.539734,-4737.318029,6365.771101,12717.185267
123.540043,-0.000000,5921.647536,6818.249932
123.540353,4811.338623,10288.862594,-2604.724693
123.540662,518.144159,8512.368333,-5515.887586
123.540972,-5921.647536,12731.542202,-2681.334243
123.541281,-2516.700203,10732.986159,-4673.182538
123.541590,518.144159,15766.386565,-8427.050478
123.541900,3849.070898,12879.583391,-9422.974625
123.542209,-1776.494261,3478.967927,919.314598
123.542519,-2516.700203,5477.523971,10265.679673
123.542828,-2368.659014,2368.659014,6128.763984
123.543137,4293.194464,7402.059420,-459.657299
123.543447,2368.659014,6883.915261,-4443.353888
123.543756,-666.185348,10140.821405,-2451.505594
123.544065,-2664.741391,11843.295072,-1838.629195
123.544375,1776.494261,13693.809927,-8120.612279
123.544684,2442.679609,13101.645173,-10035.851024
123.544994,444.123565,4293.194464,-1608.800546
123.545303,-2738.761985,6365.771101,11184.994271
123.545612,-444.123565,3627.009116,7660.954980
123.545922,3182.885551,7550.100608,2834.553343
123.546231,2072.576638,10066.800811,-612.876398
123.546541,-3552.988522,10732.986159,-2451.505594
123.546850,-3182.885551,15396.283594,-4519.963438
123.547159,-3256.906145,15914.427753,-9422.974625
123.547469,1480.411884,15988.448347,-11644.651570
123.547778,-1628.453072,9326.594869,-7507.735880
123.548088,222.061783,9178.553681,5515.887586
123.548397,444.123565,4367.215058,6281.983084
123.548706,518.144159,4959.379811,7354.516781
123.549016,3256.906145,8216.285956,4826.401637
123.549325,-592.164754,6439.791695,-306.438199
123.549634,-1776.494261,11843.295072,-3140.991542
123.549944,-1332.370696,10881.027347,-5975.544884
123.550253,1036.288319,14211.954086,-10035.851024
123.550563,1554.432478,9844.739029,-8503.660028
123.550872,-518.144159,5403.503377,-1302.362347
123.551181,-2886.803174,3552.988522,3753.867940
123.551491,-2516.700203,2812.782580,6894.859482
123.551800,1776.494261,7476.080014,4673.182538
123.552110,2442.679609,9030.512492,-842.705048
123.552419,592.164754,12435.459826,-2221.676944
123.552728,-1554.432478,14211.954086,-3294.210641
123.553038,-0.000000,16062.468941,-7354.516781
123.553347,1184.329507,14804.118840,-9882.631924
123.553656,-296.082377,9474.636058,-5592.497135
123.553966,-0.000000,8586.388927,3524.039291
123.554275,-3256.906145,4219.173869,5515.887586
123.554585,-1110.308913,9992.780217,2987.772442
123.554894,1480.411884,6439.791695,-2987.772442
123.555203,-1110.308913,10066.800811,-3600.648841
123.555513,-3182.885551,12583.501014,-5209.449386
123.555822,-3108.864956,13175.665768,-8886.707777
123.556132,3108.864956,15322.262999,-12487.356617
123.556441,3182.885551,8290.306550,-9806.022374
123.556750,-3256.906145,8438.347739,1915.238745
123.557060,148.041188,3923.091493,5132.839837
123.557369,-1924.535449,3330.926739,1608.800546
123.557678,444.123565,7254.018232,-2451.505594
123.557988,370.102971,9474.636058,-4443.353888
123.558297,-2812.782580,13619.789333,-11338.213370
123.558607,222.061783,12065.356855,-12563.966167
123.558916,-3404.947333,15322.262999,-12640.575717
123.559225,2220.617826,12731.542202,-14632.424012
123.559535,1184.329507,3330.926739,-8580.269578
123.559844,1776.494261,6069.688724,383.047749
123.560154,888.247130,814.226536,3983.696590
123.560463,-1480.411884,5329.482782,1915.238745
123.560772,3701.029710,8438.347739,-6971.469032
123.561082,2220.617826,11547.212695,-13406.671215
123.561391,-1776.494261,15100.201217,-14709.033562
123.561701,-0.000000,15988.448347,-15245.300410
123.562010,-2072.576638,14137.933492,-15475.129060
123.562319,1480.411884,13841.851115,-14325.985813
123.562629,1036.288319,6661.853478,-11414.822920
123.562938,3034.844362,3701.029710,-5362.668486
123.563247,3478.967927,814.226536,995.924147
123.563557,-962.267725,3182.885551,4903.011187
123.563866,-814.226536,8216.285956,842.705048
123.564176,962.267725,9770.718434,-12870.404366
123.564485,-148.041188,10658.965565,-20148.311597
123.564794,-1406.391290,14285.974681,-16547.662757
123.565104,-2072.576638,15174.221811,-14709.033562
123.565413,-666.185348,11547.212695,-13942.938064
123.565723,-1776.494261,9326.594869,-7584.345430
123.566032,-1406.391290,5477.523971,-5898.935335
123.566341,148.041188,5699.585753,-5439.278036
123.566651,-0.000000,8882.471304,-3600.648841
123.566960,-0.000000,5995.668130,-4519.963438
123.567269,-3256.906145,10362.883188,-9193.145976
123.567579,-2146.597232,11103.089130,-14325.985813
123.567888,-5107.421000,12731.542202,-18003.244203
123.568198,444.123565,13323.706956,-18922.558801
123.568507,2590.720797,11029.068536,-15704.957709
123.568816,-74.020594,8364.327145,-7814.174080
123.569126,-1258.350101,3330.926739,-3983.696590
123.569435,-148.041188,6069.688724,-9116.536426
123.569745,-1036.288319,7772.162391,-3140.991542
123.570054,444.123565,8142.265362,-8503.660028
123.570363,2442.679609,11621.233289,-17390.367805
123.570673,3627.009116,10584.944971,-18233.072852
123.570982,-3034.844362,11399.171507,-12870.404366
123.571291,-1924.535449,13249.686362,-7354.516781
123.571601,5403.503377,10436.903782,-9806.022374
123.571910,518.144159,9474.636058,-8733.488677
123.572220,-2812.782580,9548.656652,-5362.668486
123.572529,740.205942,8438.347739,-8580.269578
123.572838,5403.503377,8586.388927,-17237.148705
123.573148,-666.185348,9474.636058,-14402.595362
123.573457,-3404.947333,11769.274478,-6588.421283
123.573767,-296.082377,14359.995275,-7354.516781
123.574076,4293.194464,12731.542202,-13176.842566
123.574385,740.205942,10584.944971,-9652.803275
123.574695,-1258.350101,6365.771101,-5822.325785
123.575004,-3775.050304,6883.915261,-9422.974625
123.575314,2886.803174,8808.450710,-14709.033562
123.575623,2442.679609,11695.253884,-15858.176809
123.575932,814.226536,11547.212695,-8350.440928
123.576242,-2368.659014,10436.903782,459.657299
123.576551,3108.864956,6735.874072,-4519.963438
123.576860,-592.164754,3701.029710,-9499.584175
123.577170,-1850.514855,5255.462188,-6128.763984
123.577479,-5181.441594,7254.018232,-7660.954980
123.577789,-2294.638420,10881.027347,-14096.157163
123.578098,-1554.432478,16432.571912,-17543.586904
123.578407,-2368.659014,17690.922014,-18156.463303
123.578717,-3034.844362,17912.983796,-16164.615008
123.579026,-1332.370696,14285.974681,-11261.603821
123.579336,1258.350101,11843.295072,-8273.831378
123.579645,3849.070898,3404.947333,-7967.393179
123.579954,2220.617826,148.041188,-3217.601092
123.580264,-1406.391290,-592.164754,2068.457845
123.580573,-74.020594,2960.823768,-3217.601092
123.580882,740.205942,9326.594869,-12563.966167
123.581192,-222.061783,14582.057057,-14402.595362
123.581501,-1258.350101,16136.489536,-14938.862211
123.581811,-222.061783,17616.901420,-16624.272307
123.582120,-444.123565,12805.562797,-18462.901502
123.582429,-1184.329507,8660.409521,-13636.499864
123.582739,-666.185348,6217.729913,-7814.174080
123.583048,-148.041188,7179.997637,-4979.620737
123.583358,2812.782580,8364.327145,-6128.763984
123.583667,3701.029710,10288.862594,-7048.078582
123.583976,1332.370696,10510.924376,-10342.289223
123.584286,-814.226536,12731.542202,-10495.508323
123.584595,888.247130,13323.706956,-12257.527968
123.584904,888.247130,13397.727550,-15475.129060
123.585214,592.164754,9474.636058,-13483.280765
123.585523,-1702.473667,4515.256246,-9039.926876
123.585833,-0.000000,1702.473667,-9422.974625
123.586142,-222.061783,4145.153275,-9729.412825
123.586451,-1702.473667,8216.285956,-5975.544884
123.586761,296.082377,10436.903782,-5898.935335
123.587070,962.267725,11843.295072,-11414.822920
123.587380,888.247130,13323.706956,-11951.089769
123.587689,-1406.391290,13027.624579,-10265.679673
123.587998,-1036.288319,11399.171507,-9039.926876
123.588308,222.061783,11029.068536,-11031.775171
123.588617,148.041188,9696.697840,-9269.755526
123.588927,-1110.308913,8660.409521,-6511.811733
123.589236,-0.000000,8808.450710,-6818.249932
123.589545,-962.267725,7476.080014,-9652.803275
123.589855,222.061783,7179.997637,-9652.803275
123.590164,370.102971,5921.647536,-7890.783629
123.590473,1184.329507,7254.018232,-6128.763984
123.590783,-0.000000,6809.894666,-2681.334243
123.591092,2590.720797,9178.553681,-2374.896044
123.591402,2146.597232,8142.265362,-6665.030833
123.591711,962.267725,8216.285956,-6435.202183
123.592020,-296.082377,11251.130318,-3140.991542
123.592330,-740.205942,14285.974681,-8273.831378
123.592639,-666.185348,12287.418637,-9116.536426
123.592949,-2812.782580,11843.295072,-8427.050478
123.593258,-3404.947333,11325.150913,-11031.775171
123.593567,-2738.761985,9770.718434,-13713.109414
123.593877,-3330.926739,11029.068536,-13176.842566
123.594186,-2072.576638,11843.295072,-11261.603821
123.594495,-370.102971,11843.295072,-11951.089769
123.594805,888.247130,12435.459826,-10725.336972
123.595114,-0.000000,10807.006753,-9499.584175
123.595424,-1258.350101,11399.171507,-9729.412825
123.595733,-962.267725,10510.924376,-10418.898773
123.596042,-888.247130,9770.718434,-13789.718964
123.596352,1850.514855,8882.471304,-18079.853753
123.596661,1554.432478,9030.512492,-19075.777900
123.596971,1850.514855,7550.100608,-13866.328514
123.597280,2738.761985,5625.565159,-8733.488677
123.597589,4737.318029,3404.947333,-6205.373534
123.597899,-4589.276840,4589.276840,2681.334243
123.598208,4071.132681,7254.018232,0.000000
123.598517,-740.205942,592.164754,-10878.556072
123.598822,7179.997637,9474.636058,-24055.398637
123.599132,-7254.018232,9178.553681,-22446.598091
123.599441,-3849.070898,18283.086767,-18156.463303
123.599751,-0.000000,17468.860231,-19612.044749
123.600060,4811.338623,16284.530724,-20301.530697
123.600370,3182.885551,11917.315666,-9499.584175
123.600679,-740.205942,5477.523971,-536.266849
123.600989,15100.201217,-7105.977043,-5286.058936
123.601298,-24722.878463,2146.597232,689.485948
123.601608,21317.931130,35974.008781,2911.162892
123.601917,7994.224174,10436.903782,-20684.578446
123.602227,11547.212695,4737.318029,-36925.803004
123.602537,-22650.301825,2294.638420,-7277.907231
123.602846,-7105.977043,21095.869347,-4136.915689
123.603156,3627.009116,19171.333898,-18003.244203
123.603465,296.082377,11251.130318,-19612.044749
123.603775,592.164754,7846.182985,-10725.336972
123.604084,-8142.265362,-814.226536,-9039.926876
123.604394,-3552.988522,11917.315666,-9039.926876
123.604703,1776.494261,13619.789333,-8273.831378
123.605013,9992.780217,18061.024985,-22063.550342
123.605322,-3849.070898,6069.688724,-6971.469032
123.605632,-7031.956449,10584.944971,5362.668486
123.605941,-2664.741391,4737.318029,-11491.432470
123.606251,-518.144159,3404.947333,-26200.466032
